Timestamp_seconds,Accel_X_g,Accel_Y_g,Accel_Z_g
1580417274.85959,-0.0793469138628211,0.0153810940718699,-0.993911650263218
1580417274.86359,-0.0822766460669868,0.0148928053711757,-0.987075608453498
1580417274.86758,-0.0788586251621268,0.0129396505683985,-0.985610742351415
1580417274.87157,-0.0817883573662925,0.0144045166704814,-0.992446784161135
1580417274.87557,-0.0798352025635154,0.0168459601739528,-0.990981918059052
1580417274.87956,-0.077393759060044,0.0183108262760356,-0.99293507286183
1580417274.88356,-0.0793469138628211,0.0173342488746471,-0.993911650263218
1580417274.88755,-0.0798352025635154,0.0178225375753414,-0.994399938963912
1580417274.89154,-0.0778820477607383,0.0168459601739528,-0.990493629358358
1580417274.89554,-0.0827649347676811,0.0163576714732585,-0.992446784161135
1580417274.89953,-0.0817883573662925,0.0168459601739528,-0.987563897154192
1580417274.90353,-0.0798352025635154,0.0163576714732585,-0.991470206759747
1580417274.90752,-0.0783703364614325,0.0183108262760356,-0.993423361562524
1580417274.91153,-0.0783703364614325,0.0158693827725642,-0.987075608453498
1580417274.91552,-0.0837415121690697,0.0207522697795071,-0.990981918059052
1580417274.91952,-0.0803234912642097,0.0178225375753414,-0.988052185854887
1580417274.92351,-0.080811779964904,0.0168459601739528,-0.990493629358358
1580417274.92751,-0.0798352025635154,0.0148928053711757,-0.992446784161135
1580417274.9315,-0.0813000686655982,0.0144045166704814,-0.987075608453498
1580417274.93549,-0.0793469138628211,0.0178225375753414,-0.993911650263218
1580417274.93949,-0.0783703364614325,0.0187991149767299,-0.995864805065995
1580417274.94348,-0.077393759060044,0.0187991149767299,-0.991958495460441
1580417274.94747,-0.0798352025635154,0.0153810940718699,-0.995864805065995
1580417274.95147,-0.0783703364614325,0.0148928053711757,-0.988540474555581
1580417274.95546,-0.0783703364614325,0.0163576714732585,-0.991470206759747
1580417274.95946,-0.0803234912642097,0.0158693827725642,-0.993423361562524
1580417274.96345,-0.080811779964904,0.0192874036774242,-0.99293507286183
1580417274.96744,-0.0788586251621268,0.0168459601739528,-0.991470206759747
1580417274.97144,-0.077393759060044,0.0168459601739528,-0.990005340657664
1580417274.97543,-0.0788586251621268,0.0183108262760356,-0.988540474555581
1580417274.97943,-0.0783703364614325,0.0153810940718699,-0.994399938963912
1580417274.98342,-0.0783703364614325,0.0178225375753414,-0.990005340657664
1580417274.98741,-0.0793469138628211,0.0197756923781185,-0.990493629358358
1580417274.99139,-0.0778820477607383,0.0158693827725642,-0.98951705195697
1580417274.99539,-0.0793469138628211,0.0158693827725642,-0.99293507286183
1580417274.99938,-0.0803234912642097,0.0178225375753414,-0.991470206759747
1580417275.00338,-0.0769054703593497,0.0178225375753414,-0.99293507286183
1580417275.00737,-0.0764171816586554,0.0158693827725642,-0.988540474555581
1580417275.01136,-0.0778820477607383,0.0173342488746471,-0.990981918059052
1580417275.01536,-0.0798352025635154,0.0183108262760356,-0.990005340657664
1580417275.01935,-0.0798352025635154,0.0168459601739528,-0.993911650263218
1580417275.02335,-0.0754406042572668,0.0168459601739528,-0.992446784161135
1580417275.02734,-0.0798352025635154,0.0153810940718699,-0.987563897154192
1580417275.03133,-0.080811779964904,0.0178225375753414,-0.987563897154192
1580417275.03533,-0.0783703364614325,0.0158693827725642,-0.988052185854887
1580417275.03932,-0.0769054703593497,0.0173342488746471,-0.992446784161135
1580417275.04332,-0.077393759060044,0.0187991149767299,-0.985122453650721
1580417275.04731,-0.077393759060044,0.0163576714732585,-0.989028763256275
1580417275.0513,-0.0793469138628211,0.0153810940718699,-0.993911650263218
1580417275.0553,-0.0783703364614325,0.0153810940718699,-0.990005340657664
1580417275.05929,-0.077393759060044,0.0163576714732585,-0.99293507286183
1580417275.06328,-0.0764171816586554,0.0158693827725642,-0.993423361562524
1580417275.06728,-0.0827649347676811,0.0153810940718699,-0.993423361562524
1580417275.07129,-0.0783703364614325,0.0148928053711757,-0.98951705195697
1580417275.07528,-0.0803234912642097,0.0163576714732585,-0.991958495460441
1580417275.07928,-0.0822766460669868,0.0163576714732585,-0.992446784161135
1580417275.08327,-0.0783703364614325,0.0129396505683985,-0.993423361562524
1580417275.08727,-0.0798352025635154,0.0158693827725642,-0.991958495460441
1580417275.09126,-0.0798352025635154,0.0173342488746471,-0.990005340657664
1580417275.09525,-0.0778820477607383,0.0202639810788128,-0.992446784161135
1580417275.09925,-0.0769054703593497,0.0158693827725642,-0.990981918059052
1580417275.10324,-0.0788586251621268,0.0192874036774242,-0.988052185854887
1580417275.10723,-0.080811779964904,0.0173342488746471,-0.990981918059052
1580417275.11123,-0.0803234912642097,0.0178225375753414,-0.991958495460441
1580417275.11522,-0.0798352025635154,0.0173342488746471,-0.99293507286183
1580417275.11922,-0.0817883573662925,0.0207522697795071,-0.990005340657664
1580417275.12321,-0.0788586251621268,0.0178225375753414,-0.993423361562524
1580417275.1272,-0.0798352025635154,0.0173342488746471,-0.991470206759747
1580417275.1312,-0.0783703364614325,0.0153810940718699,-0.992446784161135
1580417275.13519,-0.0788586251621268,0.0192874036774242,-0.988052185854887
1580417275.13919,-0.0783703364614325,0.0163576714732585,-0.990005340657664
1580417275.14318,-0.0778820477607383,0.0168459601739528,-0.995376516365301
1580417275.14717,-0.0793469138628211,0.0144045166704814,-0.993423361562524
1580417275.15115,-0.080811779964904,0.0168459601739528,-0.986587319752804
1580417275.15515,-0.0759288929579611,0.0197756923781185,-0.991470206759747
1580417275.15914,-0.0822766460669868,0.0178225375753414,-0.988052185854887
1580417275.16313,-0.080811779964904,0.0183108262760356,-0.989028763256275
1580417275.16713,-0.0754406042572668,0.0148928053711757,-0.990493629358358
1580417275.17112,-0.077393759060044,0.0187991149767299,-0.989028763256275
1580417275.17512,-0.0793469138628211,0.0173342488746471,-0.99293507286183
1580417275.17911,-0.0764171816586554,0.0183108262760356,-0.991470206759747
1580417275.1831,-0.0817883573662925,0.0178225375753414,-0.989028763256275
1580417275.1871,-0.0788586251621268,0.0134279392690928,-0.986587319752804
1580417275.19109,-0.080811779964904,0.0173342488746471,-0.991470206759747
1580417275.19509,-0.080811779964904,0.0168459601739528,-0.98609903105211
1580417275.19908,-0.0778820477607383,0.0178225375753414,-0.990005340657664
1580417275.20307,-0.077393759060044,0.0168459601739528,-0.986587319752804
1580417275.20707,-0.0783703364614325,0.0197756923781185,-0.991470206759747
1580417275.21106,-0.0793469138628211,0.0178225375753414,-0.991958495460441
1580417275.21506,-0.080811779964904,0.0183108262760356,-0.99293507286183
1580417275.21905,-0.0788586251621268,0.0178225375753414,-0.98951705195697
1580417275.22304,-0.0793469138628211,0.0148928053711757,-0.990981918059052
1580417275.22704,-0.0798352025635154,0.0183108262760356,-0.989028763256275
1580417275.23105,-0.0783703364614325,0.0173342488746471,-0.990981918059052
1580417275.23504,-0.0793469138628211,0.0178225375753414,-0.990981918059052
1580417275.23904,-0.073975738155184,0.0173342488746471,-0.990493629358358
1580417275.24303,-0.077393759060044,0.0158693827725642,-0.993423361562524
1580417275.24702,-0.0788586251621268,0.0178225375753414,-0.99635309376669
1580417275.25102,-0.077393759060044,0.0163576714732585,-0.990005340657664
1580417275.25501,-0.0793469138628211,0.0163576714732585,-0.991470206759747
1580417275.25901,-0.0783703364614325,0.0178225375753414,-0.99635309376669
1580417275.263,-0.0793469138628211,0.0212405584802013,-0.992446784161135
1580417275.26699,-0.0788586251621268,0.0178225375753414,-0.991470206759747
1580417275.27099,-0.0813000686655982,0.0178225375753414,-0.990493629358358
1580417275.27498,-0.0803234912642097,0.0178225375753414,-0.98951705195697
1580417275.27898,-0.080811779964904,0.0163576714732585,-0.992446784161135
1580417275.28297,-0.0793469138628211,0.0173342488746471,-0.991470206759747
1580417275.28696,-0.0778820477607383,0.0173342488746471,-0.992446784161135
1580417275.29096,-0.0788586251621268,0.0173342488746471,-0.990005340657664
1580417275.29495,-0.0813000686655982,0.0168459601739528,-0.989028763256275
1580417275.29895,-0.0788586251621268,0.0173342488746471,-0.993911650263218
1580417275.30294,-0.0793469138628211,0.0158693827725642,-0.987075608453498
1580417275.30693,-0.0793469138628211,0.0158693827725642,-0.99293507286183
1580417275.31091,-0.0803234912642097,0.0173342488746471,-0.994888227664607
1580417275.31491,-0.0798352025635154,0.0178225375753414,-0.987563897154192
1580417275.3189,-0.077393759060044,0.0178225375753414,-0.990981918059052
1580417275.32289,-0.080811779964904,0.0187991149767299,-0.99293507286183
1580417275.32689,-0.0788586251621268,0.0168459601739528,-0.991958495460441
1580417275.33088,-0.0783703364614325,0.0202639810788128,-0.985610742351415
1580417275.33488,-0.0778820477607383,0.0231937132829785,-0.989028763256275
1580417275.33887,-0.0827649347676811,0.0183108262760356,-0.993911650263218
1580417275.34286,-0.0769054703593497,0.0183108262760356,-0.991958495460441
1580417275.34686,-0.077393759060044,0.0183108262760356,-0.991958495460441
1580417275.35085,-0.0798352025635154,0.0187991149767299,-0.992446784161135
1580417275.35485,-0.080811779964904,0.0158693827725642,-0.988540474555581
1580417275.35884,-0.0769054703593497,0.0168459601739528,-0.994888227664607
1580417275.36283,-0.0813000686655982,0.0173342488746471,-0.994399938963912
1580417275.36683,-0.0832532234683754,0.0158693827725642,-0.98609903105211
1580417275.37082,-0.0798352025635154,0.0163576714732585,-0.991958495460441
1580417275.37482,-0.0778820477607383,0.0158693827725642,-0.993423361562524
1580417275.37881,-0.0778820477607383,0.0178225375753414,-0.989028763256275
1580417275.3828,-0.077393759060044,0.0168459601739528,-0.991958495460441
1580417275.3868,-0.0788586251621268,0.0168459601739528,-0.990493629358358
1580417275.39081,-0.077393759060044,0.0207522697795071,-0.989028763256275
1580417275.3948,-0.0769054703593497,0.0163576714732585,-0.991470206759747
1580417275.3988,-0.0813000686655982,0.0134279392690928,-0.990005340657664
1580417275.40279,-0.0832532234683754,0.0187991149767299,-0.991470206759747
1580417275.40678,-0.080811779964904,0.0168459601739528,-0.990981918059052
1580417275.41078,-0.0788586251621268,0.0173342488746471,-0.985122453650721
1580417275.41477,-0.0769054703593497,0.0168459601739528,-0.98609903105211
1580417275.41877,-0.0803234912642097,0.0197756923781185,-0.988540474555581
1580417275.42276,-0.077393759060044,0.0197756923781185,-0.990981918059052
1580417275.42675,-0.0793469138628211,0.0163576714732585,-0.98951705195697
1580417275.43075,-0.0783703364614325,0.0192874036774242,-0.987563897154192
1580417275.43474,-0.0803234912642097,0.0183108262760356,-0.988540474555581
1580417275.43874,-0.0798352025635154,0.0183108262760356,-0.993423361562524
1580417275.44273,-0.077393759060044,0.0202639810788128,-0.987075608453498
1580417275.44672,-0.0778820477607383,0.0173342488746471,-0.987075608453498
1580417275.45072,-0.080811779964904,0.0163576714732585,-0.987563897154192
1580417275.45471,-0.0788586251621268,0.0178225375753414,-0.990005340657664
1580417275.45871,-0.0788586251621268,0.0148928053711757,-0.990981918059052
1580417275.4627,-0.0798352025635154,0.0144045166704814,-0.991958495460441
1580417275.46669,-0.0793469138628211,0.0168459601739528,-0.992446784161135
1580417275.47067,-0.0793469138628211,0.0183108262760356,-0.991958495460441
1580417275.47467,-0.0778820477607383,0.0153810940718699,-0.98951705195697
1580417275.47866,-0.0778820477607383,0.0168459601739528,-0.993423361562524
1580417275.48265,-0.0793469138628211,0.0158693827725642,-0.990005340657664
1580417275.48665,-0.0778820477607383,0.0158693827725642,-0.990981918059052
1580417275.49064,-0.0744640268558783,0.0187991149767299,-0.991470206759747
1580417275.49464,-0.0793469138628211,0.0163576714732585,-0.990981918059052
1580417275.49863,-0.0778820477607383,0.0173342488746471,-0.98951705195697
1580417275.50262,-0.0788586251621268,0.0144045166704814,-0.994399938963912
1580417275.50662,-0.0798352025635154,0.0217288471808956,-0.992446784161135
1580417275.51061,-0.0783703364614325,0.0187991149767299,-0.991470206759747
1580417275.51461,-0.0788586251621268,0.0173342488746471,-0.988052185854887
1580417275.5186,-0.0788586251621268,0.0183108262760356,-0.994888227664607
1580417275.52259,-0.0788586251621268,0.0178225375753414,-0.98951705195697
1580417275.52659,-0.077393759060044,0.0173342488746471,-0.992446784161135
1580417275.53058,-0.0803234912642097,0.0187991149767299,-0.990981918059052
1580417275.53458,-0.080811779964904,0.0202639810788128,-0.991958495460441
1580417275.53857,-0.0803234912642097,0.0183108262760356,-0.988540474555581
1580417275.54256,-0.0769054703593497,0.0153810940718699,-0.991470206759747
1580417275.54656,-0.0764171816586554,0.0158693827725642,-0.990981918059052
1580417275.55057,-0.0798352025635154,0.0183108262760356,-0.993423361562524
1580417275.55456,-0.0778820477607383,0.0187991149767299,-0.988540474555581
1580417275.55855,-0.0803234912642097,0.0178225375753414,-0.987075608453498
1580417275.56255,-0.077393759060044,0.0202639810788128,-0.990005340657664
1580417275.56654,-0.0813000686655982,0.0148928053711757,-0.991958495460441
1580417275.57054,-0.0803234912642097,0.0148928053711757,-0.993423361562524
1580417275.57453,-0.0817883573662925,0.0163576714732585,-0.990981918059052
1580417275.57852,-0.080811779964904,0.0144045166704814,-0.991958495460441
1580417275.58252,-0.080811779964904,0.0173342488746471,-0.990981918059052
1580417275.58651,-0.0778820477607383,0.0168459601739528,-0.995864805065995
1580417275.59051,-0.080811779964904,0.0148928053711757,-0.99293507286183
1580417275.5945,-0.0793469138628211,0.0197756923781185,-0.98951705195697
1580417275.5985,-0.0813000686655982,0.0178225375753414,-0.994399938963912
1580417275.60249,-0.0798352025635154,0.0173342488746471,-0.993423361562524
1580417275.60648,-0.080811779964904,0.0163576714732585,-0.991470206759747
1580417275.61048,-0.0793469138628211,0.0183108262760356,-0.990005340657664
1580417275.61447,-0.0778820477607383,0.0197756923781185,-0.988052185854887
1580417275.61846,-0.0798352025635154,0.0178225375753414,-0.991470206759747
1580417275.62246,-0.0778820477607383,0.0168459601739528,-0.988540474555581
1580417275.62645,-0.0788586251621268,0.0183108262760356,-0.993911650263218
1580417275.63043,-0.0783703364614325,0.0148928053711757,-0.98951705195697
1580417275.63443,-0.077393759060044,0.0153810940718699,-0.991470206759747
1580417275.63842,-0.0798352025635154,0.0153810940718699,-0.994399938963912
1580417275.64241,-0.0788586251621268,0.0192874036774242,-0.989028763256275
1580417275.64641,-0.0803234912642097,0.0183108262760356,-0.991958495460441
1580417275.6504,-0.0778820477607383,0.0197756923781185,-0.992446784161135
1580417275.6544,-0.080811779964904,0.0178225375753414,-0.99293507286183
1580417275.65839,-0.0798352025635154,0.0173342488746471,-0.987563897154192
1580417275.66238,-0.080811779964904,0.0178225375753414,-0.990005340657664
1580417275.66638,-0.080811779964904,0.0173342488746471,-0.991958495460441
1580417275.67037,-0.0798352025635154,0.0183108262760356,-0.99293507286183
1580417275.67437,-0.0813000686655982,0.0163576714732585,-0.994888227664607
1580417275.67836,-0.0798352025635154,0.0163576714732585,-0.990981918059052
1580417275.68235,-0.0788586251621268,0.0173342488746471,-0.99293507286183
1580417275.68635,-0.0788586251621268,0.0183108262760356,-0.99293507286183
1580417275.69034,-0.0798352025635154,0.0163576714732585,-0.992446784161135
1580417275.69434,-0.0793469138628211,0.0192874036774242,-0.992446784161135
1580417275.69833,-0.0798352025635154,0.0192874036774242,-0.990005340657664
1580417275.70232,-0.0798352025635154,0.0178225375753414,-0.991470206759747
1580417275.70632,-0.0783703364614325,0.0192874036774242,-0.993423361562524
1580417275.71033,-0.0813000686655982,0.0158693827725642,-0.98609903105211
1580417275.71432,-0.0817883573662925,0.0183108262760356,-0.993423361562524
1580417275.71831,-0.0793469138628211,0.0187991149767299,-0.990005340657664
1580417275.72231,-0.0798352025635154,0.0168459601739528,-0.991470206759747
1580417275.7263,-0.0803234912642097,0.0153810940718699,-0.991470206759747
1580417275.7303,-0.0769054703593497,0.0173342488746471,-0.992446784161135
1580417275.73429,-0.077393759060044,0.0173342488746471,-0.995376516365301
1580417275.73828,-0.0778820477607383,0.0192874036774242,-0.991958495460441
1580417275.74228,-0.0793469138628211,0.0168459601739528,-0.994399938963912
1580417275.74627,-0.0788586251621268,0.0187991149767299,-0.990493629358358
1580417275.75027,-0.0803234912642097,0.0163576714732585,-0.988052185854887
1580417275.75426,-0.0798352025635154,0.0178225375753414,-0.990981918059052
1580417275.75826,-0.0793469138628211,0.0192874036774242,-0.99293507286183
1580417275.76225,-0.0788586251621268,0.0202639810788128,-0.98609903105211
1580417275.76624,-0.0803234912642097,0.0168459601739528,-0.995376516365301
1580417275.77024,-0.0788586251621268,0.0168459601739528,-0.995376516365301
1580417275.77423,-0.0778820477607383,0.0187991149767299,-0.99293507286183
1580417275.77822,-0.0783703364614325,0.0173342488746471,-0.991470206759747
1580417275.78222,-0.0793469138628211,0.0163576714732585,-0.987563897154192
1580417275.78621,-0.0778820477607383,0.0192874036774242,-0.987563897154192
1580417275.79019,-0.0764171816586554,0.0148928053711757,-0.991958495460441
1580417275.79418,-0.0798352025635154,0.0163576714732585,-0.991958495460441
1580417275.79818,-0.0813000686655982,0.0183108262760356,-0.993423361562524
1580417275.80217,-0.0769054703593497,0.0192874036774242,-0.992446784161135
1580417275.80617,-0.0783703364614325,0.0178225375753414,-0.988052185854887
1580417275.81016,-0.0803234912642097,0.0183108262760356,-0.993423361562524
1580417275.81415,-0.080811779964904,0.0183108262760356,-0.993911650263218
1580417275.81815,-0.0778820477607383,0.0178225375753414,-0.991470206759747
1580417275.82214,-0.0764171816586554,0.0163576714732585,-0.99293507286183
1580417275.82614,-0.0793469138628211,0.0148928053711757,-0.991470206759747
1580417275.83013,-0.0793469138628211,0.0187991149767299,-0.988540474555581
1580417275.83413,-0.0783703364614325,0.0197756923781185,-0.995376516365301
1580417275.83812,-0.0749523155565726,0.0187991149767299,-0.989028763256275
1580417275.84211,-0.0783703364614325,0.0153810940718699,-0.990005340657664
1580417275.84611,-0.0788586251621268,0.0187991149767299,-0.989028763256275
1580417275.8501,-0.0778820477607383,0.0183108262760356,-0.988540474555581
1580417275.85409,-0.0793469138628211,0.0178225375753414,-0.992446784161135
1580417275.85809,-0.0793469138628211,0.0163576714732585,-0.988052185854887
1580417275.86208,-0.0769054703593497,0.0183108262760356,-0.991958495460441
1580417275.86608,-0.077393759060044,0.0153810940718699,-0.993423361562524
1580417275.87006,-0.0803234912642097,0.0158693827725642,-0.988540474555581
1580417275.87405,-0.0793469138628211,0.0178225375753414,-0.990005340657664
1580417275.87804,-0.0803234912642097,0.0183108262760356,-0.988540474555581
1580417275.88204,-0.080811779964904,0.0148928053711757,-0.98951705195697
1580417275.88603,-0.0793469138628211,0.0197756923781185,-0.989028763256275
1580417275.89003,-0.0769054703593497,0.0212405584802013,-0.988540474555581
1580417275.89402,-0.077393759060044,0.0168459601739528,-0.990493629358358
1580417275.89801,-0.0813000686655982,0.0158693827725642,-0.991958495460441
1580417275.90201,-0.0798352025635154,0.0173342488746471,-0.990005340657664
1580417275.906,-0.0783703364614325,0.0197756923781185,-0.993423361562524
1580417275.91,-0.0778820477607383,0.0202639810788128,-0.992446784161135
1580417275.91399,-0.0813000686655982,0.0183108262760356,-0.99293507286183
1580417275.91798,-0.0803234912642097,0.0183108262760356,-0.990493629358358
1580417275.92198,-0.0778820477607383,0.0158693827725642,-0.993423361562524
1580417275.92597,-0.0764171816586554,0.0217288471808956,-0.993423361562524
1580417275.92997,-0.0778820477607383,0.0197756923781185,-0.993911650263218
1580417275.93396,-0.077393759060044,0.0197756923781185,-0.990493629358358
1580417275.93795,-0.077393759060044,0.0187991149767299,-0.993423361562524
1580417275.94195,-0.0793469138628211,0.0178225375753414,-0.98951705195697
1580417275.94594,-0.0817883573662925,0.0158693827725642,-0.991958495460441
1580417275.94995,-0.0793469138628211,0.0187991149767299,-0.992446784161135
1580417275.95394,-0.0798352025635154,0.0134279392690928,-0.993911650263218
1580417275.95794,-0.0817883573662925,0.0178225375753414,-0.993911650263218
1580417275.96193,-0.0803234912642097,0.0187991149767299,-0.989028763256275
1580417275.96593,-0.0778820477607383,0.0173342488746471,-0.990005340657664
1580417275.96992,-0.0783703364614325,0.0168459601739528,-0.99293507286183
1580417275.97391,-0.0783703364614325,0.0207522697795071,-0.991470206759747
1580417275.97791,-0.0754406042572668,0.0192874036774242,-0.990981918059052
1580417275.9819,-0.0769054703593497,0.0163576714732585,-0.993423361562524
1580417275.9859,-0.0749523155565726,0.0153810940718699,-0.990981918059052
1580417275.98989,-0.077393759060044,0.0148928053711757,-0.993911650263218
1580417275.99389,-0.0778820477607383,0.0168459601739528,-0.992446784161135
1580417275.99788,-0.0769054703593497,0.0192874036774242,-0.990493629358358
1580417276.00187,-0.0822766460669868,0.0153810940718699,-0.991470206759747
1580417276.00587,-0.077393759060044,0.0192874036774242,-0.991958495460441
1580417276.00986,-0.0759288929579611,0.0163576714732585,-0.991470206759747
1580417276.01385,-0.0769054703593497,0.0187991149767299,-0.990981918059052
1580417276.01785,-0.077393759060044,0.0148928053711757,-0.98609903105211
1580417276.02184,-0.0769054703593497,0.0173342488746471,-0.989028763256275
1580417276.02584,-0.0783703364614325,0.0168459601739528,-0.991958495460441
1580417276.02981,-0.0783703364614325,0.0168459601739528,-0.990493629358358
1580417276.03381,-0.0813000686655982,0.0197756923781185,-0.990493629358358
1580417276.0378,-0.0788586251621268,0.0183108262760356,-0.98951705195697
1580417276.0418,-0.077393759060044,0.0202639810788128,-0.991958495460441
1580417276.04579,-0.0769054703593497,0.0168459601739528,-0.991958495460441
1580417276.04978,-0.0778820477607383,0.0168459601739528,-0.989028763256275
1580417276.05378,-0.0788586251621268,0.0148928053711757,-0.989028763256275
1580417276.05777,-0.0803234912642097,0.0173342488746471,-0.991958495460441
1580417276.06177,-0.0822766460669868,0.0202639810788128,-0.990981918059052
1580417276.06576,-0.0788586251621268,0.0178225375753414,-0.993911650263218
1580417276.06975,-0.0769054703593497,0.0173342488746471,-0.993911650263218
1580417276.07375,-0.0788586251621268,0.0183108262760356,-0.995376516365301
1580417276.07774,-0.0783703364614325,0.0187991149767299,-0.987563897154192
1580417276.08174,-0.0793469138628211,0.0173342488746471,-0.987563897154192
1580417276.08573,-0.0817883573662925,0.0178225375753414,-0.993423361562524
1580417276.08973,-0.0798352025635154,0.0183108262760356,-0.99293507286183
1580417276.09372,-0.0783703364614325,0.0158693827725642,-0.995376516365301
1580417276.09771,-0.0793469138628211,0.0183108262760356,-0.987075608453498
1580417276.10171,-0.0788586251621268,0.0187991149767299,-0.988052185854887
1580417276.1057,-0.0798352025635154,0.0153810940718699,-0.991958495460441
1580417276.10971,-0.0813000686655982,0.0163576714732585,-0.990981918059052
1580417276.1137,-0.0813000686655982,0.0187991149767299,-0.994888227664607
1580417276.1177,-0.0803234912642097,0.0183108262760356,-0.994888227664607
1580417276.12169,-0.0793469138628211,0.0178225375753414,-0.990493629358358
1580417276.12569,-0.077393759060044,0.0168459601739528,-0.993423361562524
1580417276.12968,-0.0764171816586554,0.0163576714732585,-0.994399938963912
1580417276.13367,-0.0793469138628211,0.0163576714732585,-0.994888227664607
1580417276.13767,-0.0778820477607383,0.0183108262760356,-0.988540474555581
1580417276.14166,-0.0793469138628211,0.0153810940718699,-0.987563897154192
1580417276.14566,-0.0783703364614325,0.0158693827725642,-0.990493629358358
1580417276.14965,-0.0759288929579611,0.0187991149767299,-0.992446784161135
1580417276.15364,-0.0788586251621268,0.0158693827725642,-0.98951705195697
1580417276.15764,-0.0788586251621268,0.0192874036774242,-0.987075608453498
1580417276.16163,-0.0798352025635154,0.0158693827725642,-0.988052185854887
1580417276.16563,-0.0798352025635154,0.0158693827725642,-0.98951705195697
1580417276.16962,-0.0803234912642097,0.0163576714732585,-0.993423361562524
1580417276.17361,-0.0793469138628211,0.0187991149767299,-0.992446784161135
1580417276.17761,-0.0769054703593497,0.0163576714732585,-0.991958495460441
1580417276.1816,-0.0788586251621268,0.0192874036774242,-0.990493629358358
1580417276.1856,-0.0793469138628211,0.0148928053711757,-0.992446784161135
1580417276.18957,-0.0803234912642097,0.0178225375753414,-0.990493629358358
1580417276.19357,-0.0778820477607383,0.0173342488746471,-0.994888227664607
1580417276.19756,-0.077393759060044,0.0178225375753414,-0.991470206759747
1580417276.20156,-0.0783703364614325,0.0163576714732585,-0.990005340657664
1580417276.20555,-0.0783703364614325,0.0148928053711757,-0.990005340657664
1580417276.20954,-0.080811779964904,0.0158693827725642,-0.990493629358358
1580417276.21354,-0.0769054703593497,0.0183108262760356,-0.988540474555581
1580417276.21753,-0.0793469138628211,0.0168459601739528,-0.98609903105211
1580417276.22153,-0.0798352025635154,0.0139162279697871,-0.989028763256275
1580417276.22552,-0.080811779964904,0.0173342488746471,-0.990493629358358
1580417276.22951,-0.0798352025635154,0.0158693827725642,-0.994888227664607
1580417276.23351,-0.0798352025635154,0.0158693827725642,-0.993911650263218
1580417276.2375,-0.0798352025635154,0.0192874036774242,-0.990493629358358
1580417276.2415,-0.0813000686655982,0.0173342488746471,-0.990005340657664
1580417276.24549,-0.0817883573662925,0.0168459601739528,-0.993423361562524
1580417276.24949,-0.0793469138628211,0.0178225375753414,-0.991958495460441
1580417276.25348,-0.0793469138628211,0.0163576714732585,-0.993423361562524
1580417276.25747,-0.0798352025635154,0.0178225375753414,-0.991958495460441
1580417276.26147,-0.0793469138628211,0.0173342488746471,-0.994888227664607
1580417276.26546,-0.0803234912642097,0.0163576714732585,-0.994888227664607
1580417276.26947,-0.0798352025635154,0.0192874036774242,-0.990981918059052
1580417276.27346,-0.0793469138628211,0.0144045166704814,-0.99293507286183
1580417276.27746,-0.0788586251621268,0.0158693827725642,-0.991470206759747
1580417276.28145,-0.0788586251621268,0.0144045166704814,-0.993423361562524
1580417276.28545,-0.0783703364614325,0.0144045166704814,-0.988052185854887
1580417276.28944,-0.077393759060044,0.0148928053711757,-0.991470206759747
1580417276.29343,-0.0783703364614325,0.0168459601739528,-0.985610742351415
1580417276.29743,-0.077393759060044,0.0153810940718699,-0.993423361562524
1580417276.30142,-0.0759288929579611,0.0139162279697871,-0.993911650263218
1580417276.30542,-0.0783703364614325,0.0192874036774242,-0.994888227664607
1580417276.30941,-0.0803234912642097,0.0173342488746471,-0.99293507286183
1580417276.3134,-0.0803234912642097,0.0153810940718699,-0.98951705195697
1580417276.3174,-0.0769054703593497,0.0139162279697871,-0.993911650263218
1580417276.32139,-0.0788586251621268,0.0163576714732585,-0.988540474555581
1580417276.32539,-0.0769054703593497,0.0158693827725642,-0.991958495460441
1580417276.32938,-0.0783703364614325,0.0158693827725642,-0.98951705195697
1580417276.33337,-0.0798352025635154,0.0144045166704814,-0.990981918059052
1580417276.33737,-0.0788586251621268,0.0168459601739528,-0.988540474555581
1580417276.34136,-0.0788586251621268,0.0178225375753414,-0.990493629358358
1580417276.34536,-0.0798352025635154,0.0178225375753414,-0.985610742351415
1580417276.34933,-0.0813000686655982,0.0192874036774242,-0.98951705195697
1580417276.35333,-0.0788586251621268,0.0173342488746471,-0.987563897154192
1580417276.35732,-0.0764171816586554,0.0183108262760356,-0.989028763256275
1580417276.36132,-0.0793469138628211,0.0202639810788128,-0.990005340657664
1580417276.36531,-0.0793469138628211,0.0158693827725642,-0.991470206759747
1580417276.3693,-0.080811779964904,0.0139162279697871,-0.985610742351415
1580417276.3733,-0.0813000686655982,0.0178225375753414,-0.98951705195697
1580417276.37729,-0.0793469138628211,0.0178225375753414,-0.994888227664607
1580417276.38129,-0.0788586251621268,0.0178225375753414,-0.994399938963912
1580417276.38528,-0.0764171816586554,0.0192874036774242,-0.994399938963912
1580417276.38927,-0.0798352025635154,0.0158693827725642,-0.99293507286183
1580417276.39327,-0.0788586251621268,0.0168459601739528,-0.991470206759747
1580417276.39726,-0.0769054703593497,0.0187991149767299,-0.989028763256275
1580417276.40126,-0.0793469138628211,0.0144045166704814,-0.98951705195697
1580417276.40525,-0.0783703364614325,0.0163576714732585,-0.990981918059052
1580417276.40924,-0.0783703364614325,0.0153810940718699,-0.992446784161135
1580417276.41324,-0.0778820477607383,0.0153810940718699,-0.994888227664607
1580417276.41723,-0.0783703364614325,0.0153810940718699,-0.997329671168078
1580417276.42123,-0.077393759060044,0.0139162279697871,-0.99293507286183
1580417276.42522,-0.0778820477607383,0.0168459601739528,-0.991958495460441
1580417276.42923,-0.0803234912642097,0.0158693827725642,-0.995376516365301
1580417276.43322,-0.0803234912642097,0.0163576714732585,-0.990005340657664
1580417276.43722,-0.0769054703593497,0.0168459601739528,-0.993423361562524
1580417276.44121,-0.0769054703593497,0.0173342488746471,-0.991470206759747
1580417276.4452,-0.0798352025635154,0.0148928053711757,-0.991958495460441
1580417276.4492,-0.0788586251621268,0.0163576714732585,-0.990493629358358
1580417276.45319,-0.0803234912642097,0.0158693827725642,-0.99293507286183
1580417276.45719,-0.0798352025635154,0.0148928053711757,-0.98951705195697
1580417276.46118,-0.0798352025635154,0.0163576714732585,-0.990005340657664
1580417276.46517,-0.0793469138628211,0.0158693827725642,-0.993911650263218
1580417276.46917,-0.0778820477607383,0.0163576714732585,-0.992446784161135
1580417276.47316,-0.0783703364614325,0.0153810940718699,-0.991470206759747
1580417276.47716,-0.0793469138628211,0.0168459601739528,-0.990493629358358
1580417276.48115,-0.0788586251621268,0.0148928053711757,-0.992446784161135
1580417276.48514,-0.077393759060044,0.0153810940718699,-0.992446784161135
1580417276.48914,-0.0783703364614325,0.0163576714732585,-0.993423361562524
1580417276.49313,-0.0822766460669868,0.0178225375753414,-0.993423361562524
1580417276.49713,-0.0788586251621268,0.0158693827725642,-0.991470206759747
1580417276.50112,-0.0803234912642097,0.0183108262760356,-0.989028763256275
1580417276.50512,-0.0778820477607383,0.0124513618677042,-0.993423361562524
1580417276.50909,-0.0788586251621268,0.0144045166704814,-0.994399938963912
1580417276.51309,-0.0788586251621268,0.0144045166704814,-0.993423361562524
1580417276.51708,-0.0803234912642097,0.0153810940718699,-0.990981918059052
1580417276.52108,-0.0788586251621268,0.0144045166704814,-0.987563897154192
1580417276.52507,-0.0803234912642097,0.0148928053711757,-0.993911650263218
1580417276.52906,-0.0798352025635154,0.0158693827725642,-0.99293507286183
1580417276.53306,-0.0798352025635154,0.0168459601739528,-0.995376516365301
1580417276.53705,-0.080811779964904,0.0173342488746471,-0.988052185854887
1580417276.54105,-0.0764171816586554,0.0139162279697871,-0.993423361562524
1580417276.54504,-0.0783703364614325,0.0148928053711757,-0.988052185854887
1580417276.54903,-0.0788586251621268,0.0139162279697871,-0.987563897154192
1580417276.55303,-0.080811779964904,0.0158693827725642,-0.987563897154192
1580417276.55702,-0.080811779964904,0.0158693827725642,-0.991958495460441
1580417276.56102,-0.0798352025635154,0.0153810940718699,-0.988052185854887
1580417276.56501,-0.0827649347676811,0.0148928053711757,-0.991958495460441
1580417276.569,-0.0817883573662925,0.0134279392690928,-0.990005340657664
1580417276.573,-0.0798352025635154,0.0148928053711757,-0.993423361562524
1580417276.57699,-0.0769054703593497,0.0148928053711757,-0.991470206759747
1580417276.58099,-0.0803234912642097,0.0192874036774242,-0.989028763256275
1580417276.58498,-0.080811779964904,0.0163576714732585,-0.988540474555581
1580417276.58899,-0.0798352025635154,0.0158693827725642,-0.993911650263218
1580417276.59298,-0.0842298008697639,0.0168459601739528,-0.990005340657664
1580417276.59698,-0.0822766460669868,0.0158693827725642,-0.99635309376669
1580417276.60097,-0.0803234912642097,0.0139162279697871,-0.991958495460441
1580417276.60496,-0.080811779964904,0.0168459601739528,-0.990493629358358
1580417276.60896,-0.0793469138628211,0.0187991149767299,-0.990981918059052
1580417276.61295,-0.0783703364614325,0.0158693827725642,-0.992446784161135
1580417276.61695,-0.0783703364614325,0.0153810940718699,-0.990981918059052
1580417276.62094,-0.0803234912642097,0.0148928053711757,-0.990005340657664
1580417276.62493,-0.0822766460669868,0.0148928053711757,-0.989028763256275
1580417276.62893,-0.0813000686655982,0.0144045166704814,-0.993423361562524
1580417276.63292,-0.0783703364614325,0.0144045166704814,-0.992446784161135
1580417276.63692,-0.0817883573662925,0.0148928053711757,-0.991958495460441
1580417276.64091,-0.0813000686655982,0.0134279392690928,-0.990493629358358
1580417276.6449,-0.0827649347676811,0.0129396505683985,-0.988052185854887
1580417276.6489,-0.0788586251621268,0.0134279392690928,-0.993423361562524
1580417276.65289,-0.0769054703593497,0.0134279392690928,-0.988052185854887
1580417276.65689,-0.0793469138628211,0.0158693827725642,-0.995376516365301
1580417276.66088,-0.0813000686655982,0.0163576714732585,-0.98951705195697
1580417276.66488,-0.080811779964904,0.0144045166704814,-0.990493629358358
1580417276.66885,-0.0813000686655982,0.0178225375753414,-0.993911650263218
1580417276.67285,-0.0803234912642097,0.0158693827725642,-0.993423361562524
1580417276.67684,-0.0798352025635154,0.0153810940718699,-0.992446784161135
1580417276.68084,-0.0793469138628211,0.0144045166704814,-0.987563897154192
1580417276.68483,-0.0817883573662925,0.0124513618677042,-0.994888227664607
1580417276.68882,-0.0817883573662925,0.0183108262760356,-0.991958495460441
1580417276.69282,-0.0822766460669868,0.0139162279697871,-0.991958495460441
1580417276.69681,-0.0817883573662925,0.0144045166704814,-0.988052185854887
1580417276.7008,-0.080811779964904,0.0158693827725642,-0.987075608453498
1580417276.7048,-0.0793469138628211,0.0124513618677042,-0.991470206759747
1580417276.70879,-0.0803234912642097,0.0173342488746471,-0.996841382467384
1580417276.71279,-0.0817883573662925,0.0153810940718699,-0.991958495460441
1580417276.71678,-0.0813000686655982,0.0148928053711757,-0.991958495460441
1580417276.72077,-0.0788586251621268,0.0153810940718699,-0.98951705195697
1580417276.72477,-0.0822766460669868,0.0168459601739528,-0.991470206759747
1580417276.72876,-0.0803234912642097,0.0148928053711757,-0.990981918059052
1580417276.73276,-0.0803234912642097,0.0168459601739528,-0.99293507286183
1580417276.73675,-0.0793469138628211,0.0129396505683985,-0.994399938963912
1580417276.74074,-0.0822766460669868,0.0153810940718699,-0.992446784161135
1580417276.74474,-0.0798352025635154,0.0134279392690928,-0.98951705195697
1580417276.74875,-0.0798352025635154,0.0148928053711757,-0.987563897154192
1580417276.75274,-0.0803234912642097,0.0139162279697871,-0.990981918059052
1580417276.75674,-0.0803234912642097,0.0163576714732585,-0.98951705195697
1580417276.76073,-0.0788586251621268,0.0163576714732585,-0.994399938963912
1580417276.76472,-0.0793469138628211,0.0139162279697871,-0.991470206759747
1580417276.76872,-0.0778820477607383,0.0134279392690928,-0.988540474555581
1580417276.77271,-0.080811779964904,0.0158693827725642,-0.985610742351415
1580417276.77671,-0.0798352025635154,0.0104982070649271,-0.991470206759747
1580417276.7807,-0.0788586251621268,0.0129396505683985,-0.993911650263218
1580417276.78469,-0.077393759060044,0.0163576714732585,-0.995376516365301
1580417276.78869,-0.0783703364614325,0.0153810940718699,-0.990981918059052
1580417276.79268,-0.0798352025635154,0.0168459601739528,-0.992446784161135
1580417276.79668,-0.0788586251621268,0.0144045166704814,-0.987563897154192
1580417276.80067,-0.0788586251621268,0.0124513618677042,-0.995376516365301
1580417276.80466,-0.080811779964904,0.0153810940718699,-0.989028763256275
1580417276.80866,-0.077393759060044,0.0158693827725642,-0.99293507286183
1580417276.81265,-0.077393759060044,0.0158693827725642,-0.991958495460441
1580417276.81665,-0.0783703364614325,0.0148928053711757,-0.991958495460441
1580417276.82064,-0.0769054703593497,0.0124513618677042,-0.990493629358358
1580417276.82463,-0.077393759060044,0.0134279392690928,-0.99293507286183
1580417276.82861,-0.0783703364614325,0.0153810940718699,-0.99293507286183
1580417276.83261,-0.0788586251621268,0.0173342488746471,-0.990981918059052
1580417276.8366,-0.080811779964904,0.0168459601739528,-0.989028763256275
1580417276.8406,-0.0788586251621268,0.0148928053711757,-0.990005340657664
1580417276.84459,-0.0783703364614325,0.0134279392690928,-0.99293507286183
1580417276.84858,-0.0788586251621268,0.0158693827725642,-0.98951705195697
1580417276.85258,-0.0822766460669868,0.0178225375753414,-0.990493629358358
1580417276.85657,-0.080811779964904,0.0173342488746471,-0.990981918059052
1580417276.86056,-0.0769054703593497,0.0158693827725642,-0.993423361562524
1580417276.86456,-0.0783703364614325,0.0134279392690928,-0.990005340657664
1580417276.86855,-0.0813000686655982,0.0144045166704814,-0.991470206759747
1580417276.87255,-0.0813000686655982,0.0163576714732585,-0.990005340657664
1580417276.87654,-0.0803234912642097,0.0139162279697871,-0.99293507286183
1580417276.88053,-0.0822766460669868,0.0124513618677042,-0.992446784161135
1580417276.88453,-0.0783703364614325,0.0124513618677042,-0.991958495460441
1580417276.88852,-0.0827649347676811,0.0124513618677042,-0.99635309376669
1580417276.89252,-0.0803234912642097,0.0148928053711757,-0.988540474555581
1580417276.89651,-0.0793469138628211,0.0163576714732585,-0.991470206759747
1580417276.9005,-0.0783703364614325,0.0124513618677042,-0.993911650263218
1580417276.9045,-0.0783703364614325,0.0148928053711757,-0.991958495460441
1580417276.90851,-0.0803234912642097,0.0153810940718699,-0.990493629358358
1580417276.9125,-0.0813000686655982,0.0148928053711757,-0.991958495460441
1580417276.9165,-0.080811779964904,0.0153810940718699,-0.990005340657664
1580417276.92049,-0.0813000686655982,0.0114747844663157,-0.994888227664607
1580417276.92448,-0.0783703364614325,0.0153810940718699,-0.986587319752804
1580417276.92848,-0.0788586251621268,0.01196307316701,-0.987075608453498
1580417276.93247,-0.0803234912642097,0.0124513618677042,-0.992446784161135
1580417276.93647,-0.0803234912642097,0.0153810940718699,-0.990493629358358
1580417276.94046,-0.077393759060044,0.01196307316701,-0.992446784161135
1580417276.94445,-0.0798352025635154,0.0144045166704814,-0.98951705195697
1580417276.94845,-0.0822766460669868,0.0124513618677042,-0.99635309376669
1580417276.95244,-0.0837415121690697,0.0148928053711757,-0.990981918059052
1580417276.95644,-0.0788586251621268,0.0144045166704814,-0.990005340657664
1580417276.96043,-0.0769054703593497,0.0124513618677042,-0.995376516365301
1580417276.96442,-0.0793469138628211,0.0139162279697871,-0.990493629358358
1580417276.96842,-0.0803234912642097,0.0144045166704814,-0.993423361562524
1580417276.97241,-0.0788586251621268,0.0144045166704814,-0.989028763256275
1580417276.97641,-0.0822766460669868,0.0129396505683985,-0.992446784161135
1580417276.9804,-0.0803234912642097,0.0183108262760356,-0.988052185854887
1580417276.98439,-0.0793469138628211,0.0153810940718699,-0.990005340657664
1580417276.98837,-0.0803234912642097,0.0148928053711757,-0.990493629358358
1580417276.99237,-0.0793469138628211,0.0134279392690928,-0.994888227664607
1580417276.99636,-0.0798352025635154,0.0158693827725642,-0.992446784161135
1580417277.00035,-0.080811779964904,0.0168459601739528,-0.994399938963912
1580417277.00435,-0.0803234912642097,0.0163576714732585,-0.990493629358358
1580417277.00834,-0.0798352025635154,0.0144045166704814,-0.988540474555581
1580417277.01234,-0.080811779964904,0.0158693827725642,-0.993423361562524
1580417277.01633,-0.0813000686655982,0.0178225375753414,-0.98951705195697
1580417277.02032,-0.0817883573662925,0.0144045166704814,-0.98951705195697
1580417277.02432,-0.0769054703593497,0.0158693827725642,-0.993911650263218
1580417277.02831,-0.0827649347676811,0.0153810940718699,-0.990493629358358
1580417277.03231,-0.0798352025635154,0.0158693827725642,-0.98951705195697
1580417277.0363,-0.077393759060044,0.0187991149767299,-0.988540474555581
1580417277.04029,-0.0778820477607383,0.0148928053711757,-0.98951705195697
1580417277.04429,-0.0778820477607383,0.0153810940718699,-0.987563897154192
1580417277.04828,-0.0783703364614325,0.0153810940718699,-0.989028763256275
1580417277.05228,-0.0783703364614325,0.0148928053711757,-0.990005340657664
1580417277.05627,-0.0803234912642097,0.0139162279697871,-0.99293507286183
1580417277.06026,-0.0778820477607383,0.0158693827725642,-0.987075608453498
1580417277.06426,-0.0783703364614325,0.0173342488746471,-0.990981918059052
1580417277.06827,-0.077393759060044,0.0168459601739528,-0.99293507286183
1580417277.07226,-0.0798352025635154,0.0144045166704814,-0.989028763256275
1580417277.07625,-0.0803234912642097,0.0178225375753414,-0.991958495460441
1580417277.08025,-0.0793469138628211,0.0148928053711757,-0.991470206759747
1580417277.08424,-0.0817883573662925,0.0153810940718699,-0.99293507286183
1580417277.08824,-0.0788586251621268,0.0148928053711757,-0.99293507286183
1580417277.09223,-0.0793469138628211,0.0158693827725642,-0.995864805065995
1580417277.09623,-0.0793469138628211,0.0178225375753414,-0.991958495460441
1580417277.10022,-0.0793469138628211,0.0183108262760356,-0.994399938963912
1580417277.10421,-0.0783703364614325,0.0173342488746471,-0.991958495460441
1580417277.10821,-0.0817883573662925,0.0144045166704814,-0.988540474555581
1580417277.1122,-0.077393759060044,0.0139162279697871,-0.993911650263218
1580417277.11619,-0.0822766460669868,0.0139162279697871,-0.990005340657664
1580417277.12019,-0.0813000686655982,0.0163576714732585,-0.990493629358358
1580417277.12418,-0.0764171816586554,0.0148928053711757,-0.995376516365301
1580417277.12818,-0.0798352025635154,0.0153810940718699,-0.990493629358358
1580417277.13217,-0.0793469138628211,0.0178225375753414,-0.994399938963912
1580417277.13616,-0.0788586251621268,0.0148928053711757,-0.995376516365301
1580417277.14016,-0.0778820477607383,0.0144045166704814,-0.99293507286183
1580417277.14415,-0.0783703364614325,0.0148928053711757,-0.989028763256275
1580417277.14816,-0.0798352025635154,0.0163576714732585,-0.993423361562524
1580417277.15216,-0.0803234912642097,0.0129396505683985,-0.994888227664607
1580417277.15615,-0.0798352025635154,0.0153810940718699,-0.991958495460441
1580417277.16014,-0.0803234912642097,0.0144045166704814,-0.990005340657664
1580417277.16414,-0.0783703364614325,0.0158693827725642,-0.991470206759747
1580417277.16813,-0.0783703364614325,0.0153810940718699,-0.988052185854887
1580417277.17213,-0.0783703364614325,0.0148928053711757,-0.988052185854887
1580417277.17612,-0.077393759060044,0.0148928053711757,-0.989028763256275
1580417277.18011,-0.0788586251621268,0.0187991149767299,-0.988540474555581
1580417277.18411,-0.0803234912642097,0.0163576714732585,-0.988540474555581
1580417277.1881,-0.0803234912642097,0.0139162279697871,-0.988540474555581
1580417277.1921,-0.0783703364614325,0.0153810940718699,-0.98951705195697
1580417277.19609,-0.0764171816586554,0.0139162279697871,-0.991958495460441
1580417277.20008,-0.0788586251621268,0.0153810940718699,-0.990981918059052
1580417277.20408,-0.0793469138628211,0.0163576714732585,-0.990493629358358
1580417277.20807,-0.0813000686655982,0.0148928053711757,-0.993423361562524
1580417277.21207,-0.0798352025635154,0.0168459601739528,-0.988052185854887
1580417277.21606,-0.0798352025635154,0.0134279392690928,-0.990493629358358
1580417277.22005,-0.0798352025635154,0.0158693827725642,-0.99293507286183
1580417277.22405,-0.0813000686655982,0.0139162279697871,-0.993423361562524
1580417277.22803,-0.0783703364614325,0.0148928053711757,-0.991958495460441
1580417277.23202,-0.0788586251621268,0.0139162279697871,-0.992446784161135
1580417277.23601,-0.0798352025635154,0.0163576714732585,-0.991470206759747
1580417277.24001,-0.0783703364614325,0.0139162279697871,-0.990005340657664
1580417277.244,-0.080811779964904,0.0144045166704814,-0.991470206759747
1580417277.248,-0.0813000686655982,0.0158693827725642,-0.996841382467384
1580417277.25199,-0.0798352025635154,0.0139162279697871,-0.991470206759747
1580417277.25599,-0.0813000686655982,0.0153810940718699,-0.991958495460441
1580417277.25998,-0.0798352025635154,0.0148928053711757,-0.992446784161135
1580417277.26397,-0.0778820477607383,0.0158693827725642,-0.990493629358358
1580417277.26797,-0.0803234912642097,0.0158693827725642,-0.988052185854887
1580417277.27196,-0.0788586251621268,0.0153810940718699,-0.991958495460441
1580417277.27595,-0.080811779964904,0.0163576714732585,-0.990005340657664
1580417277.27995,-0.0798352025635154,0.0163576714732585,-0.991470206759747
1580417277.28394,-0.0783703364614325,0.0129396505683985,-0.98951705195697
1580417277.28794,-0.0788586251621268,0.0148928053711757,-0.988052185854887
1580417277.29193,-0.080811779964904,0.0153810940718699,-0.989028763256275
1580417277.29592,-0.080811779964904,0.0144045166704814,-0.99293507286183
1580417277.29992,-0.0798352025635154,0.0158693827725642,-0.994888227664607
1580417277.30391,-0.0798352025635154,0.0134279392690928,-0.995376516365301
1580417277.30792,-0.0813000686655982,0.0139162279697871,-0.991958495460441
1580417277.31192,-0.0803234912642097,0.0124513618677042,-0.993911650263218
1580417277.31591,-0.0817883573662925,0.0148928053711757,-0.989028763256275
1580417277.3199,-0.0788586251621268,0.0129396505683985,-0.994888227664607
1580417277.3239,-0.0783703364614325,0.0173342488746471,-0.986587319752804
1580417277.32789,-0.0778820477607383,0.0153810940718699,-0.990493629358358
1580417277.33189,-0.0793469138628211,0.0139162279697871,-0.990981918059052
1580417277.33588,-0.080811779964904,0.0173342488746471,-0.992446784161135
1580417277.33987,-0.0793469138628211,0.0139162279697871,-0.991470206759747
1580417277.34387,-0.0778820477607383,0.0144045166704814,-0.988052185854887
1580417277.34786,-0.080811779964904,0.0144045166704814,-0.990493629358358
1580417277.35186,-0.0788586251621268,0.0129396505683985,-0.988540474555581
1580417277.35585,-0.0803234912642097,0.0129396505683985,-0.992446784161135
1580417277.35984,-0.0803234912642097,0.0134279392690928,-0.994888227664607
1580417277.36384,-0.0783703364614325,0.0168459601739528,-0.991958495460441
1580417277.36783,-0.0778820477607383,0.0163576714732585,-0.988540474555581
1580417277.37183,-0.0788586251621268,0.0153810940718699,-0.988540474555581
1580417277.37582,-0.0788586251621268,0.0173342488746471,-0.991958495460441
1580417277.37981,-0.0793469138628211,0.0139162279697871,-0.988052185854887
1580417277.38381,-0.0793469138628211,0.0139162279697871,-0.990493629358358
1580417277.38779,-0.077393759060044,0.0153810940718699,-0.991470206759747
1580417277.39178,-0.0803234912642097,0.0153810940718699,-0.991958495460441
1580417277.39577,-0.0803234912642097,0.0158693827725642,-0.991470206759747
1580417277.39977,-0.080811779964904,0.0158693827725642,-0.988540474555581
1580417277.40376,-0.0817883573662925,0.0163576714732585,-0.990981918059052
1580417277.40776,-0.0793469138628211,0.0129396505683985,-0.990005340657664
1580417277.41175,-0.0842298008697639,0.0163576714732585,-0.993911650263218
1580417277.41574,-0.0813000686655982,0.0139162279697871,-0.99293507286183
1580417277.41974,-0.0798352025635154,0.0178225375753414,-0.991470206759747
1580417277.42373,-0.080811779964904,0.0158693827725642,-0.995376516365301
1580417277.42773,-0.0822766460669868,0.0144045166704814,-0.993423361562524
1580417277.43172,-0.0793469138628211,0.0173342488746471,-0.990493629358358
1580417277.43571,-0.0798352025635154,0.0158693827725642,-0.994399938963912
1580417277.43971,-0.0788586251621268,0.0139162279697871,-0.991958495460441
1580417277.4437,-0.0764171816586554,0.0139162279697871,-0.98951705195697
1580417277.4477,-0.0798352025635154,0.0144045166704814,-0.993911650263218
1580417277.45169,-0.0783703364614325,0.0134279392690928,-0.991470206759747
1580417277.45568,-0.0813000686655982,0.0144045166704814,-0.991958495460441
1580417277.45968,-0.0803234912642097,0.0148928053711757,-0.990005340657664
1580417277.46367,-0.080811779964904,0.0158693827725642,-0.990981918059052
1580417277.46768,-0.077393759060044,0.0163576714732585,-0.990005340657664
1580417277.47167,-0.0778820477607383,0.0163576714732585,-0.990005340657664
1580417277.47567,-0.0822766460669868,0.0173342488746471,-0.991958495460441
1580417277.47966,-0.080811779964904,0.0153810940718699,-0.991470206759747
1580417277.48366,-0.0803234912642097,0.0129396505683985,-0.995864805065995
1580417277.48765,-0.0769054703593497,0.0158693827725642,-0.992446784161135
1580417277.49164,-0.0783703364614325,0.0158693827725642,-0.994399938963912
1580417277.49564,-0.0778820477607383,0.0153810940718699,-0.995376516365301
1580417277.49963,-0.0764171816586554,0.0148928053711757,-0.994399938963912
1580417277.50363,-0.0793469138628211,0.0163576714732585,-0.992446784161135
1580417277.50762,-0.0778820477607383,0.0158693827725642,-0.991470206759747
1580417277.51162,-0.0798352025635154,0.0158693827725642,-0.993911650263218
1580417277.51561,-0.0817883573662925,0.0168459601739528,-0.994888227664607
1580417277.5196,-0.077393759060044,0.0163576714732585,-0.990493629358358
1580417277.5236,-0.0788586251621268,0.0173342488746471,-0.990981918059052
1580417277.52759,-0.0793469138628211,0.0158693827725642,-0.994399938963912
1580417277.53158,-0.0788586251621268,0.0153810940718699,-0.98951705195697
1580417277.53558,-0.0793469138628211,0.0153810940718699,-0.990493629358358
1580417277.53957,-0.077393759060044,0.0153810940718699,-0.993911650263218
1580417277.54357,-0.077393759060044,0.0144045166704814,-0.993423361562524
1580417277.54755,-0.0778820477607383,0.0183108262760356,-0.98951705195697
1580417277.55154,-0.0813000686655982,0.0178225375753414,-0.99293507286183
1580417277.55553,-0.0798352025635154,0.0168459601739528,-0.993423361562524
1580417277.55953,-0.0778820477607383,0.0163576714732585,-0.988052185854887
1580417277.56352,-0.0803234912642097,0.0163576714732585,-0.991470206759747
1580417277.56752,-0.0803234912642097,0.0173342488746471,-0.987075608453498
1580417277.57151,-0.077393759060044,0.0163576714732585,-0.98951705195697
1580417277.5755,-0.0783703364614325,0.0173342488746471,-0.98951705195697
1580417277.5795,-0.077393759060044,0.0163576714732585,-0.988540474555581
1580417277.58349,-0.0803234912642097,0.0158693827725642,-0.991470206759747
1580417277.58749,-0.077393759060044,0.0139162279697871,-0.988540474555581
1580417277.59148,-0.0798352025635154,0.0168459601739528,-0.988540474555581
1580417277.59547,-0.0783703364614325,0.0173342488746471,-0.992446784161135
1580417277.59947,-0.0813000686655982,0.0153810940718699,-0.997817959868772
1580417277.60346,-0.0788586251621268,0.0183108262760356,-0.99293507286183
1580417277.60746,-0.0813000686655982,0.0158693827725642,-0.994888227664607
1580417277.61145,-0.0813000686655982,0.0168459601739528,-0.991470206759747
1580417277.61544,-0.0788586251621268,0.0163576714732585,-0.988052185854887
1580417277.61944,-0.080811779964904,0.0163576714732585,-0.987075608453498
1580417277.62343,-0.0783703364614325,0.0148928053711757,-0.990981918059052
1580417277.62744,-0.0798352025635154,0.0173342488746471,-0.989028763256275
1580417277.63143,-0.0788586251621268,0.0173342488746471,-0.993423361562524
1580417277.63543,-0.0793469138628211,0.0178225375753414,-0.99293507286183
1580417277.63942,-0.0783703364614325,0.0148928053711757,-0.987075608453498
1580417277.64342,-0.0803234912642097,0.0187991149767299,-0.987563897154192
1580417277.64741,-0.080811779964904,0.0158693827725642,-0.987075608453498
1580417277.6514,-0.077393759060044,0.0158693827725642,-0.986587319752804
1580417277.6554,-0.077393759060044,0.0148928053711757,-0.990005340657664
1580417277.65939,-0.0793469138628211,0.0168459601739528,-0.991958495460441
1580417277.66339,-0.0798352025635154,0.0163576714732585,-0.993911650263218
1580417277.66738,-0.0798352025635154,0.0158693827725642,-0.987075608453498
1580417277.67138,-0.0798352025635154,0.0153810940718699,-0.990981918059052
1580417277.67537,-0.0798352025635154,0.0163576714732585,-0.994888227664607
1580417277.67936,-0.0798352025635154,0.0173342488746471,-0.995376516365301
1580417277.68336,-0.0788586251621268,0.0168459601739528,-0.991958495460441
1580417277.68735,-0.0749523155565726,0.0153810940718699,-0.991958495460441
1580417277.69134,-0.0754406042572668,0.0168459601739528,-0.990981918059052
1580417277.69534,-0.0788586251621268,0.0178225375753414,-0.990005340657664
1580417277.69933,-0.077393759060044,0.0158693827725642,-0.986587319752804
1580417277.70333,-0.077393759060044,0.0148928053711757,-0.990005340657664
1580417277.70731,-0.0744640268558783,0.0187991149767299,-0.992446784161135
1580417277.7113,-0.080811779964904,0.0173342488746471,-0.995864805065995
1580417277.71529,-0.0793469138628211,0.0158693827725642,-0.988052185854887
1580417277.71929,-0.0759288929579611,0.0148928053711757,-0.992446784161135
1580417277.72328,-0.0788586251621268,0.0134279392690928,-0.995376516365301
1580417277.72727,-0.0793469138628211,0.0183108262760356,-0.993911650263218
1580417277.73127,-0.0778820477607383,0.0158693827725642,-0.988052185854887
1580417277.73526,-0.0759288929579611,0.0148928053711757,-0.988540474555581
1580417277.73926,-0.0783703364614325,0.0168459601739528,-0.991470206759747
1580417277.74325,-0.0778820477607383,0.0173342488746471,-0.995864805065995
1580417277.74724,-0.077393759060044,0.0158693827725642,-0.994399938963912
1580417277.75124,-0.0793469138628211,0.0173342488746471,-0.993423361562524
1580417277.75523,-0.0769054703593497,0.0187991149767299,-0.99293507286183
1580417277.75923,-0.0783703364614325,0.0163576714732585,-0.990005340657664
1580417277.76322,-0.0759288929579611,0.0144045166704814,-0.990981918059052
1580417277.76722,-0.0788586251621268,0.0158693827725642,-0.990493629358358
1580417277.77121,-0.0769054703593497,0.0163576714732585,-0.985122453650721
1580417277.7752,-0.0764171816586554,0.0178225375753414,-0.987075608453498
1580417277.7792,-0.0769054703593497,0.0148928053711757,-0.988540474555581
1580417277.78319,-0.0759288929579611,0.0183108262760356,-0.993423361562524
1580417277.7872,-0.0764171816586554,0.0158693827725642,-0.991470206759747
1580417277.79119,-0.077393759060044,0.0187991149767299,-0.986587319752804
1580417277.79519,-0.077393759060044,0.0183108262760356,-0.986587319752804
1580417277.79918,-0.0749523155565726,0.0168459601739528,-0.983657587548638
1580417277.80318,-0.077393759060044,0.0163576714732585,-0.985122453650721
1580417277.80717,-0.0749523155565726,0.0153810940718699,-0.987075608453498
1580417277.81116,-0.0769054703593497,0.0183108262760356,-0.987075608453498
1580417277.81516,-0.0798352025635154,0.0158693827725642,-0.991470206759747
1580417277.81915,-0.0803234912642097,0.0163576714732585,-0.993911650263218
1580417277.82315,-0.0759288929579611,0.0178225375753414,-0.994399938963912
1580417277.82714,-0.0759288929579611,0.0153810940718699,-0.990005340657664
1580417277.83113,-0.077393759060044,0.0178225375753414,-0.991958495460441
1580417277.83513,-0.0749523155565726,0.0163576714732585,-0.99293507286183
1580417277.83912,-0.0764171816586554,0.0168459601739528,-0.994888227664607
1580417277.84312,-0.0754406042572668,0.0178225375753414,-0.99635309376669
1580417277.84711,-0.073975738155184,0.0187991149767299,-0.994399938963912
1580417277.8511,-0.0734874494544897,0.0187991149767299,-0.991470206759747
1580417277.8551,-0.0749523155565726,0.0153810940718699,-0.990981918059052
1580417277.85909,-0.0754406042572668,0.0173342488746471,-0.99293507286183
1580417277.86309,-0.0769054703593497,0.0148928053711757,-0.99293507286183
1580417277.86706,-0.0759288929579611,0.0158693827725642,-0.989028763256275
1580417277.87106,-0.0778820477607383,0.0148928053711757,-0.99635309376669
1580417277.87505,-0.0754406042572668,0.0192874036774242,-0.999282825970855
1580417277.87905,-0.0729991607537954,0.0187991149767299,-0.994399938963912
1580417277.88304,-0.073975738155184,0.0148928053711757,-0.99977111467155
1580417277.88703,-0.0725108720531011,0.0178225375753414,-0.998306248569467
1580417277.89103,-0.0759288929579611,0.0173342488746471,-0.99635309376669
1580417277.89502,-0.0749523155565726,0.0178225375753414,-0.992446784161135
1580417277.89902,-0.0720225833524069,0.0183108262760356,-0.993911650263218
1580417277.90301,-0.0764171816586554,0.0207522697795071,-0.991958495460441
1580417277.907,-0.0749523155565726,0.0148928053711757,-0.990005340657664
1580417277.911,-0.0759288929579611,0.0192874036774242,-0.98609903105211
1580417277.91499,-0.0725108720531011,0.0153810940718699,-0.983657587548638
1580417277.91899,-0.073975738155184,0.0178225375753414,-0.98951705195697
1580417277.92298,-0.0764171816586554,0.0134279392690928,-0.987075608453498
1580417277.92698,-0.0749523155565726,0.0158693827725642,-0.988540474555581
1580417277.93097,-0.0764171816586554,0.0124513618677042,-0.988052185854887
1580417277.93496,-0.0749523155565726,0.0144045166704814,-0.991958495460441
1580417277.93896,-0.0700694285496297,0.0148928053711757,-0.990981918059052
1580417277.94295,-0.0725108720531011,0.0212405584802013,-0.988052185854887
1580417277.94696,-0.0783703364614325,0.0202639810788128,-0.985122453650721
1580417277.95095,-0.0744640268558783,0.0173342488746471,-0.987075608453498
1580417277.95495,-0.0749523155565726,0.0202639810788128,-0.988052185854887
1580417277.95894,-0.0764171816586554,0.0173342488746471,-0.98951705195697
1580417277.96294,-0.0769054703593497,0.0163576714732585,-0.989028763256275
1580417277.96693,-0.0754406042572668,0.0163576714732585,-0.98951705195697
1580417277.97092,-0.0778820477607383,0.0187991149767299,-0.988052185854887
1580417277.97492,-0.0759288929579611,0.0173342488746471,-0.988540474555581
1580417277.97891,-0.0764171816586554,0.0168459601739528,-0.989028763256275
1580417277.98291,-0.0759288929579611,0.0153810940718699,-0.988540474555581
1580417277.9869,-0.0759288929579611,0.0168459601739528,-0.987563897154192
1580417277.99089,-0.077393759060044,0.0173342488746471,-0.987075608453498
1580417277.99489,-0.077393759060044,0.0139162279697871,-0.989028763256275
1580417277.99888,-0.0744640268558783,0.0153810940718699,-0.990981918059052
1580417278.00288,-0.0769054703593497,0.0163576714732585,-0.987075608453498
1580417278.00687,-0.0725108720531011,0.0178225375753414,-0.994888227664607
1580417278.01086,-0.0734874494544897,0.0168459601739528,-0.99635309376669
1580417278.01486,-0.0734874494544897,0.0168459601739528,-0.994399938963912
1580417278.01885,-0.0764171816586554,0.0183108262760356,-0.995376516365301
1580417278.02285,-0.0788586251621268,0.0178225375753414,-0.994888227664607
1580417278.02682,-0.0720225833524069,0.0158693827725642,-0.99293507286183
1580417278.03082,-0.0788586251621268,0.0173342488746471,-0.992446784161135
1580417278.03481,-0.080811779964904,0.0173342488746471,-0.991958495460441
1580417278.03881,-0.0754406042572668,0.0173342488746471,-0.994888227664607
1580417278.0428,-0.0720225833524069,0.0178225375753414,-0.993911650263218
1580417278.04679,-0.0700694285496297,0.0173342488746471,-0.997329671168078
1580417278.05079,-0.073975738155184,0.0173342488746471,-0.995864805065995
1580417278.05478,-0.0710460059510183,0.0144045166704814,-0.993911650263218
1580417278.05878,-0.0725108720531011,0.0158693827725642,-0.997329671168078
1580417278.06277,-0.0754406042572668,0.0158693827725642,-0.995864805065995
1580417278.06676,-0.073975738155184,0.0148928053711757,-0.984634164950027
1580417278.07076,-0.0725108720531011,0.0168459601739528,-0.991470206759747
1580417278.07475,-0.073975738155184,0.0178225375753414,-0.990981918059052
1580417278.07875,-0.0710460059510183,0.0168459601739528,-0.993911650263218
1580417278.08274,-0.073975738155184,0.0144045166704814,-0.994399938963912
1580417278.08673,-0.0725108720531011,0.0148928053711757,-0.990005340657664
1580417278.09073,-0.0793469138628211,0.0144045166704814,-0.987563897154192
1580417278.09472,-0.0593270771343555,0.0256351567864499,-0.990493629358358
1580417278.09872,-0.0827649347676811,0.0246585793850613,-0.985122453650721
1580417278.10271,-0.070557717250324,0.0114747844663157,-0.970962081330587
1580417278.10672,-0.0798352025635154,0.0114747844663157,-0.983657587548638
1580417278.11071,-0.0744640268558783,0.0148928053711757,-1.01002517738613
1580417278.11471,-0.0729991607537954,0.01196307316701,-1.00221255817502
1580417278.1187,-0.0681162737468526,0.0129396505683985,-0.97242694743267
1580417278.1227,-0.0715342946517126,0.0109864957656214,-0.980727855344472
1580417278.12669,-0.077393759060044,0.0168459601739528,-0.991470206759747
1580417278.13068,-0.0754406042572668,0.0144045166704814,-0.993911650263218
1580417278.13468,-0.077393759060044,0.0158693827725642,-0.990005340657664
1580417278.13867,-0.0759288929579611,0.0158693827725642,-0.995864805065995
1580417278.14266,-0.0729991607537954,0.0168459601739528,-0.995376516365301
1580417278.14666,-0.0681162737468526,0.0158693827725642,-0.997817959868772
1580417278.15065,-0.0778820477607383,0.0168459601739528,-0.998794537270161
1580417278.15465,-0.0749523155565726,0.0158693827725642,-0.995864805065995
1580417278.15864,-0.0798352025635154,0.0178225375753414,-0.991958495460441
1580417278.16263,-0.0710460059510183,0.0183108262760356,-0.984145876249332
1580417278.16663,-0.0759288929579611,0.0173342488746471,-0.991470206759747
1580417278.17062,-0.0734874494544897,0.0178225375753414,-0.991470206759747
1580417278.17462,-0.0725108720531011,0.0173342488746471,-0.991958495460441
1580417278.17861,-0.073975738155184,0.0192874036774242,-0.992446784161135
1580417278.18261,-0.0886243991760125,0.00366216525520713,-0.978286411841001
1580417278.18658,-0.0700694285496297,0.0139162279697871,-0.987075608453498
1580417278.19058,-0.0876478217746239,0.0114747844663157,-1.00563057907988
1580417278.19457,-0.0793469138628211,0.01196307316701,-0.999282825970855
1580417278.19857,-0.0720225833524069,0.0139162279697871,-0.981216144045167
1580417278.20256,-0.0700694285496297,0.0153810940718699,-0.976821545738918
1580417278.20655,-0.0744640268558783,0.0173342488746471,-0.994888227664607
1580417278.21055,-0.0769054703593497,0.01196307316701,-0.985122453650721
1580417278.21454,-0.0769054703593497,0.0163576714732585,-0.994399938963912
1580417278.21854,-0.0695811398489354,0.0183108262760356,-0.989028763256275
1580417278.22253,-0.0710460059510183,0.0183108262760356,-0.987563897154192
1580417278.22652,-0.0744640268558783,0.0173342488746471,-1.00123598077363
1580417278.23052,-0.067139696345464,0.0178225375753414,-0.998306248569467
1580417278.23451,-0.0710460059510183,0.0158693827725642,-0.991470206759747
1580417278.23851,-0.0925307087815668,0.0207522697795071,-1.00074769207294
1580417278.2425,-0.0666514076447697,0.0192874036774242,-0.991470206759747
1580417278.24649,-0.0822766460669868,0.0129396505683985,-0.987563897154192
1580417278.25049,-0.0432135500114441,0.0334477759975584,-1.01588464179446
1580417278.25448,-0.113527122911421,0.00659189745937283,-0.977309834439613
1580417278.25848,-0.0754406042572668,-0.00317387655451284,-0.990493629358358
1580417278.26247,-0.0847180895704582,0.0187991149767299,-1.02272068360418
1580417278.26648,-0.0749523155565726,0.00659189745937283,-1.00074769207294
1580417278.27047,-0.0700694285496297,0.0202639810788128,-1.00856031128405
1580417278.27447,-0.060303654535744,0.0300297550926985,-0.981704432745861
1580417278.27846,-0.0837415121690697,0.00219729915312428,-0.991470206759747
1580417278.28245,-0.0676279850461583,0.0192874036774242,-0.998306248569467
1580417278.28645,-0.0793469138628211,0.0197756923781185,-0.981216144045167
1580417278.29044,-0.0520027466239412,0.0324711985961699,-0.990493629358358
1580417278.29444,-0.0930189974822611,-0.00659189745937283,-1.01149004348821
1580417278.29843,-0.0876478217746239,0.0334477759975584,-0.992446784161135
1580417278.30242,-0.0554207675288012,-0.00415045395590141,-0.925551232166018
1580417278.30642,-0.0754406042572668,0.0178225375753414,-1.01051346608682
1580417278.31041,-0.0568856336308841,0.0100099183642328,-1.00074769207294
1580417278.31441,-0.041260395208667,0.0349126420996413,-1.00611886778058
1580417278.3184,-0.0539559014267184,0.0402838178072784,-0.99635309376669
1580417278.32239,-0.0607919432364383,0.0324711985961699,-0.980727855344472
1580417278.32639,-0.0764171816586554,0.027588311589227,-0.966567483024338
1580417278.33038,-0.0842298008697639,0.0212405584802013,-0.937270160982681
1580417278.33438,-0.0700694285496297,0.0222171358815899,-1.0207675288014
1580417278.33837,-0.0910658426794839,0.0222171358815899,-0.996841382467384
1580417278.34237,-0.0891126878767068,0.0231937132829785,-0.952895399404898
1580417278.34634,-0.0568856336308841,0.0109864957656214,-0.985122453650721
1580417278.35034,-0.0417486839093613,0.0383306630045013,-1.00807202258335
1580417278.35433,-0.0939955748836496,0.00805676356145568,-1.00904859998474
1580417278.35833,-0.0769054703593497,0.0280766002899213,-1.01930266269932
1580417278.36232,-0.0266117341878385,0.0515144579232469,-1.04127565423056
1580417278.36631,-0.0573739223315783,0.0495613031204698,-0.985122453650721
1580417278.37031,-0.0319829098954756,0.0432135500114441,-0.980727855344472
1580417278.3743,-0.163820859082932,-0.0393072404058898,-0.997329671168078
1580417278.3783,-0.127199206530861,-0.0295414663920042,-0.990493629358358
1580417278.38229,-0.048096437018387,-0.0227054245822842,-0.97584496833753
1580417278.38628,-0.0207522697795071,0.0666514076447697,-0.960219729915313
1580417278.39028,-0.11792172121767,0.01196307316701,-0.967544060425727
1580417278.39427,-0.11792172121767,0.0314946211947813,-0.994399938963912
1580417278.39826,-0.145754177157244,-0.0578622110322726,-0.98609903105211
1580417278.40226,-0.0432135500114441,0.0544441901274126,-0.98951705195697
1580417278.40625,-0.206301976043335,-0.0500495918211641,-1.00563057907988
1580417278.41025,-0.0524910353246355,0.0578622110322726,-0.956313420309758
1580417278.41424,-0.0612802319371326,0.0793469138628211,-1.0295567254139
1580417278.41823,-0.0681162737468526,0.0461432822156098,-0.990005340657664
1580417278.42223,-0.179934386205844,-0.000244144350347142,-0.96217288471809
1580417278.42624,-0.0939955748836496,-0.034424353398947,-0.985122453650721
1580417278.43023,-0.172121766994735,-0.00219729915312428,-1.02467383840696
1580417278.43423,0.0222171358815899,0.0505378805218584,-0.957289997711147
1580417278.43822,-0.12133974212253,-0.0285648889906156,-1.01539635309377
1580417278.44221,-0.0681162737468526,0.0368657969024184,-0.950942244602121
1580417278.44621,0.0290531776913099,0.0461432822156098,-1.00611886778058
1580417278.4502,-0.169680323491264,-0.0271000228885327,-0.960708018616007
1580417278.4542,-0.131593804837109,0.0764171816586554,-0.990493629358358
1580417278.45819,0.00805676356145568,0.0666514076447697,-1.02565041580835
1580417278.46218,0.0236820019836728,0.0134279392690928,-1.00709544518196
1580417278.46618,-0.0192874036774242,0.024170290684367,-0.940199893186847
1580417278.47017,-0.0476081483176927,0.063721675440604,-0.949477378500038
1580417278.47417,-0.0803234912642097,0.0363775082017241,-1.0124666208896
1580417278.47816,-0.0788586251621268,0.0168459601739528,-1.03053330281529
1580417278.48215,-0.0935072861829553,0.0178225375753414,-0.971450370031281
1580417278.48615,-0.108155947203784,-0.0754406042572668,-0.98609903105211
1580417278.49014,-0.132570382238498,0.0129396505683985,-0.981216144045167
1580417278.49414,-0.0856946669718468,-0.0217288471808956,-0.939711604486153
1580417278.49813,-0.102296482795452,0.0642099641412983,-1.06031891355764
1580417278.50212,-0.0168459601739528,0.0910658426794839,-1.00074769207294
1580417278.5061,-0.0192874036774242,0.0114747844663157,-1.0036774242771
1580417278.5101,-0.0720225833524069,0.0427252613107498,-0.992446784161135
1580417278.51409,-0.0524910353246355,0.0329594872968642,-1.01734950789654
1580417278.51809,-0.146730754558632,-0.0349126420996413,-0.993911650263218
1580417278.52208,-0.0563973449301898,-0.166750591287098,-1.08180361638819
1580417278.52607,-0.00952162966353853,-0.0354009308003356,-0.878675516899367
1580417278.53007,-0.0632333867399097,0.230716411078049,-0.949965667200733
1580417278.53406,-0.0544441901274126,0.0529793240253298,-1.03541618982223
1580417278.53805,-0.0490730144197755,0.0285648889906156,-1.00758373388266
1580417278.54205,-0.0612802319371326,0.0349126420996413,-0.983169298847944
1580417278.54604,-0.00561532005798426,0.0471198596169984,-0.987563897154192
1580417278.55004,-0.186770428015564,0.0100099183642328,-1.02858014801251
1580417278.55403,-0.041260395208667,0.0676279850461583,-0.941176470588236
1580417278.55802,-0.0539559014267184,0.0437018387121384,-0.981216144045167
1580417278.56202,-0.0520027466239412,0.0217288471808956,-1.05641260395209
1580417278.56601,-0.152101930266269,-0.0217288471808956,-1.02467383840696
1580417278.57001,-0.0490730144197755,0.0158693827725642,-1.00318913557641
1580417278.574,-0.00952162966353853,0.0856946669718468,-0.96217288471809
1580417278.57799,-0.281986724650951,-1.40016784924086,-0.771740291447319
1580417278.58199,-0.0104982070649271,0.741954680704968,-1.15211718928817
1580417278.586,-0.0197756923781185,0.11450370031281,-1.02369726100557
1580417278.58999,-0.0700694285496297,0.0393072404058898,-1.0041657129778
1580417278.59399,-0.0539559014267184,0.0461432822156098,-0.94508278019379
1580417278.59798,-0.0407721065079727,0.0427252613107498,-0.96217288471809
1580417278.60197,-0.0495613031204698,0.0393072404058898,-0.990981918059052
1580417278.60597,-0.0866712443732354,0.0354009308003356,-1.01197833218891
1580417278.60996,-0.0676279850461583,0.0397955291065841,-0.984634164950027
1580417278.61396,-0.0725108720531011,0.0354009308003356,-0.996841382467384
1580417278.61795,-0.0588387884336612,0.0368657969024184,-1.0041657129778
1580417278.62194,-0.0505378805218584,0.0349126420996413,-1.00660715648127
1580417278.62594,-0.0769054703593497,0.031006332494087,-0.995376516365301
1580417278.62993,-0.0363775082017241,0.0178225375753414,-1.02662699320974
1580417278.63393,-0.130128938735027,0.00952162966353853,-1.02711528191043
1580417278.63792,-0.104737926298924,0.00659189745937283,-0.972915236133364
1580417278.64191,-0.0300297550926985,0.0417486839093613,-0.990005340657664
1580417278.64591,-0.0549324788281069,0.0642099641412983,-0.991958495460441
1580417278.6499,-0.0202639810788128,0.0363775082017241,-1.03932249942779
1580417278.6539,-0.11108567940795,0.0505378805218584,-0.98951705195697
1580417278.65789,-0.027588311589227,0.0441901274128327,-0.961684596017395
1580417278.66188,-0.0754406042572668,0.037842374303807,-0.972915236133364
1580417278.66586,-0.0388189517051956,0.0549324788281069,-1.00270084687572
1580417278.66986,-0.0617685206378269,0.0422369726100555,-0.97926298924239
1580417278.67385,-0.0593270771343555,0.0339360646982527,-0.957778286411841
1580417278.67785,-0.0539559014267184,0.0485847257190812,-0.961196307316701
1580417278.68184,-0.0588387884336612,0.0471198596169984,-0.98268101014725
1580417278.68583,-0.0607919432364383,0.0427252613107498,-0.990981918059052
1580417278.68983,-0.0681162737468526,0.0407721065079727,-1.00514229037919
1580417278.69382,-0.0715342946517126,0.0373540856031127,-0.99293507286183
1580417278.69781,-0.0622568093385212,0.0422369726100555,-0.988052185854887
1580417278.70181,-0.0563973449301898,0.0354009308003356,-0.99977111467155
1580417278.7058,-0.0617685206378269,0.0373540856031127,-1.00318913557641
1580417278.7098,-0.0681162737468526,0.0354009308003356,-0.994399938963912
1580417278.71379,-0.0778820477607383,0.0363775082017241,-0.988052185854887
1580417278.71778,-0.0720225833524069,0.0393072404058898,-0.984634164950027
1580417278.72178,-0.0632333867399097,0.0388189517051956,-0.978774700541695
1580417278.72577,-0.0622568093385212,0.0383306630045013,-0.983657587548638
1580417278.72977,-0.0598153658350498,0.0441901274128327,-0.983657587548638
1580417278.73376,-0.060303654535744,0.0432135500114441,-0.983169298847944
1580417278.73775,-0.0695811398489354,0.0393072404058898,-0.981704432745861
1580417278.74175,-0.0666514076447697,0.0393072404058898,-0.982192721446555
1580417278.74576,-0.0729991607537954,0.0451667048142212,-0.986587319752804
1580417278.74975,-0.070557717250324,0.0456549935149155,-0.989028763256275
1580417278.75375,-0.0681162737468526,0.044678416113527,-0.992446784161135
1580417278.75774,-0.0656748302433812,0.0441901274128327,-0.990005340657664
1580417278.76173,-0.0646982528419926,0.0466315709163041,-0.991470206759747
1580417278.76573,-0.0681162737468526,0.0510261692225527,-0.99293507286183
1580417278.76972,-0.0666514076447697,0.0432135500114441,-0.994399938963912
1580417278.77372,-0.0710460059510183,0.0407721065079727,-0.996841382467384
1580417278.77771,-0.0686045624475469,0.0451667048142212,-0.994888227664607
1580417278.7817,-0.0676279850461583,0.0427252613107498,-0.994888227664607
1580417278.7857,-0.0686045624475469,0.0432135500114441,-1.00221255817502
1580417278.78969,-0.0568856336308841,0.0407721065079727,-1.00318913557641
1580417278.79369,-0.0700694285496297,0.0427252613107498,-0.998306248569467
1580417278.79768,-0.0422369726100555,0.0471198596169984,-1.00758373388266
1580417278.80167,-0.0754406042572668,0.0451667048142212,-0.988540474555581
1580417278.80567,-0.0793469138628211,0.0290531776913099,-0.971450370031281
1580417278.80966,-0.0749523155565726,0.0349126420996413,-0.994888227664607
1580417278.81365,-0.0725108720531011,0.0407721065079727,-1.01100175478752
1580417278.81765,-0.0612802319371326,0.0417486839093613,-0.99293507286183
1580417278.82164,-0.0485847257190812,0.0417486839093613,-0.989028763256275
1580417278.82562,-0.0690928511482412,0.0456549935149155,-0.97926298924239
1580417278.82962,-0.0666514076447697,0.0456549935149155,-0.981216144045167
1580417278.83361,-0.0749523155565726,0.0402838178072784,-0.987075608453498
1580417278.8376,-0.105226214999618,0.0227054245822842,-1.0036774242771
1580417278.8416,-0.0490730144197755,0.0573739223315783,-0.970473792629893
1580417278.84559,-0.0529793240253298,0.0402838178072784,-0.978286411841001
1580417278.84959,-0.0534676127260241,0.0397955291065841,-0.984634164950027
1580417278.85358,-0.0676279850461583,0.0490730144197755,-0.990981918059052
1580417278.85757,-0.0495613031204698,0.0383306630045013,-0.983657587548638
1580417278.86157,-0.11450370031281,0.0246585793850613,-0.988052185854887
1580417278.86556,-0.0886243991760125,0.0456549935149155,-0.977798123140307
1580417278.86956,-0.225345235370412,-0.0183108262760356,-0.993423361562524
1580417278.87355,-0.0847180895704582,0.0456549935149155,-0.967544060425727
1580417278.87754,-0.116456855115587,0.0339360646982527,-0.981704432745861
1580417278.88154,-0.10766765850309,-0.176028076600289,-0.928969253070878
1580417278.88553,-0.144289311055161,0.143801022354467,-0.937270160982681
1580417278.88953,-0.677988860914015,-0.625741969939726,-0.88697642481117
1580417278.89352,0.302983138780803,0.76734569314107,-1.01832608529793
1580417278.89751,0.0407721065079727,0.231692988479438,-1.0979171435111
1580417278.90151,0.0534676127260241,0.417242694743265,-1.06764324406805
1580417278.90549,-0.0227054245822842,0.119874876020447,-1.00221255817502
1580417278.90948,-0.0441901274128327,0.0383306630045013,-0.993423361562524
1580417278.91348,-0.0847180895704582,0.0183108262760356,-1.01441977569238
1580417278.91747,-0.0817883573662925,0.0388189517051956,-1.01686121919585
1580417278.92146,-0.0324711985961699,0.0349126420996413,-0.983657587548638
1580417278.92546,-0.0393072404058898,0.0476081483176927,-0.96900892652781
1580417278.92945,-0.0837415121690697,0.0422369726100555,-0.964126039520867
1580417278.93344,-0.0905775539787896,0.0329594872968642,-0.963149462119478
1580417278.93744,-0.0881361104753182,0.034424353398947,-0.998794537270161
1580417278.94143,-0.0813000686655982,0.037842374303807,-1.01149004348821
1580417278.94543,-0.0690928511482412,0.0329594872968642,-0.994888227664607
1580417278.94942,-0.0583504997329669,0.031006332494087,-0.991958495460441
1580417278.95341,-0.0617685206378269,0.0314946211947813,-0.995864805065995
1580417278.95741,-0.060303654535744,0.0373540856031127,-0.996841382467384
1580417278.9614,-0.067139696345464,0.0383306630045013,-0.994399938963912
1580417278.9654,-0.0646982528419926,0.034424353398947,-0.990493629358358
1580417278.96939,-0.0725108720531011,0.0305180437933927,-0.986587319752804
1580417278.97338,-0.0686045624475469,0.0319829098954756,-0.980727855344472
1580417278.97738,-0.0686045624475469,0.0339360646982527,-0.984634164950027
1580417278.98137,-0.0656748302433812,0.0354009308003356,-0.989028763256275
1580417278.98538,-0.0661631189440754,0.0285648889906156,-0.991958495460441
1580417278.98938,-0.0661631189440754,0.0319829098954756,-0.993423361562524
1580417278.99337,-0.0715342946517126,0.0358892195010299,-0.994399938963912
1580417278.99736,-0.0710460059510183,0.0368657969024184,-0.994399938963912
1580417279.00136,-0.0651865415426869,0.0339360646982527,-0.988052185854887
1580417279.00535,-0.063721675440604,0.0314946211947813,-0.988540474555581
1580417279.00935,-0.070557717250324,0.0334477759975584,-0.988052185854887
1580417279.01334,-0.0744640268558783,0.0256351567864499,-0.990493629358358
1580417279.01733,-0.0729991607537954,0.0251468680857556,-0.993911650263218
1580417279.02133,-0.070557717250324,0.0285648889906156,-0.998794537270161
1580417279.02532,-0.0690928511482412,0.0285648889906156,-0.99635309376669
1580417279.02932,-0.0651865415426869,0.0300297550926985,-0.99977111467155
1580417279.03331,-0.0632333867399097,0.0324711985961699,-0.997329671168078
1580417279.0373,-0.0749523155565726,0.0319829098954756,-0.991470206759747
1580417279.0413,-0.0778820477607383,0.0349126420996413,-0.990493629358358
1580417279.04529,-0.0676279850461583,0.0373540856031127,-0.990981918059052
1580417279.04929,-0.0754406042572668,0.0314946211947813,-0.990981918059052
1580417279.05328,-0.0700694285496297,0.034424353398947,-0.986587319752804
1580417279.05727,-0.0656748302433812,0.0349126420996413,-0.98609903105211
1580417279.06127,-0.0695811398489354,0.034424353398947,-0.990005340657664
1580417279.06525,-0.0715342946517126,0.0314946211947813,-0.988052185854887
1580417279.06924,-0.0695811398489354,0.027588311589227,-0.987075608453498
1580417279.07323,-0.0563973449301898,0.0285648889906156,-0.992446784161135
1580417279.07723,-0.0373540856031127,0.0427252613107498,-0.995376516365301
1580417279.08122,-0.0783703364614325,0.0285648889906156,-0.989028763256275
1580417279.08522,-0.0905775539787896,0.0148928053711757,-0.966567483024338
1580417279.08921,-0.0930189974822611,0.0212405584802013,-0.979751277943084
1580417279.0932,-0.0764171816586554,0.031006332494087,-1.00514229037919
1580417279.0972,-0.0695811398489354,0.0271000228885327,-1.00025940337224
1580417279.10119,-0.0852063782711525,0.0217288471808956,-0.991958495460441
1580417279.10519,-0.0559090562294955,0.0402838178072784,-0.98268101014725
1580417279.10918,-0.0905775539787896,0.0432135500114441,-0.908949416342413
1580417279.11317,-0.0827649347676811,0.0354009308003356,-1.00611886778058
1580417279.11717,-0.0974135957885096,0.0441901274128327,-1.03590447852293
1580417279.12116,-0.0280766002899213,0.0354009308003356,-1.00074769207294
1580417279.12516,-0.0769054703593497,0.0285648889906156,-0.964126039520867
1580417279.12915,-0.0485847257190812,0.0300297550926985,-0.969497215228504
1580417279.13314,-0.0754406042572668,0.0554207675288012,-1.00318913557641
1580417279.13714,-0.572030212863355,-3.18925764858473,-0.515877012283513
1580417279.14113,-0.268314641031511,0.258060578316929,-1.05494773785
1580417279.14514,-0.0100099183642328,0.515877012283514,-0.947524223697261
1580417279.14913,0.260990310521095,0.635507743953614,-1.15846494239719
1580417279.15313,0.163332570382238,0.408941786831463,-1.1233081559472
1580417279.15712,0.0500495918211641,0.12133974212253,-1.03932249942779
1580417279.16112,-0.0549324788281069,0.0334477759975584,-0.93141069657435
1580417279.16511,-0.0793469138628211,0.027588311589227,-0.898695353627833
1580417279.1691,-0.0622568093385212,0.0358892195010299,-0.974868390936141
1580417279.1731,-0.0515144579232469,0.0363775082017241,-1.0300450141146
1580417279.17709,-0.0729991607537954,0.0305180437933927,-0.990493629358358
1580417279.18109,-0.0798352025635154,0.0192874036774242,-0.976333257038224
1580417279.18508,-0.077393759060044,0.0349126420996413,-1.06910811017014
1580417279.18907,-0.0632333867399097,0.0236820019836728,-1.00563057907988
1580417279.19307,-0.0749523155565726,0.0305180437933927,-0.97926298924239
1580417279.19706,-0.067139696345464,0.034424353398947,-1.00807202258335
1580417279.20106,-0.0563973449301898,0.0358892195010299,-0.985610742351415
1580417279.20505,-0.0549324788281069,0.0358892195010299,-0.960219729915313
1580417279.20904,-0.0661631189440754,0.0397955291065841,-0.981216144045167
1580417279.21304,-0.0695811398489354,0.031006332494087,-0.995376516365301
1580417279.21703,-0.070557717250324,0.0295414663920042,-0.989028763256275
1580417279.22103,-0.070557717250324,0.0246585793850613,-0.997329671168078
1580417279.22501,-0.0700694285496297,0.0285648889906156,-0.99635309376669
1580417279.229,-0.0632333867399097,0.0261234454871442,-0.99635309376669
1580417279.23299,-0.0695811398489354,0.0246585793850613,-0.988052185854887
1580417279.23699,-0.0734874494544897,0.0271000228885327,-0.986587319752804
1580417279.24098,-0.073975738155184,0.0329594872968642,-0.99293507286183
1580417279.24498,-0.070557717250324,0.034424353398947,-0.988052185854887
1580417279.24897,-0.063721675440604,0.0334477759975584,-0.986587319752804
1580417279.25296,-0.0642099641412983,0.0334477759975584,-0.988540474555581
1580417279.25696,-0.0729991607537954,0.0319829098954756,-0.987075608453498
1580417279.26095,-0.0793469138628211,0.031006332494087,-0.988540474555581
1580417279.26495,-0.0783703364614325,0.0285648889906156,-0.990005340657664
1580417279.26894,-0.0744640268558783,0.0334477759975584,-0.997329671168078
1580417279.27293,-0.070557717250324,0.0329594872968642,-0.995864805065995
1580417279.27693,-0.070557717250324,0.0324711985961699,-0.991958495460441
1580417279.28092,-0.0710460059510183,0.0324711985961699,-0.989028763256275
1580417279.28492,-0.0690928511482412,0.0324711985961699,-0.990981918059052
1580417279.28891,-0.0676279850461583,0.0285648889906156,-0.993911650263218
1580417279.2929,-0.073975738155184,0.0261234454871442,-0.98951705195697
1580417279.2969,-0.0744640268558783,0.0358892195010299,-0.987075608453498
1580417279.30089,-0.0681162737468526,0.0373540856031127,-0.990493629358358
1580417279.3049,-0.0686045624475469,0.0339360646982527,-0.98951705195697
1580417279.30889,-0.070557717250324,0.0363775082017241,-0.990493629358358
1580417279.31289,-0.0690928511482412,0.0358892195010299,-0.989028763256275
1580417279.31688,-0.0720225833524069,0.034424353398947,-0.99293507286183
1580417279.32088,-0.0729991607537954,0.0329594872968642,-0.993911650263218
1580417279.32487,-0.0759288929579611,0.034424353398947,-0.99635309376669
1580417279.32886,-0.0720225833524069,0.031006332494087,-0.997817959868772
1580417279.33286,-0.0729991607537954,0.0290531776913099,-0.993911650263218
1580417279.33685,-0.0734874494544897,0.0290531776913099,-0.986587319752804
1580417279.34085,-0.0734874494544897,0.0290531776913099,-0.984634164950027
1580417279.34484,-0.0725108720531011,0.0271000228885327,-0.981704432745861
1580417279.34883,-0.073975738155184,0.0231937132829785,-0.984145876249332
1580417279.35283,-0.0734874494544897,0.0261234454871442,-0.980239566643778
1580417279.35682,-0.0700694285496297,0.0285648889906156,-0.985122453650721
1580417279.36082,-0.0681162737468526,0.0290531776913099,-0.989028763256275
1580417279.36481,-0.070557717250324,0.0324711985961699,-0.990493629358358
1580417279.3688,-0.0695811398489354,0.0290531776913099,-0.990493629358358
1580417279.3728,-0.0686045624475469,0.0339360646982527,-0.991470206759747
1580417279.37679,-0.0715342946517126,0.0324711985961699,-0.990493629358358
1580417279.38079,-0.0725108720531011,0.0314946211947813,-0.990981918059052
1580417279.38476,-0.0715342946517126,0.031006332494087,-0.991958495460441
1580417279.38876,-0.0695811398489354,0.031006332494087,-0.993423361562524
1580417279.39275,-0.0676279850461583,0.0388189517051956,-0.990981918059052
1580417279.39675,-0.0646982528419926,0.0373540856031127,-0.99293507286183
1580417279.40074,-0.0686045624475469,0.0319829098954756,-0.99293507286183
1580417279.40473,-0.0700694285496297,0.0334477759975584,-0.995864805065995
1580417279.40873,-0.0690928511482412,0.0300297550926985,-0.994399938963912
1580417279.41272,-0.0695811398489354,0.0290531776913099,-0.99635309376669
1580417279.41672,-0.0715342946517126,0.0305180437933927,-0.995864805065995
1580417279.42071,-0.0729991607537954,0.0314946211947813,-0.995864805065995
1580417279.42471,-0.0710460059510183,0.0290531776913099,-0.994399938963912
1580417279.4287,-0.0681162737468526,0.0305180437933927,-0.98951705195697
1580417279.43269,-0.0720225833524069,0.0324711985961699,-0.988540474555581
1580417279.43669,-0.0725108720531011,0.0349126420996413,-0.987075608453498
1580417279.44068,-0.0744640268558783,0.034424353398947,-0.991470206759747
1580417279.44467,-0.0729991607537954,0.0334477759975584,-0.990981918059052
1580417279.44867,-0.0729991607537954,0.0329594872968642,-0.990493629358358
1580417279.45266,-0.0729991607537954,0.0319829098954756,-0.98609903105211
1580417279.45666,-0.073975738155184,0.031006332494087,-0.986587319752804
1580417279.46065,-0.0734874494544897,0.0334477759975584,-0.990005340657664
1580417279.46466,-0.070557717250324,0.0300297550926985,-0.988540474555581
1580417279.46865,-0.0686045624475469,0.031006332494087,-0.988540474555581
1580417279.47265,-0.0695811398489354,0.0339360646982527,-0.99293507286183
1580417279.47664,-0.0720225833524069,0.0354009308003356,-0.991470206759747
1580417279.48064,-0.0725108720531011,0.0329594872968642,-0.990005340657664
1580417279.48463,-0.073975738155184,0.0334477759975584,-0.98951705195697
1580417279.48862,-0.0710460059510183,0.0339360646982527,-0.995376516365301
1580417279.49262,-0.0710460059510183,0.0319829098954756,-0.99293507286183
1580417279.49661,-0.0690928511482412,0.0285648889906156,-0.99293507286183
1580417279.50061,-0.0710460059510183,0.0314946211947813,-0.991958495460441
1580417279.5046,-0.070557717250324,0.0324711985961699,-0.995376516365301
1580417279.50859,-0.0725108720531011,0.0339360646982527,-0.99977111467155
1580417279.51259,-0.0744640268558783,0.0373540856031127,-0.996841382467384
1580417279.51658,-0.0695811398489354,0.0354009308003356,-0.99293507286183
1580417279.52058,-0.0690928511482412,0.0388189517051956,-0.996841382467384
1580417279.52457,-0.0700694285496297,0.0358892195010299,-0.991470206759747
1580417279.52856,-0.070557717250324,0.0354009308003356,-0.991470206759747
1580417279.53256,-0.0695811398489354,0.0407721065079727,-0.992446784161135
1580417279.53655,-0.0700694285496297,0.034424353398947,-0.990005340657664
1580417279.54055,-0.0710460059510183,0.034424353398947,-0.98951705195697
1580417279.54452,-0.0720225833524069,0.0319829098954756,-0.995376516365301
1580417279.54852,-0.0700694285496297,0.0329594872968642,-0.993423361562524
1580417279.55251,-0.0690928511482412,0.0324711985961699,-0.988540474555581
1580417279.55651,-0.0700694285496297,0.0339360646982527,-0.97926298924239
1580417279.5605,-0.0734874494544897,0.0339360646982527,-0.984145876249332
1580417279.56449,-0.073975738155184,0.0334477759975584,-0.983657587548638
1580417279.56849,-0.0715342946517126,0.0373540856031127,-0.985122453650721
1580417279.57248,-0.0734874494544897,0.0388189517051956,-0.990493629358358
1580417279.57648,-0.0729991607537954,0.0363775082017241,-0.997329671168078
1580417279.58047,-0.0744640268558783,0.0334477759975584,-0.988540474555581
1580417279.58447,-0.0715342946517126,0.0334477759975584,-0.989028763256275
1580417279.58846,-0.070557717250324,0.0314946211947813,-0.991470206759747
1580417279.59245,-0.070557717250324,0.0339360646982527,-0.990981918059052
1580417279.59645,-0.0720225833524069,0.0300297550926985,-0.998794537270161
1580417279.60044,-0.0700694285496297,0.0339360646982527,-0.999282825970855
1580417279.60443,-0.0700694285496297,0.031006332494087,-0.995376516365301
1580417279.60843,-0.0661631189440754,0.0354009308003356,-0.991958495460441
1580417279.61242,-0.0715342946517126,0.0334477759975584,-0.991958495460441
1580417279.61642,-0.0695811398489354,0.0383306630045013,-0.98951705195697
1580417279.62041,-0.067139696345464,0.037842374303807,-0.989028763256275
1580417279.62442,-0.0686045624475469,0.041260395208667,-0.98951705195697
1580417279.62841,-0.0666514076447697,0.0407721065079727,-0.986587319752804
1580417279.63241,-0.070557717250324,0.0358892195010299,-0.991958495460441
1580417279.6364,-0.0744640268558783,0.0349126420996413,-0.992446784161135
1580417279.6404,-0.0744640268558783,0.0354009308003356,-0.990005340657664
1580417279.64439,-0.0720225833524069,0.0358892195010299,-0.992446784161135
1580417279.64838,-0.0729991607537954,0.0319829098954756,-0.991470206759747
1580417279.65238,-0.0700694285496297,0.0290531776913099,-0.990493629358358
1580417279.65637,-0.067139696345464,0.0300297550926985,-0.991470206759747
1580417279.66037,-0.0710460059510183,0.0305180437933927,-0.98609903105211
1580417279.66436,-0.0749523155565726,0.0300297550926985,-0.990981918059052
1580417279.66835,-0.070557717250324,0.0290531776913099,-0.993911650263218
1580417279.67235,-0.073975738155184,0.0358892195010299,-0.990005340657664
1580417279.67634,-0.0729991607537954,0.0349126420996413,-0.995376516365301
1580417279.68034,-0.070557717250324,0.0363775082017241,-0.99293507286183
1580417279.68433,-0.0700694285496297,0.0432135500114441,-0.992446784161135
1580417279.68832,-0.070557717250324,0.0397955291065841,-0.99293507286183
1580417279.69232,-0.0700694285496297,0.0402838178072784,-0.990493629358358
1580417279.69631,-0.0715342946517126,0.0402838178072784,-0.991470206759747
1580417279.70031,-0.070557717250324,0.0368657969024184,-0.993423361562524
1580417279.70431,-0.0729991607537954,0.0339360646982527,-0.999282825970855
1580417279.70831,-0.0715342946517126,0.0314946211947813,-0.995864805065995
1580417279.7123,-0.0695811398489354,0.0314946211947813,-0.999282825970855
1580417279.7163,-0.0681162737468526,0.034424353398947,-0.99293507286183
1580417279.72029,-0.0681162737468526,0.0339360646982527,-1.00025940337224
1580417279.72428,-0.0700694285496297,0.0358892195010299,-0.994399938963912
1580417279.72828,-0.0695811398489354,0.0388189517051956,-0.990005340657664
1580417279.73227,-0.070557717250324,0.0388189517051956,-0.993423361562524
1580417279.73627,-0.0725108720531011,0.0383306630045013,-0.989028763256275
1580417279.74026,-0.0749523155565726,0.0368657969024184,-0.988540474555581
1580417279.74425,-0.0729991607537954,0.0334477759975584,-0.98951705195697
1580417279.74825,-0.0754406042572668,0.0329594872968642,-0.984634164950027
1580417279.75224,-0.0729991607537954,0.0339360646982527,-0.984634164950027
1580417279.75624,-0.0720225833524069,0.0334477759975584,-0.985610742351415
1580417279.76023,-0.0710460059510183,0.0329594872968642,-0.988052185854887
1580417279.76423,-0.070557717250324,0.031006332494087,-0.989028763256275
1580417279.76822,-0.0729991607537954,0.0300297550926985,-0.983657587548638
1580417279.77221,-0.0729991607537954,0.0339360646982527,-0.990981918059052
1580417279.77621,-0.0695811398489354,0.0305180437933927,-0.988052185854887
1580417279.7802,-0.0700694285496297,0.034424353398947,-0.987075608453498
1580417279.78418,-0.0725108720531011,0.0358892195010299,-0.990005340657664
1580417279.78817,-0.0710460059510183,0.0354009308003356,-0.99635309376669
1580417279.79217,-0.0681162737468526,0.0393072404058898,-0.993911650263218
1580417279.79616,-0.0700694285496297,0.041260395208667,-0.99293507286183
1580417279.80015,-0.0695811398489354,0.0397955291065841,-0.99293507286183
1580417279.80415,-0.0715342946517126,0.0407721065079727,-0.99635309376669
1580417279.80814,-0.0700694285496297,0.0368657969024184,-0.990493629358358
1580417279.81214,-0.0700694285496297,0.0363775082017241,-0.98951705195697
1580417279.81613,-0.0676279850461583,0.0358892195010299,-0.995864805065995
1580417279.82012,-0.0690928511482412,0.034424353398947,-0.990005340657664
1580417279.82412,-0.0715342946517126,0.031006332494087,-0.986587319752804
1580417279.82811,-0.0749523155565726,0.0329594872968642,-0.985610742351415
1580417279.83211,-0.0759288929579611,0.0339360646982527,-0.985610742351415
1580417279.8361,-0.0720225833524069,0.0295414663920042,-0.984634164950027
1580417279.8401,-0.0744640268558783,0.0324711985961699,-0.987563897154192
1580417279.84409,-0.070557717250324,0.0349126420996413,-0.98951705195697
1580417279.84808,-0.0720225833524069,0.0363775082017241,-0.991958495460441
1580417279.85208,-0.0729991607537954,0.0358892195010299,-0.990981918059052
1580417279.85607,-0.0725108720531011,0.0368657969024184,-0.996841382467384
1580417279.86006,-0.0686045624475469,0.0393072404058898,-0.998794537270161
1580417279.86407,-0.0690928511482412,0.034424353398947,-0.998306248569467
1580417279.86807,-0.0695811398489354,0.0363775082017241,-0.998306248569467
1580417279.87206,-0.0715342946517126,0.0354009308003356,-0.991958495460441
1580417279.87606,-0.0686045624475469,0.0363775082017241,-0.989028763256275
1580417279.88005,-0.0729991607537954,0.0339360646982527,-0.989028763256275
1580417279.88404,-0.0729991607537954,0.0339360646982527,-0.991958495460441
1580417279.88804,-0.0710460059510183,0.0334477759975584,-0.990005340657664
1580417279.89203,-0.0749523155565726,0.0334477759975584,-0.988540474555581
1580417279.89603,-0.0710460059510183,0.0354009308003356,-0.990981918059052
1580417279.90002,-0.0695811398489354,0.034424353398947,-0.981704432745861
1580417279.90401,-0.070557717250324,0.0339360646982527,-0.983657587548638
1580417279.90801,-0.073975738155184,0.034424353398947,-0.986587319752804
1580417279.912,-0.0734874494544897,0.0319829098954756,-0.990005340657664
1580417279.916,-0.0729991607537954,0.034424353398947,-0.990005340657664
1580417279.91999,-0.0715342946517126,0.0368657969024184,-0.99293507286183
1580417279.92398,-0.0651865415426869,0.0363775082017241,-0.995864805065995
1580417279.92798,-0.0363775082017241,0.0402838178072784,-1.00025940337224
1580417279.93197,-0.0749523155565726,0.0534676127260241,-0.998794537270161
1580417279.93597,-0.0759288929579611,0.0334477759975584,-0.975356679636835
1580417279.93996,-0.10424963759823,0.0363775082017241,-0.98951705195697
1580417279.94394,-0.0935072861829553,0.0280766002899213,-1.02565041580835
1580417279.94793,-0.0979018844892039,0.037842374303807,-1.00172426947433
1580417279.95193,-0.0515144579232469,0.0339360646982527,-0.983657587548638
1580417279.95592,-0.0563973449301898,0.0505378805218584,-0.986587319752804
1580417279.95991,-0.0954604409857325,0.048096437018387,-0.98268101014725
1580417279.96391,-0.101808194094758,0.031006332494087,-0.97584496833753
1580417279.9679,-0.101808194094758,0.0324711985961699,-0.998794537270161
1580417279.9719,-0.0822766460669868,0.024170290684367,-1.01588464179446
1580417279.97589,-0.099855039291981,-0.0349126420996413,-1.0129549095903
1580417279.97988,-0.0769054703593497,0.0520027466239412,-0.975356679636835
1580417279.98388,-0.0300297550926985,0.0700694285496297,-0.95191882200351
1580417279.98787,-0.114015411612115,-0.0285648889906156,-1.02906843671321
1580417279.99187,-0.0852063782711525,0.0451667048142212,-0.953871976806287
1580417279.99586,-0.109132524605172,0.0295414663920042,-0.984634164950027
1580417279.99986,-0.0793469138628211,0.0290531776913099,-0.990493629358358
1580417280.00385,-0.0368657969024184,0.00561532005798426,-1.01344319829099
1580417280.00784,-0.0280766002899213,0.0749523155565726,-1.00123598077363
1580417280.01184,-0.0358892195010299,0.0383306630045013,-0.992446784161135
1580417280.01583,-0.0417486839093613,0.0402838178072784,-0.98609903105211
1580417280.01982,-0.0285648889906156,0.0778820477607383,-0.985610742351415
1580417280.02383,-0.112062256809338,0.0666514076447697,-0.992446784161135
1580417280.02783,-0.0788586251621268,0.0451667048142212,-0.953871976806287
1580417280.03182,-0.0568856336308841,0.0358892195010299,-0.999282825970855
1580417280.03582,-0.112550545510032,0.0134279392690928,-1.04176394293126
1580417280.03981,-0.00268558785381856,0.124269474326695,-0.995864805065995
1580417280.0438,-0.0168459601739528,0.060303654535744,-1.01490806439307
1580417280.0478,-0.0573739223315783,0.0388189517051956,-0.970473792629893
1580417280.05179,-0.070557717250324,0.041260395208667,-0.987075608453498
1580417280.05579,-0.0720225833524069,0.0617685206378269,-0.981216144045167
1580417280.05978,-0.0642099641412983,0.0451667048142212,-0.984145876249332
1580417280.06377,-0.067139696345464,0.0314946211947813,-1.00465400167849
1580417280.06777,-0.0520027466239412,-0.0222171358815899,-1.05934233615625
1580417280.07176,-0.0754406042572668,0.0500495918211641,-0.992446784161135
1580417280.07576,-0.0305180437933927,-0.0231937132829785,-0.96559090562295
1580417280.07975,-0.207278553444723,-0.260990310521096,-0.968032349126421
1580417280.08374,-0.0627450980392155,0.456794079499502,-1.01490806439307
1580417280.08774,-0.0559090562294955,0.314702067597466,-1.04029907682918
1580417280.09173,-0.246341649500266,0.0231937132829785,-1.10719462882429
1580417280.09573,-0.336186770428016,0.354741741054397,-1.0720378423743
1580417280.09972,0.37671473258564,0.58716716258488,-1.00025940337224
1580417280.1037,0.377691309987028,0.618905928130008,-1.08522163729305
1580417280.10769,0.067139696345464,0.110109102006561,-1.11256580453193
1580417280.11169,-0.118898298619058,0.00512703135728998,-1.08619821469444
1580417280.11568,-0.063721675440604,0.0373540856031127,-0.912367437247273
1580417280.11967,-0.0495613031204698,0.0285648889906156,-0.946059357595178
1580417280.12367,-0.0539559014267184,0.024170290684367,-0.973403524834058
1580417280.12766,-0.0681162737468526,0.0393072404058898,-0.946059357595178
1580417280.13166,-0.099855039291981,0.0300297550926985,-0.998794537270161
1580417280.13565,-0.0764171816586554,0.024170290684367,-1.01637293049516
1580417280.13964,-0.063721675440604,0.0339360646982527,-1.00318913557641
1580417280.14364,-0.073975738155184,0.0339360646982527,-1.00709544518196
1580417280.14763,-0.0686045624475469,0.0305180437933927,-0.971450370031281
1580417280.15163,-0.067139696345464,0.0280766002899213,-0.990981918059052
1580417280.15562,-0.0690928511482412,0.0256351567864499,-1.00563057907988
1580417280.15961,-0.0695811398489354,0.0319829098954756,-0.988540474555581
1580417280.16361,-0.0749523155565726,0.0339360646982527,-0.994399938963912
1580417280.1676,-0.0695811398489354,0.0314946211947813,-1.00318913557641
1580417280.1716,-0.0695811398489354,0.0295414663920042,-1.00025940337224
1580417280.17559,-0.0700694285496297,0.0290531776913099,-0.985610742351415
1580417280.17958,-0.070557717250324,0.0271000228885327,-0.979751277943084
1580417280.18359,-0.0710460059510183,0.0295414663920042,-0.976821545738918
1580417280.18759,-0.0700694285496297,0.0251468680857556,-0.977309834439613
1580417280.19158,-0.0720225833524069,0.0261234454871442,-0.977309834439613
1580417280.19557,-0.0729991607537954,0.0285648889906156,-0.98609903105211
1580417280.19957,-0.0725108720531011,0.031006332494087,-0.990005340657664
1580417280.20356,-0.0725108720531011,0.0363775082017241,-0.985610742351415
1580417280.20756,-0.0734874494544897,0.0358892195010299,-0.990981918059052
1580417280.21155,-0.0725108720531011,0.0363775082017241,-0.994399938963912
1580417280.21554,-0.0690928511482412,0.0334477759975584,-0.998794537270161
1580417280.21954,-0.0666514076447697,0.0314946211947813,-0.99977111467155
1580417280.22353,-0.0666514076447697,0.0314946211947813,-0.997329671168078
1580417280.22753,-0.0710460059510183,0.027588311589227,-0.997329671168078
1580417280.23152,-0.0700694285496297,0.0266117341878385,-0.992446784161135
1580417280.23551,-0.0725108720531011,0.027588311589227,-0.993423361562524
1580417280.23951,-0.0725108720531011,0.0295414663920042,-0.993911650263218
1580417280.2435,-0.0700694285496297,0.0349126420996413,-0.999282825970855
1580417280.2475,-0.0681162737468526,0.0407721065079727,-0.994888227664607
1580417280.25149,-0.0681162737468526,0.0388189517051956,-0.994888227664607
1580417280.25548,-0.0656748302433812,0.0354009308003356,-0.990493629358358
1580417280.25948,-0.0710460059510183,0.0334477759975584,-0.988540474555581
1580417280.26346,-0.0754406042572668,0.0300297550926985,-0.986587319752804
1580417280.26745,-0.0783703364614325,0.0305180437933927,-0.988540474555581
1580417280.27145,-0.073975738155184,0.0319829098954756,-0.99293507286183
1580417280.27544,-0.0720225833524069,0.0290531776913099,-0.984145876249332
1580417280.27943,-0.0690928511482412,0.0266117341878385,-0.98268101014725
1580417280.28343,-0.067139696345464,0.0329594872968642,-0.988540474555581
1580417280.28742,-0.0700694285496297,0.027588311589227,-0.991470206759747
1580417280.29142,-0.0725108720531011,0.0266117341878385,-0.987563897154192
1580417280.29541,-0.0715342946517126,0.0280766002899213,-0.989028763256275
1580417280.2994,-0.070557717250324,0.0334477759975584,-0.99293507286183
1580417280.3034,-0.0734874494544897,0.0354009308003356,-0.98951705195697
1580417280.30739,-0.0729991607537954,0.0324711985961699,-0.987563897154192
1580417280.31139,-0.0676279850461583,0.0285648889906156,-0.987075608453498
1580417280.31538,-0.0666514076447697,0.0300297550926985,-0.990981918059052
1580417280.31937,-0.0666514076447697,0.0349126420996413,-0.991958495460441
1580417280.32337,-0.0715342946517126,0.037842374303807,-0.990005340657664
1580417280.32736,-0.0700694285496297,0.0417486839093613,-0.994888227664607
1580417280.33136,-0.0729991607537954,0.0393072404058898,-0.995376516365301
1580417280.33535,-0.0695811398489354,0.0417486839093613,-0.993423361562524
1580417280.33934,-0.0715342946517126,0.034424353398947,-0.994399938963912
1580417280.34335,-0.0725108720531011,0.0334477759975584,-0.991470206759747
1580417280.34735,-0.070557717250324,0.0295414663920042,-1.00172426947433
1580417280.35134,-0.0681162737468526,0.0271000228885327,-0.997329671168078
1580417280.35533,-0.0715342946517126,0.0300297550926985,-0.99293507286183
1580417280.35933,-0.0729991607537954,0.0324711985961699,-0.989028763256275
1580417280.36332,-0.0754406042572668,0.0324711985961699,-0.994399938963912
1580417280.36732,-0.0778820477607383,0.0319829098954756,-0.990981918059052
1580417280.37131,-0.0720225833524069,0.0280766002899213,-0.98951705195697
1580417280.3753,-0.0715342946517126,0.0290531776913099,-0.990005340657664
1580417280.3793,-0.0700694285496297,0.0324711985961699,-0.992446784161135
1580417280.38329,-0.0690928511482412,0.0319829098954756,-0.989028763256275
1580417280.38729,-0.0715342946517126,0.0354009308003356,-0.992446784161135
1580417280.39128,-0.070557717250324,0.0339360646982527,-0.988540474555581
1580417280.39527,-0.0729991607537954,0.0324711985961699,-0.980727855344472
1580417280.39927,-0.0676279850461583,0.031006332494087,-0.982192721446555
1580417280.40326,-0.0690928511482412,0.0349126420996413,-0.984634164950027
1580417280.40726,-0.0656748302433812,0.0329594872968642,-0.997329671168078
1580417280.41125,-0.0661631189440754,0.034424353398947,-0.99293507286183
1580417280.41524,-0.0690928511482412,0.0363775082017241,-0.995376516365301
1580417280.41924,-0.0729991607537954,0.0339360646982527,-0.993423361562524
1580417280.42322,-0.077393759060044,0.0329594872968642,-0.98609903105211
1580417280.42721,-0.0754406042572668,0.0271000228885327,-0.988052185854887
1580417280.43121,-0.070557717250324,0.0261234454871442,-0.984634164950027
1580417280.4352,-0.0715342946517126,0.0261234454871442,-0.992446784161135
1580417280.43919,-0.0700694285496297,0.0285648889906156,-0.994399938963912
1580417280.44319,-0.0690928511482412,0.0295414663920042,-0.99977111467155
1580417280.44718,-0.070557717250324,0.027588311589227,-0.991958495460441
1580417280.45117,-0.0720225833524069,0.031006332494087,-0.994399938963912
1580417280.45517,-0.0700694285496297,0.0329594872968642,-0.994888227664607
1580417280.45916,-0.0734874494544897,0.0354009308003356,-1.00074769207294
1580417280.46316,-0.0695811398489354,0.0363775082017241,-1.00172426947433
1580417280.46715,-0.0700694285496297,0.0427252613107498,-0.994888227664607
1580417280.47114,-0.0690928511482412,0.0432135500114441,-0.995864805065995
1580417280.47514,-0.0681162737468526,0.0432135500114441,-0.997817959868772
1580417280.47913,-0.067139696345464,0.0417486839093613,-0.998794537270161
1580417280.48313,-0.070557717250324,0.0339360646982527,-0.996841382467384
1580417280.48712,-0.0700694285496297,0.0290531776913099,-0.98951705195697
1580417280.49111,-0.0715342946517126,0.0251468680857556,-0.987075608453498
1580417280.49511,-0.0710460059510183,0.0290531776913099,-0.991470206759747
1580417280.4991,-0.0700694285496297,0.0236820019836728,-0.991958495460441
1580417280.50311,-0.070557717250324,0.0236820019836728,-0.993423361562524
1580417280.50711,-0.0720225833524069,0.0227054245822842,-0.988052185854887
1580417280.5111,-0.0686045624475469,0.024170290684367,-0.990981918059052
1580417280.51509,-0.0690928511482412,0.0285648889906156,-0.985610742351415
1580417280.51909,-0.0720225833524069,0.0329594872968642,-0.984145876249332
1580417280.52308,-0.0729991607537954,0.0388189517051956,-0.981216144045167
1580417280.52708,-0.0725108720531011,0.0422369726100555,-0.987075608453498
1580417280.53107,-0.0720225833524069,0.0427252613107498,-0.992446784161135
1580417280.53506,-0.0695811398489354,0.0397955291065841,-1.00074769207294
1580417280.53906,-0.067139696345464,0.0383306630045013,-0.990005340657664
1580417280.54305,-0.067139696345464,0.0339360646982527,-0.98609903105211
1580417280.54705,-0.0686045624475469,0.0363775082017241,-0.990981918059052
1580417280.55104,-0.0710460059510183,0.0314946211947813,-0.993423361562524
1580417280.55503,-0.0715342946517126,0.0334477759975584,-0.99635309376669
1580417280.55903,-0.073975738155184,0.0280766002899213,-0.995864805065995
1580417280.56302,-0.0700694285496297,0.0271000228885327,-0.99293507286183
1580417280.56702,-0.0710460059510183,0.0285648889906156,-0.988540474555581
1580417280.57101,-0.0734874494544897,0.0305180437933927,-0.987563897154192
1580417280.575,-0.0725108720531011,0.0280766002899213,-0.985122453650721
1580417280.579,-0.073975738155184,0.0295414663920042,-0.987075608453498
1580417280.58298,-0.0700694285496297,0.034424353398947,-0.991470206759747
1580417280.58697,-0.0715342946517126,0.0349126420996413,-0.99293507286183
1580417280.59097,-0.0715342946517126,0.0324711985961699,-0.997817959868772
1580417280.59496,-0.070557717250324,0.0363775082017241,-0.992446784161135
1580417280.59895,-0.0676279850461583,0.0358892195010299,-0.995376516365301
1580417280.60295,-0.0666514076447697,0.0354009308003356,-0.996841382467384
1580417280.60694,-0.0676279850461583,0.037842374303807,-0.994399938963912
1580417280.61093,-0.0710460059510183,0.0388189517051956,-0.993423361562524
1580417280.61493,-0.0769054703593497,0.0368657969024184,-0.987075608453498
1580417280.61892,-0.073975738155184,0.0349126420996413,-0.990981918059052
1580417280.62292,-0.073975738155184,0.0314946211947813,-0.99293507286183
1580417280.62691,-0.073975738155184,0.031006332494087,-0.989028763256275
1580417280.6309,-0.070557717250324,0.0280766002899213,-0.993423361562524
1580417280.6349,-0.0715342946517126,0.0305180437933927,-0.990493629358358
1580417280.63889,-0.0695811398489354,0.0305180437933927,-0.990493629358358
1580417280.64289,-0.070557717250324,0.0290531776913099,-0.993423361562524
1580417280.64688,-0.0690928511482412,0.0295414663920042,-0.991470206759747
1580417280.65087,-0.0710460059510183,0.0305180437933927,-0.990493629358358
1580417280.65487,-0.0729991607537954,0.034424353398947,-0.993423361562524
1580417280.65886,-0.0715342946517126,0.0363775082017241,-0.987563897154192
1580417280.66287,-0.0681162737468526,0.0368657969024184,-0.984145876249332
1580417280.66687,-0.0686045624475469,0.0388189517051956,-0.98268101014725
1580417280.67086,-0.070557717250324,0.0383306630045013,-0.98609903105211
1580417280.67485,-0.0695811398489354,0.034424353398947,-0.991470206759747
1580417280.67885,-0.0715342946517126,0.0329594872968642,-0.986587319752804
1580417280.68284,-0.0686045624475469,0.0319829098954756,-0.98951705195697
1580417280.68684,-0.0710460059510183,0.031006332494087,-0.992446784161135
1580417280.69083,-0.0715342946517126,0.0324711985961699,-0.990493629358358
1580417280.69482,-0.070557717250324,0.0305180437933927,-0.991470206759747
1580417280.69882,-0.0700694285496297,0.0300297550926985,-0.99293507286183
1580417280.70281,-0.0686045624475469,0.0305180437933927,-0.990493629358358
1580417280.70681,-0.070557717250324,0.0280766002899213,-0.990005340657664
1580417280.7108,-0.073975738155184,0.0271000228885327,-0.993911650263218
1580417280.71479,-0.0715342946517126,0.0300297550926985,-0.995864805065995
1580417280.71879,-0.0720225833524069,0.0324711985961699,-0.991958495460441
1580417280.72278,-0.0700694285496297,0.0368657969024184,-0.993911650263218
1580417280.72678,-0.0666514076447697,0.0349126420996413,-0.996841382467384
1580417280.73077,-0.0690928511482412,0.037842374303807,-0.99293507286183
1580417280.73476,-0.0686045624475469,0.037842374303807,-0.986587319752804
1580417280.73876,-0.0720225833524069,0.0334477759975584,-0.991470206759747
1580417280.74274,-0.0695811398489354,0.0363775082017241,-0.987563897154192
1580417280.74673,-0.0700694285496297,0.0388189517051956,-0.997329671168078
1580417280.75072,-0.0744640268558783,0.0339360646982527,-0.991470206759747
1580417280.75472,-0.0725108720531011,0.0388189517051956,-0.99293507286183
1580417280.75871,-0.0725108720531011,0.0363775082017241,-0.994888227664607
1580417280.76271,-0.0720225833524069,0.0334477759975584,-1.00172426947433
1580417280.7667,-0.073975738155184,0.0300297550926985,-1.00074769207294
1580417280.77069,-0.073975738155184,0.031006332494087,-0.992446784161135
1580417280.77469,-0.0754406042572668,0.0251468680857556,-0.985122453650721
1580417280.77868,-0.0729991607537954,0.027588311589227,-0.982192721446555
1580417280.78268,-0.0715342946517126,0.0256351567864499,-0.984145876249332
1580417280.78667,-0.0729991607537954,0.027588311589227,-0.983657587548638
1580417280.79066,-0.0729991607537954,0.0261234454871442,-0.987075608453498
1580417280.79466,-0.0749523155565726,0.0305180437933927,-0.994888227664607
1580417280.79865,-0.0754406042572668,0.0324711985961699,-0.994888227664607
1580417280.80265,-0.0700694285496297,0.0329594872968642,-0.997817959868772
1580417280.80664,-0.0686045624475469,0.037842374303807,-0.995376516365301
1580417280.81063,-0.0700694285496297,0.0383306630045013,-1.00172426947433
1580417280.81463,-0.0690928511482412,0.037842374303807,-0.991470206759747
1580417280.81862,-0.0734874494544897,0.0368657969024184,-0.990005340657664
1580417280.82263,-0.0725108720531011,0.037842374303807,-0.987075608453498
1580417280.82662,-0.0720225833524069,0.0339360646982527,-0.986587319752804
1580417280.83062,-0.0710460059510183,0.0339360646982527,-0.986587319752804
1580417280.83461,-0.0725108720531011,0.0290531776913099,-0.99293507286183
1580417280.83861,-0.0749523155565726,0.0300297550926985,-0.994399938963912
1580417280.8426,-0.0744640268558783,0.027588311589227,-0.993911650263218
1580417280.84659,-0.0734874494544897,0.0261234454871442,-0.990981918059052
1580417280.85059,-0.070557717250324,0.031006332494087,-0.992446784161135
1580417280.85458,-0.0720225833524069,0.027588311589227,-0.995864805065995
1580417280.85858,-0.0700694285496297,0.0280766002899213,-0.995864805065995
1580417280.86257,-0.0686045624475469,0.0300297550926985,-0.98951705195697
1580417280.86656,-0.070557717250324,0.0324711985961699,-0.983657587548638
1580417280.87056,-0.0700694285496297,0.0383306630045013,-0.990981918059052
1580417280.87455,-0.0720225833524069,0.0407721065079727,-0.987075608453498
1580417280.87855,-0.0695811398489354,0.0388189517051956,-0.986587319752804
1580417280.88254,-0.0710460059510183,0.0358892195010299,-0.990493629358358
1580417280.88653,-0.0715342946517126,0.0339360646982527,-0.995376516365301
1580417280.89053,-0.0725108720531011,0.0349126420996413,-0.992446784161135
1580417280.89452,-0.0729991607537954,0.0349126420996413,-0.991470206759747
1580417280.89852,-0.0734874494544897,0.0319829098954756,-0.987075608453498
1580417280.9025,-0.070557717250324,0.0290531776913099,-0.987075608453498
1580417280.90649,-0.0700694285496297,0.0271000228885327,-0.991958495460441
1580417280.91048,-0.0729991607537954,0.0280766002899213,-0.985610742351415
1580417280.91448,-0.070557717250324,0.0266117341878385,-0.983169298847944
1580417280.91847,-0.0734874494544897,0.027588311589227,-0.984145876249332
1580417280.92247,-0.0744640268558783,0.0305180437933927,-0.985610742351415
1580417280.92646,-0.0734874494544897,0.0324711985961699,-0.990005340657664
1580417280.93045,-0.0725108720531011,0.034424353398947,-0.990981918059052
1580417280.93445,-0.0720225833524069,0.0358892195010299,-0.990005340657664
1580417280.93844,-0.0720225833524069,0.0329594872968642,-0.995376516365301
1580417280.94244,-0.073975738155184,0.0363775082017241,-0.994399938963912
1580417280.94643,-0.073975738155184,0.0393072404058898,-0.988540474555581
1580417280.95042,-0.0729991607537954,0.0388189517051956,-0.993423361562524
1580417280.95442,-0.070557717250324,0.0373540856031127,-0.991958495460441
1580417280.95841,-0.0710460059510183,0.0373540856031127,-0.995864805065995
1580417280.96241,-0.070557717250324,0.034424353398947,-0.993423361562524
1580417280.9664,-0.0759288929579611,0.0314946211947813,-0.994888227664607
1580417280.97039,-0.0778820477607383,0.0251468680857556,-0.990005340657664
1580417280.97439,-0.073975738155184,0.024170290684367,-0.991958495460441
1580417280.97838,-0.0759288929579611,0.0261234454871442,-0.998794537270161
1580417280.98239,-0.0754406042572668,0.0261234454871442,-0.995864805065995
1580417280.98638,-0.0725108720531011,0.0290531776913099,-0.995376516365301
1580417280.99038,-0.0729991607537954,0.031006332494087,-0.992446784161135
1580417280.99437,-0.0710460059510183,0.031006332494087,-0.994399938963912
1580417280.99837,-0.0690928511482412,0.0319829098954756,-0.987563897154192
1580417281.00236,-0.0690928511482412,0.0349126420996413,-0.988052185854887
1580417281.00636,-0.0686045624475469,0.034424353398947,-0.995864805065995
1580417281.01035,-0.0690928511482412,0.0383306630045013,-0.998306248569467
1580417281.01434,-0.0700694285496297,0.0407721065079727,-0.991958495460441
1580417281.01834,-0.0700694285496297,0.0388189517051956,-0.989028763256275
1580417281.02233,-0.070557717250324,0.0358892195010299,-0.98951705195697
1580417281.02632,-0.0720225833524069,0.0349126420996413,-0.987563897154192
1580417281.03032,-0.0725108720531011,0.0334477759975584,-0.988540474555581
1580417281.03431,-0.0715342946517126,0.0324711985961699,-0.993423361562524
1580417281.03831,-0.0700694285496297,0.0300297550926985,-0.994399938963912
1580417281.0423,-0.0720225833524069,0.0295414663920042,-0.993911650263218
1580417281.04629,-0.0725108720531011,0.027588311589227,-0.997817959868772
1580417281.05029,-0.0695811398489354,0.0256351567864499,-0.995376516365301
1580417281.05428,-0.0734874494544897,0.0251468680857556,-0.992446784161135
1580417281.05828,-0.0710460059510183,0.0231937132829785,-0.99635309376669
1580417281.06225,-0.0754406042572668,0.0290531776913099,-0.997329671168078
1580417281.06625,-0.0749523155565726,0.031006332494087,-0.99977111467155
1580417281.07024,-0.0725108720531011,0.0339360646982527,-0.995376516365301
1580417281.07424,-0.0725108720531011,0.0319829098954756,-0.990493629358358
1580417281.07823,-0.0715342946517126,0.0358892195010299,-0.990981918059052
1580417281.08222,-0.073975738155184,0.0354009308003356,-0.988540474555581
1580417281.08622,-0.0734874494544897,0.0358892195010299,-0.990005340657664
1580417281.09021,-0.073975738155184,0.0354009308003356,-0.989028763256275
1580417281.09421,-0.0729991607537954,0.0358892195010299,-0.990005340657664
1580417281.0982,-0.0734874494544897,0.034424353398947,-0.993423361562524
1580417281.1022,-0.0729991607537954,0.031006332494087,-0.98951705195697
1580417281.10619,-0.0734874494544897,0.0373540856031127,-0.990493629358358
1580417281.11018,-0.073975738155184,0.0305180437933927,-0.992446784161135
1580417281.11418,-0.0769054703593497,0.0314946211947813,-0.99293507286183
1580417281.11817,-0.0754406042572668,0.031006332494087,-0.987563897154192
1580417281.12216,-0.0690928511482412,0.031006332494087,-0.986587319752804
1580417281.12616,-0.0759288929579611,0.034424353398947,-0.989028763256275
1580417281.13015,-0.0734874494544897,0.0305180437933927,-0.992446784161135
1580417281.13415,-0.0720225833524069,0.0280766002899213,-0.991958495460441
1580417281.13814,-0.0749523155565726,0.031006332494087,-0.995376516365301
1580417281.14215,-0.0686045624475469,0.0261234454871442,-0.99635309376669
1580417281.14614,-0.0749523155565726,0.0334477759975584,-0.994399938963912
1580417281.15014,-0.070557717250324,0.0349126420996413,-0.994399938963912
1580417281.15413,-0.0622568093385212,0.0319829098954756,-0.993911650263218
1580417281.15813,-0.0710460059510183,0.0363775082017241,-0.987075608453498
1580417281.16212,-0.067139696345464,0.0305180437933927,-0.990005340657664
1580417281.16611,-0.073975738155184,0.0261234454871442,-0.994399938963912
1580417281.17011,-0.0783703364614325,0.031006332494087,-0.998794537270161
1580417281.1741,-0.0764171816586554,0.0329594872968642,-0.99977111467155
1580417281.1781,-0.0788586251621268,0.0339360646982527,-0.994399938963912
1580417281.18209,-0.0754406042572668,0.0358892195010299,-0.98951705195697
1580417281.18608,-0.0749523155565726,0.0373540856031127,-0.987075608453498
1580417281.19008,-0.0754406042572668,0.0339360646982527,-0.987075608453498
1580417281.19407,-0.0764171816586554,0.0349126420996413,-0.983169298847944
1580417281.19807,-0.077393759060044,0.0300297550926985,-0.984634164950027
1580417281.20206,-0.0725108720531011,0.0280766002899213,-0.985610742351415
1580417281.20605,-0.0744640268558783,0.0300297550926985,-0.98609903105211
1580417281.21005,-0.0759288929579611,0.0251468680857556,-0.986587319752804
1580417281.21404,-0.0749523155565726,0.0246585793850613,-0.990005340657664
1580417281.21804,-0.0715342946517126,0.0231937132829785,-0.990981918059052
1580417281.22201,-0.0729991607537954,0.0217288471808956,-0.99293507286183
1580417281.22601,-0.0734874494544897,0.0256351567864499,-0.988540474555581
1580417281.23,-0.0700694285496297,0.0324711985961699,-0.991470206759747
1580417281.234,-0.0710460059510183,0.0251468680857556,-0.996841382467384
1580417281.23799,-0.0632333867399097,0.0388189517051956,-0.995376516365301
1580417281.24198,-0.067139696345464,0.0349126420996413,-0.994888227664607
1580417281.24598,-0.0715342946517126,0.0358892195010299,-0.992446784161135
1580417281.24997,-0.0729991607537954,0.0393072404058898,-0.99635309376669
1580417281.25397,-0.0720225833524069,0.0383306630045013,-0.995864805065995
1580417281.25796,-0.0734874494544897,0.0373540856031127,-0.995376516365301
1580417281.26196,-0.0729991607537954,0.0368657969024184,-0.997329671168078
1580417281.26595,-0.0710460059510183,0.0339360646982527,-0.99635309376669
1580417281.26994,-0.0715342946517126,0.0300297550926985,-0.992446784161135
1580417281.27394,-0.0700694285496297,0.0285648889906156,-0.987075608453498
1580417281.27793,-0.0710460059510183,0.0236820019836728,-0.988052185854887
1580417281.28192,-0.0715342946517126,0.0236820019836728,-0.987563897154192
1580417281.28592,-0.0734874494544897,0.0222171358815899,-0.993423361562524
1580417281.28991,-0.0715342946517126,0.024170290684367,-0.997329671168078
