Timestamp_seconds,Gyro_X_s,Gyro_Y_s,Gyro_Z_s
1580417274.85959,1.19020370794237,-0.0305180437933359,0.457770656900948
1580417274.86359,1.12916762035547,0.152590218966907,0.457770656900948
1580417274.86758,1.19020370794237,0.152590218966907,0.457770656900948
1580417274.87157,1.25123979552905,0.152590218966907,0.51880674448762
1580417274.87557,1.12916762035547,0.152590218966907,0.457770656900948
1580417274.87956,1.0070954451819,0.091554131380235,0.457770656900948
1580417274.88356,1.0070954451819,0.091554131380235,0.457770656900948
1580417274.88755,1.0681315327688,0.0305180437933359,0.335698481727377
1580417274.89154,1.0681315327688,0.091554131380235,0.51880674448762
1580417274.89554,1.19020370794237,-0.0305180437933359,0.51880674448762
1580417274.89953,1.19020370794237,0.152590218966907,0.51880674448762
1580417274.90353,1.25123979552905,0.091554131380235,0.457770656900948
1580417274.90752,1.12916762035547,0.213626306553806,0.457770656900948
1580417274.91153,1.0681315327688,0.091554131380235,0.457770656900948
1580417274.91552,1.12916762035547,0.091554131380235,0.335698481727377
1580417274.91952,1.12916762035547,0.091554131380235,0.396734569314049
1580417274.92351,1.19020370794237,0.0305180437933359,0.457770656900948
1580417274.92751,1.12916762035547,0.0305180437933359,0.51880674448762
1580417274.9315,1.12916762035547,-0.0305180437933359,0.396734569314049
1580417274.93549,1.12916762035547,0.091554131380235,0.396734569314049
1580417274.93949,1.12916762035547,0.0305180437933359,0.457770656900948
1580417274.94348,1.12916762035547,-0.0305180437933359,0.457770656900948
1580417274.94747,1.0681315327688,0.091554131380235,0.457770656900948
1580417274.95147,0.946059357595232,0.0305180437933359,0.396734569314049
1580417274.95546,1.19020370794237,-0.091554131380235,0.457770656900948
1580417274.95946,1.25123979552905,-0.0305180437933359,0.396734569314049
1580417274.96345,1.19020370794237,-0.0305180437933359,0.335698481727377
1580417274.96744,1.12916762035547,-0.0305180437933359,0.396734569314049
1580417274.97144,1.12916762035547,-0.152590218966907,0.51880674448762
1580417274.97543,1.25123979552905,-0.091554131380235,0.457770656900948
1580417274.97943,1.25123979552905,-0.091554131380235,0.335698481727377
1580417274.98342,1.25123979552905,-0.0305180437933359,0.457770656900948
1580417274.98741,1.19020370794237,-0.0305180437933359,0.457770656900948
1580417274.99139,1.25123979552905,-0.0305180437933359,0.396734569314049
1580417274.99539,1.0681315327688,-0.0305180437933359,0.335698481727377
1580417274.99938,1.0681315327688,-0.152590218966907,0.396734569314049
1580417275.00338,1.12916762035547,-0.091554131380235,0.51880674448762
1580417275.00737,1.12916762035547,-0.0305180437933359,0.457770656900948
1580417275.01136,1.25123979552905,-0.091554131380235,0.457770656900948
1580417275.01536,1.25123979552905,-0.0305180437933359,0.457770656900948
1580417275.01935,1.25123979552905,-0.091554131380235,0.335698481727377
1580417275.02335,1.31227588311594,0.091554131380235,0.457770656900948
1580417275.02734,1.12916762035547,0.0305180437933359,0.396734569314049
1580417275.03133,1.0681315327688,-0.091554131380235,0.457770656900948
1580417275.03533,1.0681315327688,-0.0305180437933359,0.579842832074519
1580417275.03932,1.0681315327688,0.0305180437933359,0.51880674448762
1580417275.04332,1.0681315327688,-0.0305180437933359,0.335698481727377
1580417275.04731,1.19020370794237,-0.0305180437933359,0.335698481727377
1580417275.0513,1.25123979552905,-0.0305180437933359,0.396734569314049
1580417275.0553,1.12916762035547,-0.0305180437933359,0.335698481727377
1580417275.05929,1.0681315327688,0.091554131380235,0.396734569314049
1580417275.06328,1.19020370794237,0.0305180437933359,0.579842832074519
1580417275.06728,1.25123979552905,-0.0305180437933359,0.579842832074519
1580417275.07129,1.19020370794237,0.0305180437933359,0.396734569314049
1580417275.07528,1.19020370794237,0.091554131380235,0.335698481727377
1580417275.07928,1.19020370794237,0.091554131380235,0.51880674448762
1580417275.08327,1.12916762035547,0.0305180437933359,0.335698481727377
1580417275.08727,1.19020370794237,0.0305180437933359,0.396734569314049
1580417275.09126,1.0681315327688,-0.091554131380235,0.457770656900948
1580417275.09525,1.19020370794237,-0.0305180437933359,0.579842832074519
1580417275.09925,1.25123979552905,-0.0305180437933359,0.457770656900948
1580417275.10324,1.19020370794237,-0.0305180437933359,0.457770656900948
1580417275.10723,1.19020370794237,0.0305180437933359,0.51880674448762
1580417275.11123,1.31227588311594,0.0305180437933359,0.51880674448762
1580417275.11522,1.12916762035547,0.0305180437933359,0.51880674448762
1580417275.11922,1.19020370794237,0.0305180437933359,0.274662394140478
1580417275.12321,1.31227588311594,0.091554131380235,0.396734569314049
1580417275.1272,1.31227588311594,-0.0305180437933359,0.51880674448762
1580417275.1312,1.19020370794237,0.0305180437933359,0.579842832074519
1580417275.13519,1.19020370794237,0.091554131380235,0.457770656900948
1580417275.13919,1.25123979552905,0.0305180437933359,0.457770656900948
1580417275.14318,1.12916762035547,0.091554131380235,0.396734569314049
1580417275.14717,1.12916762035547,-0.0305180437933359,0.335698481727377
1580417275.15115,1.19020370794237,-0.0305180437933359,0.51880674448762
1580417275.15515,1.19020370794237,0.091554131380235,0.579842832074519
1580417275.15914,1.19020370794237,0.091554131380235,0.396734569314049
1580417275.16313,1.0681315327688,0.091554131380235,0.335698481727377
1580417275.16713,1.12916762035547,-0.0305180437933359,0.396734569314049
1580417275.17112,1.19020370794237,0.0305180437933359,0.396734569314049
1580417275.17512,1.31227588311594,-0.091554131380235,0.457770656900948
1580417275.17911,1.37331197070262,-0.0305180437933359,0.396734569314049
1580417275.1831,1.12916762035547,-0.091554131380235,0.457770656900948
1580417275.1871,1.19020370794237,-0.0305180437933359,0.457770656900948
1580417275.19109,1.25123979552905,0.0305180437933359,0.457770656900948
1580417275.19509,1.31227588311594,0.0305180437933359,0.579842832074519
1580417275.19908,1.37331197070262,0.091554131380235,0.457770656900948
1580417275.20307,1.31227588311594,0.0305180437933359,0.396734569314049
1580417275.20707,1.19020370794237,0.091554131380235,0.396734569314049
1580417275.21106,1.25123979552905,-0.0305180437933359,0.51880674448762
1580417275.21506,1.12916762035547,-0.0305180437933359,0.457770656900948
1580417275.21905,1.12916762035547,0.0305180437933359,0.51880674448762
1580417275.22304,1.19020370794237,0.0305180437933359,0.396734569314049
1580417275.22704,1.19020370794237,-0.091554131380235,0.396734569314049
1580417275.23105,1.19020370794237,0.0305180437933359,0.457770656900948
1580417275.23504,1.31227588311594,0.091554131380235,0.457770656900948
1580417275.23904,1.12916762035547,0.0305180437933359,0.457770656900948
1580417275.24303,1.12916762035547,-0.091554131380235,0.51880674448762
1580417275.24702,1.25123979552905,0.0305180437933359,0.457770656900948
1580417275.25102,1.25123979552905,-0.0305180437933359,0.335698481727377
1580417275.25501,1.0681315327688,0.0305180437933359,0.396734569314049
1580417275.25901,1.31227588311594,0.091554131380235,0.457770656900948
1580417275.263,1.25123979552905,0.0305180437933359,0.396734569314049
1580417275.26699,1.12916762035547,0.152590218966907,0.457770656900948
1580417275.27099,1.12916762035547,-0.0305180437933359,0.396734569314049
1580417275.27498,1.25123979552905,0.0305180437933359,0.335698481727377
1580417275.27898,1.19020370794237,0.091554131380235,0.396734569314049
1580417275.28297,1.19020370794237,-0.0305180437933359,0.396734569314049
1580417275.28696,1.31227588311594,0.091554131380235,0.457770656900948
1580417275.29096,1.19020370794237,0.0305180437933359,0.51880674448762
1580417275.29495,1.12916762035547,0.0305180437933359,0.457770656900948
1580417275.29895,1.12916762035547,0.091554131380235,0.396734569314049
1580417275.30294,1.19020370794237,0.0305180437933359,0.51880674448762
1580417275.30693,1.19020370794237,-0.0305180437933359,0.51880674448762
1580417275.31091,1.25123979552905,-0.0305180437933359,0.457770656900948
1580417275.31491,1.12916762035547,-0.0305180437933359,0.396734569314049
1580417275.3189,1.19020370794237,0.0305180437933359,0.457770656900948
1580417275.32289,1.31227588311594,-0.0305180437933359,0.457770656900948
1580417275.32689,1.37331197070262,-0.091554131380235,0.457770656900948
1580417275.33088,1.25123979552905,0.0305180437933359,0.457770656900948
1580417275.33488,1.25123979552905,0.0305180437933359,0.396734569314049
1580417275.33887,1.25123979552905,-0.0305180437933359,0.457770656900948
1580417275.34286,1.37331197070262,-0.0305180437933359,0.335698481727377
1580417275.34686,1.31227588311594,0.091554131380235,0.396734569314049
1580417275.35085,1.37331197070262,-0.0305180437933359,0.51880674448762
1580417275.35485,1.43434805828952,-0.0305180437933359,0.335698481727377
1580417275.35884,1.25123979552905,-0.0305180437933359,0.457770656900948
1580417275.36283,1.25123979552905,0.091554131380235,0.396734569314049
1580417275.36683,1.25123979552905,0.0305180437933359,0.396734569314049
1580417275.37082,1.25123979552905,-0.0305180437933359,0.457770656900948
1580417275.37482,1.12916762035547,-0.0305180437933359,0.457770656900948
1580417275.37881,1.19020370794237,0.0305180437933359,0.457770656900948
1580417275.3828,1.25123979552905,-0.0305180437933359,0.457770656900948
1580417275.3868,1.25123979552905,0.0305180437933359,0.396734569314049
1580417275.39081,1.25123979552905,0.152590218966907,0.396734569314049
1580417275.3948,1.19020370794237,0.091554131380235,0.396734569314049
1580417275.3988,1.25123979552905,0.0305180437933359,0.396734569314049
1580417275.40279,1.37331197070262,0.0305180437933359,0.396734569314049
1580417275.40678,1.25123979552905,0.091554131380235,0.396734569314049
1580417275.41078,1.31227588311594,0.0305180437933359,0.457770656900948
1580417275.41477,1.19020370794237,-0.0305180437933359,0.51880674448762
1580417275.41877,1.19020370794237,0.0305180437933359,0.51880674448762
1580417275.42276,1.31227588311594,-0.0305180437933359,0.51880674448762
1580417275.42675,1.37331197070262,0.091554131380235,0.51880674448762
1580417275.43075,1.19020370794237,0.091554131380235,0.51880674448762
1580417275.43474,1.31227588311594,0.091554131380235,0.51880674448762
1580417275.43874,1.31227588311594,0.0305180437933359,0.51880674448762
1580417275.44273,1.31227588311594,0.0305180437933359,0.396734569314049
1580417275.44672,1.31227588311594,0.0305180437933359,0.51880674448762
1580417275.45072,1.37331197070262,0.0305180437933359,0.51880674448762
1580417275.45471,1.12916762035547,0.0305180437933359,0.51880674448762
1580417275.45871,1.31227588311594,0.0305180437933359,0.51880674448762
1580417275.4627,1.31227588311594,0.0305180437933359,0.51880674448762
1580417275.46669,1.37331197070262,0.091554131380235,0.457770656900948
1580417275.47067,1.31227588311594,0.152590218966907,0.51880674448762
1580417275.47467,1.31227588311594,0.091554131380235,0.51880674448762
1580417275.47866,1.19020370794237,0.091554131380235,0.457770656900948
1580417275.48265,1.19020370794237,0.091554131380235,0.51880674448762
1580417275.48665,1.19020370794237,0.091554131380235,0.51880674448762
1580417275.49064,1.25123979552905,0.0305180437933359,0.396734569314049
1580417275.49464,1.19020370794237,0.0305180437933359,0.457770656900948
1580417275.49863,1.19020370794237,-0.091554131380235,0.51880674448762
1580417275.50262,1.25123979552905,-0.0305180437933359,0.396734569314049
1580417275.50662,1.31227588311594,0.0305180437933359,0.335698481727377
1580417275.51061,1.25123979552905,-0.091554131380235,0.457770656900948
1580417275.51461,1.31227588311594,-0.0305180437933359,0.396734569314049
1580417275.5186,1.31227588311594,-0.0305180437933359,0.457770656900948
1580417275.52259,1.31227588311594,-0.0305180437933359,0.51880674448762
1580417275.52659,1.37331197070262,0.0305180437933359,0.396734569314049
1580417275.53058,1.31227588311594,0.0305180437933359,0.51880674448762
1580417275.53458,1.25123979552905,0.0305180437933359,0.457770656900948
1580417275.53857,1.31227588311594,-0.091554131380235,0.457770656900948
1580417275.54256,1.31227588311594,-0.0305180437933359,0.396734569314049
1580417275.54656,1.25123979552905,0.0305180437933359,0.396734569314049
1580417275.55057,1.25123979552905,0.0305180437933359,0.396734569314049
1580417275.55456,1.31227588311594,-0.091554131380235,0.396734569314049
1580417275.55855,1.31227588311594,-0.0305180437933359,0.335698481727377
1580417275.56255,1.43434805828952,-0.0305180437933359,0.396734569314049
1580417275.56654,1.31227588311594,-0.0305180437933359,0.396734569314049
1580417275.57054,1.31227588311594,-0.0305180437933359,0.51880674448762
1580417275.57453,1.12916762035547,0.0305180437933359,0.396734569314049
1580417275.57852,1.0681315327688,0.0305180437933359,0.457770656900948
1580417275.58252,1.31227588311594,0.091554131380235,0.335698481727377
1580417275.58651,1.31227588311594,0.0305180437933359,0.396734569314049
1580417275.59051,1.31227588311594,-0.0305180437933359,0.457770656900948
1580417275.5945,1.25123979552905,0.0305180437933359,0.457770656900948
1580417275.5985,1.25123979552905,-0.0305180437933359,0.396734569314049
1580417275.60249,1.25123979552905,-0.0305180437933359,0.51880674448762
1580417275.60648,1.37331197070262,0.0305180437933359,0.51880674448762
1580417275.61048,1.37331197070262,-0.091554131380235,0.457770656900948
1580417275.61447,1.49538414587619,-0.0305180437933359,0.457770656900948
1580417275.61846,1.49538414587619,-0.0305180437933359,0.51880674448762
1580417275.62246,1.43434805828952,0.0305180437933359,0.51880674448762
1580417275.62645,1.37331197070262,-0.0305180437933359,0.457770656900948
1580417275.63043,1.25123979552905,0.0305180437933359,0.396734569314049
1580417275.63443,1.25123979552905,-0.0305180437933359,0.457770656900948
1580417275.63842,1.25123979552905,0.0305180437933359,0.274662394140478
1580417275.64241,1.31227588311594,0.091554131380235,0.457770656900948
1580417275.64641,1.25123979552905,0.091554131380235,0.457770656900948
1580417275.6504,1.37331197070262,-0.0305180437933359,0.51880674448762
1580417275.6544,1.25123979552905,0.0305180437933359,0.457770656900948
1580417275.65839,1.25123979552905,-0.0305180437933359,0.51880674448762
1580417275.66238,1.25123979552905,-0.0305180437933359,0.457770656900948
1580417275.66638,1.19020370794237,0.091554131380235,0.457770656900948
1580417275.67037,1.25123979552905,0.152590218966907,0.335698481727377
1580417275.67437,1.25123979552905,0.091554131380235,0.396734569314049
1580417275.67836,1.25123979552905,0.091554131380235,0.396734569314049
1580417275.68235,1.25123979552905,0.091554131380235,0.457770656900948
1580417275.68635,1.31227588311594,0.0305180437933359,0.396734569314049
1580417275.69034,1.19020370794237,0.091554131380235,0.51880674448762
1580417275.69434,1.19020370794237,0.152590218966907,0.396734569314049
1580417275.69833,1.25123979552905,-0.0305180437933359,0.396734569314049
1580417275.70232,1.19020370794237,-0.0305180437933359,0.335698481727377
1580417275.70632,1.12916762035547,0.091554131380235,0.396734569314049
1580417275.71033,1.12916762035547,0.0305180437933359,0.51880674448762
1580417275.71432,1.12916762035547,0.0305180437933359,0.396734569314049
1580417275.71831,1.12916762035547,0.0305180437933359,0.335698481727377
1580417275.72231,1.19020370794237,0.091554131380235,0.396734569314049
1580417275.7263,1.19020370794237,0.091554131380235,0.51880674448762
1580417275.7303,1.19020370794237,0.152590218966907,0.396734569314049
1580417275.73429,1.19020370794237,0.091554131380235,0.335698481727377
1580417275.73828,1.37331197070262,0.091554131380235,0.335698481727377
1580417275.74228,1.31227588311594,-0.0305180437933359,0.457770656900948
1580417275.74627,1.31227588311594,0.0305180437933359,0.396734569314049
1580417275.75027,1.31227588311594,-0.0305180437933359,0.457770656900948
1580417275.75426,1.25123979552905,-0.0305180437933359,0.396734569314049
1580417275.75826,1.37331197070262,-0.0305180437933359,0.396734569314049
1580417275.76225,1.31227588311594,0.0305180437933359,0.51880674448762
1580417275.76624,1.37331197070262,-0.0305180437933359,0.640878919661191
1580417275.77024,1.37331197070262,-0.091554131380235,0.396734569314049
1580417275.77423,1.25123979552905,-0.152590218966907,0.396734569314049
1580417275.77822,1.31227588311594,-0.091554131380235,0.396734569314049
1580417275.78222,1.25123979552905,-0.152590218966907,0.457770656900948
1580417275.78621,1.19020370794237,-0.091554131380235,0.396734569314049
1580417275.79019,1.25123979552905,0.0305180437933359,0.396734569314049
1580417275.79418,1.31227588311594,-0.0305180437933359,0.396734569314049
1580417275.79818,1.31227588311594,-0.091554131380235,0.396734569314049
1580417275.80217,1.31227588311594,-0.091554131380235,0.51880674448762
1580417275.80617,1.37331197070262,-0.091554131380235,0.457770656900948
1580417275.81016,1.19020370794237,-0.0305180437933359,0.457770656900948
1580417275.81415,1.31227588311594,-0.0305180437933359,0.396734569314049
1580417275.81815,1.31227588311594,-0.091554131380235,0.396734569314049
1580417275.82214,1.31227588311594,-0.0305180437933359,0.396734569314049
1580417275.82614,1.31227588311594,-0.091554131380235,0.396734569314049
1580417275.83013,1.25123979552905,0.0305180437933359,0.457770656900948
1580417275.83413,1.25123979552905,0.0305180437933359,0.51880674448762
1580417275.83812,1.31227588311594,-0.091554131380235,0.457770656900948
1580417275.84211,1.31227588311594,-0.0305180437933359,0.396734569314049
1580417275.84611,1.25123979552905,0.0305180437933359,0.396734569314049
1580417275.8501,1.25123979552905,-0.091554131380235,0.396734569314049
1580417275.85409,1.37331197070262,-0.0305180437933359,0.51880674448762
1580417275.85809,1.25123979552905,0.091554131380235,0.457770656900948
1580417275.86208,1.19020370794237,-0.0305180437933359,0.457770656900948
1580417275.86608,1.19020370794237,-0.0305180437933359,0.51880674448762
1580417275.87006,1.12916762035547,0.091554131380235,0.396734569314049
1580417275.87405,1.19020370794237,0.0305180437933359,0.457770656900948
1580417275.87804,1.31227588311594,0.0305180437933359,0.457770656900948
1580417275.88204,1.19020370794237,0.091554131380235,0.457770656900948
1580417275.88603,1.19020370794237,0.091554131380235,0.457770656900948
1580417275.89003,1.19020370794237,0.0305180437933359,0.335698481727377
1580417275.89402,1.19020370794237,0.152590218966907,0.457770656900948
1580417275.89801,1.25123979552905,0.152590218966907,0.396734569314049
1580417275.90201,1.19020370794237,0.0305180437933359,0.457770656900948
1580417275.906,1.31227588311594,0.091554131380235,0.396734569314049
1580417275.91,1.12916762035547,-0.0305180437933359,0.51880674448762
1580417275.91399,1.19020370794237,0.0305180437933359,0.457770656900948
1580417275.91798,1.25123979552905,0.0305180437933359,0.579842832074519
1580417275.92198,1.25123979552905,0.091554131380235,0.51880674448762
1580417275.92597,1.25123979552905,0.091554131380235,0.457770656900948
1580417275.92997,1.25123979552905,-0.091554131380235,0.457770656900948
1580417275.93396,1.31227588311594,-0.0305180437933359,0.51880674448762
1580417275.93795,1.37331197070262,0.152590218966907,0.396734569314049
1580417275.94195,1.25123979552905,0.0305180437933359,0.457770656900948
1580417275.94594,1.25123979552905,0.0305180437933359,0.457770656900948
1580417275.94995,1.31227588311594,-0.0305180437933359,0.457770656900948
1580417275.95394,1.25123979552905,0.091554131380235,0.457770656900948
1580417275.95794,1.25123979552905,0.0305180437933359,0.51880674448762
1580417275.96193,1.37331197070262,-0.0305180437933359,0.457770656900948
1580417275.96593,1.43434805828952,0.0305180437933359,0.396734569314049
1580417275.96992,1.43434805828952,-0.0305180437933359,0.457770656900948
1580417275.97391,1.49538414587619,-0.152590218966907,0.396734569314049
1580417275.97791,1.37331197070262,0.0305180437933359,0.396734569314049
1580417275.9819,1.43434805828952,-0.091554131380235,0.335698481727377
1580417275.9859,1.37331197070262,-0.091554131380235,0.51880674448762
1580417275.98989,1.43434805828952,0.0305180437933359,0.396734569314049
1580417275.99389,1.43434805828952,-0.0305180437933359,0.457770656900948
1580417275.99788,1.31227588311594,-0.0305180437933359,0.335698481727377
1580417276.00187,1.49538414587619,-0.091554131380235,0.335698481727377
1580417276.00587,1.37331197070262,-0.152590218966907,0.51880674448762
1580417276.00986,1.37331197070262,-0.091554131380235,0.396734569314049
1580417276.01385,1.43434805828952,-0.091554131380235,0.335698481727377
1580417276.01785,1.49538414587619,-0.0305180437933359,0.457770656900948
1580417276.02184,1.25123979552905,-0.0305180437933359,0.457770656900948
1580417276.02584,1.37331197070262,-0.091554131380235,0.579842832074519
1580417276.02981,1.43434805828952,-0.091554131380235,0.335698481727377
1580417276.03381,1.43434805828952,-0.0305180437933359,0.335698481727377
1580417276.0378,1.31227588311594,0.0305180437933359,0.51880674448762
1580417276.0418,1.37331197070262,-0.0305180437933359,0.457770656900948
1580417276.04579,1.49538414587619,-0.0305180437933359,0.51880674448762
1580417276.04978,1.31227588311594,-0.091554131380235,0.51880674448762
1580417276.05378,1.43434805828952,-0.0305180437933359,0.396734569314049
1580417276.05777,1.37331197070262,-0.0305180437933359,0.396734569314049
1580417276.06177,1.49538414587619,-0.091554131380235,0.396734569314049
1580417276.06576,1.43434805828952,-0.091554131380235,0.396734569314049
1580417276.06975,1.49538414587619,-0.152590218966907,0.579842832074519
1580417276.07375,1.55642023346309,-0.152590218966907,0.51880674448762
1580417276.07774,1.55642023346309,-0.091554131380235,0.457770656900948
1580417276.08174,1.49538414587619,-0.213626306553806,0.335698481727377
1580417276.08573,1.49538414587619,-0.213626306553806,0.274662394140478
1580417276.08973,1.55642023346309,-0.152590218966907,0.396734569314049
1580417276.09372,1.43434805828952,-0.0305180437933359,0.335698481727377
1580417276.09771,1.55642023346309,-0.0305180437933359,0.335698481727377
1580417276.10171,1.55642023346309,-0.152590218966907,0.396734569314049
1580417276.1057,1.73952849622333,-0.152590218966907,0.396734569314049
1580417276.10971,1.61745632104976,-0.213626306553806,0.396734569314049
1580417276.1137,1.61745632104976,-0.213626306553806,0.457770656900948
1580417276.1177,1.67849240863666,-0.152590218966907,0.457770656900948
1580417276.12169,1.55642023346309,-0.152590218966907,0.457770656900948
1580417276.12569,1.55642023346309,-0.274662394140478,0.457770656900948
1580417276.12968,1.67849240863666,-0.274662394140478,0.396734569314049
1580417276.13367,1.67849240863666,-0.091554131380235,0.396734569314049
1580417276.13767,1.55642023346309,-0.213626306553806,0.396734569314049
1580417276.14166,1.43434805828952,-0.091554131380235,0.51880674448762
1580417276.14566,1.43434805828952,-0.0305180437933359,0.396734569314049
1580417276.14965,1.49538414587619,-0.0305180437933359,0.396734569314049
1580417276.15364,1.49538414587619,-0.0305180437933359,0.457770656900948
1580417276.15764,1.55642023346309,-0.091554131380235,0.51880674448762
1580417276.16163,1.61745632104976,-0.0305180437933359,0.396734569314049
1580417276.16563,1.61745632104976,-0.0305180437933359,0.396734569314049
1580417276.16962,1.61745632104976,-0.0305180437933359,0.396734569314049
1580417276.17361,1.55642023346309,-0.152590218966907,0.335698481727377
1580417276.17761,1.55642023346309,-0.0305180437933359,0.396734569314049
1580417276.1816,1.67849240863666,-0.091554131380235,0.457770656900948
1580417276.1856,1.49538414587619,-0.091554131380235,0.51880674448762
1580417276.18957,1.37331197070262,-0.091554131380235,0.457770656900948
1580417276.19357,1.37331197070262,-0.213626306553806,0.51880674448762
1580417276.19756,1.49538414587619,-0.091554131380235,0.51880674448762
1580417276.20156,1.55642023346309,-0.0305180437933359,0.457770656900948
1580417276.20555,1.43434805828952,-0.091554131380235,0.457770656900948
1580417276.20954,1.49538414587619,0.0305180437933359,0.335698481727377
1580417276.21354,1.43434805828952,0.0305180437933359,0.335698481727377
1580417276.21753,1.43434805828952,0.213626306553806,0.457770656900948
1580417276.22153,1.49538414587619,0.091554131380235,0.396734569314049
1580417276.22552,1.43434805828952,0.0305180437933359,0.396734569314049
1580417276.22951,1.43434805828952,0.0305180437933359,0.335698481727377
1580417276.23351,1.49538414587619,-0.0305180437933359,0.457770656900948
1580417276.2375,1.49538414587619,-0.152590218966907,0.457770656900948
1580417276.2415,1.49538414587619,-0.091554131380235,0.396734569314049
1580417276.24549,1.55642023346309,-0.0305180437933359,0.335698481727377
1580417276.24949,1.61745632104976,0.0305180437933359,0.396734569314049
1580417276.25348,1.49538414587619,0.152590218966907,0.396734569314049
1580417276.25747,1.55642023346309,0.091554131380235,0.396734569314049
1580417276.26147,1.8616006713969,0.0305180437933359,0.396734569314049
1580417276.26546,1.80056458381023,-0.091554131380235,0.396734569314049
1580417276.26947,1.98367284657047,-0.152590218966907,0.457770656900948
1580417276.27346,1.80056458381023,-0.0305180437933359,0.335698481727377
1580417276.27746,1.80056458381023,-0.091554131380235,0.396734569314049
1580417276.28145,1.8616006713969,-0.091554131380235,0.396734569314049
1580417276.28545,1.8616006713969,-0.0305180437933359,0.457770656900948
1580417276.28944,1.80056458381023,-0.0305180437933359,0.335698481727377
1580417276.29343,1.61745632104976,-0.0305180437933359,0.335698481727377
1580417276.29743,1.55642023346309,0.0305180437933359,0.335698481727377
1580417276.30142,1.37331197070262,0.0305180437933359,0.457770656900948
1580417276.30542,1.25123979552905,0.091554131380235,0.579842832074519
1580417276.30941,1.19020370794237,0.0305180437933359,0.457770656900948
1580417276.3134,1.25123979552905,0.0305180437933359,0.335698481727377
1580417276.3174,1.37331197070262,-0.091554131380235,0.335698481727377
1580417276.32139,1.31227588311594,-0.213626306553806,0.335698481727377
1580417276.32539,1.31227588311594,-0.213626306553806,0.396734569314049
1580417276.32938,1.43434805828952,-0.396734569314049,0.396734569314049
1580417276.33337,1.61745632104976,-0.457770656900948,0.457770656900948
1580417276.33737,1.61745632104976,-0.457770656900948,0.457770656900948
1580417276.34136,1.61745632104976,-0.335698481727377,0.274662394140478
1580417276.34536,1.61745632104976,-0.335698481727377,0.457770656900948
1580417276.34933,1.67849240863666,-0.274662394140478,0.457770656900948
1580417276.35333,1.67849240863666,-0.152590218966907,0.335698481727377
1580417276.35732,1.55642023346309,0.0305180437933359,0.335698481727377
1580417276.36132,1.55642023346309,-0.0305180437933359,0.396734569314049
1580417276.36531,1.49538414587619,-0.0305180437933359,0.335698481727377
1580417276.3693,1.19020370794237,0.091554131380235,0.51880674448762
1580417276.3733,1.19020370794237,0.091554131380235,0.457770656900948
1580417276.37729,1.0070954451819,0.0305180437933359,0.457770656900948
1580417276.38129,1.12916762035547,0.0305180437933359,0.396734569314049
1580417276.38528,1.19020370794237,-0.091554131380235,0.457770656900948
1580417276.38927,1.37331197070262,0.0305180437933359,0.51880674448762
1580417276.39327,1.49538414587619,-0.0305180437933359,0.51880674448762
1580417276.39726,1.37331197070262,-0.091554131380235,0.457770656900948
1580417276.40126,1.67849240863666,-0.091554131380235,0.335698481727377
1580417276.40525,1.8616006713969,-0.091554131380235,0.396734569314049
1580417276.40924,1.9226367589838,-0.152590218966907,0.396734569314049
1580417276.41324,1.80056458381023,-0.274662394140478,0.274662394140478
1580417276.41723,1.9226367589838,-0.091554131380235,0.396734569314049
1580417276.42123,1.8616006713969,-0.213626306553806,0.457770656900948
1580417276.42522,1.73952849622333,-0.152590218966907,0.396734569314049
1580417276.42923,1.73952849622333,-0.152590218966907,0.335698481727377
1580417276.43322,1.61745632104976,-0.152590218966907,0.51880674448762
1580417276.43722,1.67849240863666,-0.091554131380235,0.579842832074519
1580417276.44121,1.67849240863666,0.0305180437933359,0.51880674448762
1580417276.4452,1.49538414587619,0.091554131380235,0.396734569314049
1580417276.4492,1.61745632104976,0.0305180437933359,0.335698481727377
1580417276.45319,1.49538414587619,0.0305180437933359,0.51880674448762
1580417276.45719,1.31227588311594,0.091554131380235,0.457770656900948
1580417276.46118,1.37331197070262,0.0305180437933359,0.457770656900948
1580417276.46517,1.37331197070262,-0.0305180437933359,0.396734569314049
1580417276.46917,1.49538414587619,-0.091554131380235,0.396734569314049
1580417276.47316,1.49538414587619,0.0305180437933359,0.396734569314049
1580417276.47716,1.49538414587619,-0.091554131380235,0.396734569314049
1580417276.48115,1.55642023346309,-0.091554131380235,0.457770656900948
1580417276.48514,1.67849240863666,-0.0305180437933359,0.457770656900948
1580417276.48914,1.67849240863666,-0.0305180437933359,0.51880674448762
1580417276.49313,1.73952849622333,-0.091554131380235,0.579842832074519
1580417276.49713,1.8616006713969,-0.091554131380235,0.457770656900948
1580417276.50112,1.9226367589838,-0.091554131380235,0.51880674448762
1580417276.50512,1.8616006713969,-0.0305180437933359,0.457770656900948
1580417276.50909,1.73952849622333,-0.091554131380235,0.51880674448762
1580417276.51309,1.61745632104976,0.0305180437933359,0.396734569314049
1580417276.51708,1.61745632104976,0.0305180437933359,0.457770656900948
1580417276.52108,1.61745632104976,0.0305180437933359,0.457770656900948
1580417276.52507,1.55642023346309,0.0305180437933359,0.457770656900948
1580417276.52906,1.55642023346309,-0.0305180437933359,0.396734569314049
1580417276.53306,1.49538414587619,-0.152590218966907,0.457770656900948
1580417276.53705,1.49538414587619,-0.0305180437933359,0.457770656900948
1580417276.54105,1.61745632104976,-0.0305180437933359,0.396734569314049
1580417276.54504,1.67849240863666,-0.091554131380235,0.396734569314049
1580417276.54903,1.73952849622333,-0.152590218966907,0.396734569314049
1580417276.55303,1.61745632104976,-0.152590218966907,0.457770656900948
1580417276.55702,1.67849240863666,-0.335698481727377,0.396734569314049
1580417276.56102,1.80056458381023,-0.213626306553806,0.457770656900948
1580417276.56501,1.67849240863666,-0.152590218966907,0.396734569314049
1580417276.569,1.61745632104976,-0.213626306553806,0.335698481727377
1580417276.573,1.49538414587619,-0.091554131380235,0.396734569314049
1580417276.57699,1.49538414587619,-0.152590218966907,0.457770656900948
1580417276.58099,1.43434805828952,-0.213626306553806,0.457770656900948
1580417276.58498,1.49538414587619,-0.091554131380235,0.51880674448762
1580417276.58899,1.43434805828952,-0.091554131380235,0.51880674448762
1580417276.59298,1.43434805828952,-0.091554131380235,0.51880674448762
1580417276.59698,1.49538414587619,-0.152590218966907,0.396734569314049
1580417276.60097,1.37331197070262,-0.091554131380235,0.457770656900948
1580417276.60496,1.37331197070262,-0.152590218966907,0.396734569314049
1580417276.60896,1.37331197070262,-0.091554131380235,0.579842832074519
1580417276.61295,1.37331197070262,-0.152590218966907,0.457770656900948
1580417276.61695,1.37331197070262,-0.213626306553806,0.335698481727377
1580417276.62094,1.49538414587619,-0.213626306553806,0.457770656900948
1580417276.62493,1.61745632104976,-0.152590218966907,0.51880674448762
1580417276.62893,1.55642023346309,-0.091554131380235,0.335698481727377
1580417276.63292,1.49538414587619,-0.0305180437933359,0.457770656900948
1580417276.63692,1.43434805828952,0.0305180437933359,0.51880674448762
1580417276.64091,1.55642023346309,-0.0305180437933359,0.51880674448762
1580417276.6449,1.37331197070262,-0.152590218966907,0.457770656900948
1580417276.6489,1.43434805828952,0.0305180437933359,0.274662394140478
1580417276.65289,1.43434805828952,-0.0305180437933359,0.457770656900948
1580417276.65689,1.43434805828952,0.0305180437933359,0.396734569314049
1580417276.66088,1.43434805828952,0.091554131380235,0.335698481727377
1580417276.66488,1.43434805828952,0.0305180437933359,0.335698481727377
1580417276.66885,1.43434805828952,0.091554131380235,0.457770656900948
1580417276.67285,1.37331197070262,0.0305180437933359,0.457770656900948
1580417276.67684,1.43434805828952,0.0305180437933359,0.51880674448762
1580417276.68084,1.49538414587619,0.091554131380235,0.457770656900948
1580417276.68483,1.31227588311594,0.091554131380235,0.457770656900948
1580417276.68882,1.43434805828952,0.0305180437933359,0.640878919661191
1580417276.69282,1.31227588311594,0.152590218966907,0.457770656900948
1580417276.69681,1.25123979552905,0.152590218966907,0.457770656900948
1580417276.7008,1.37331197070262,0.091554131380235,0.457770656900948
1580417276.7048,1.43434805828952,0.213626306553806,0.396734569314049
1580417276.70879,1.31227588311594,0.091554131380235,0.396734569314049
1580417276.71279,1.31227588311594,0.091554131380235,0.457770656900948
1580417276.71678,1.37331197070262,0.152590218966907,0.457770656900948
1580417276.72077,1.55642023346309,0.091554131380235,0.335698481727377
1580417276.72477,1.67849240863666,-0.0305180437933359,0.396734569314049
1580417276.72876,1.73952849622333,-0.0305180437933359,0.396734569314049
1580417276.73276,1.9226367589838,-0.152590218966907,0.335698481727377
1580417276.73675,1.9226367589838,-0.091554131380235,0.51880674448762
1580417276.74074,1.9226367589838,-0.152590218966907,0.457770656900948
1580417276.74474,1.8616006713969,-0.091554131380235,0.396734569314049
1580417276.74875,1.98367284657047,0.0305180437933359,0.457770656900948
1580417276.75274,1.80056458381023,-0.0305180437933359,0.396734569314049
1580417276.75674,1.73952849622333,-0.0305180437933359,0.274662394140478
1580417276.76073,1.55642023346309,0.0305180437933359,0.396734569314049
1580417276.76472,1.49538414587619,0.091554131380235,0.579842832074519
1580417276.76872,1.37331197070262,0.0305180437933359,0.51880674448762
1580417276.77271,1.19020370794237,0.152590218966907,0.579842832074519
1580417276.77671,1.19020370794237,0.152590218966907,0.396734569314049
1580417276.7807,1.0681315327688,0.213626306553806,0.457770656900948
1580417276.78469,1.0070954451819,0.152590218966907,0.335698481727377
1580417276.78869,1.0070954451819,-0.0305180437933359,0.457770656900948
1580417276.79268,1.0681315327688,0.152590218966907,0.51880674448762
1580417276.79668,1.0681315327688,-0.0305180437933359,0.457770656900948
1580417276.80067,1.12916762035547,-0.0305180437933359,0.335698481727377
1580417276.80466,1.31227588311594,0.0305180437933359,0.51880674448762
1580417276.80866,1.37331197070262,0.091554131380235,0.51880674448762
1580417276.81265,1.37331197070262,0.091554131380235,0.274662394140478
1580417276.81665,1.37331197070262,-0.0305180437933359,0.396734569314049
1580417276.82064,1.49538414587619,0.0305180437933359,0.51880674448762
1580417276.82463,1.61745632104976,0.091554131380235,0.579842832074519
1580417276.82861,1.61745632104976,-0.091554131380235,0.51880674448762
1580417276.83261,1.55642023346309,-0.0305180437933359,0.396734569314049
1580417276.8366,1.61745632104976,-0.0305180437933359,0.457770656900948
1580417276.8406,1.55642023346309,0.0305180437933359,0.51880674448762
1580417276.84459,1.55642023346309,0.0305180437933359,0.335698481727377
1580417276.84858,1.61745632104976,-0.091554131380235,0.457770656900948
1580417276.85258,1.49538414587619,-0.152590218966907,0.457770656900948
1580417276.85657,1.49538414587619,-0.091554131380235,0.396734569314049
1580417276.86056,1.43434805828952,0.0305180437933359,0.51880674448762
1580417276.86456,1.43434805828952,-0.091554131380235,0.396734569314049
1580417276.86855,1.31227588311594,-0.152590218966907,0.396734569314049
1580417276.87255,1.31227588311594,0.0305180437933359,0.335698481727377
1580417276.87654,1.25123979552905,-0.0305180437933359,0.457770656900948
1580417276.88053,1.12916762035547,0.0305180437933359,0.457770656900948
1580417276.88453,1.0681315327688,-0.0305180437933359,0.396734569314049
1580417276.88852,1.19020370794237,-0.0305180437933359,0.335698481727377
1580417276.89252,1.12916762035547,-0.091554131380235,0.396734569314049
1580417276.89651,1.0681315327688,-0.0305180437933359,0.457770656900948
1580417276.9005,1.19020370794237,-0.152590218966907,0.51880674448762
1580417276.9045,1.19020370794237,-0.091554131380235,0.457770656900948
1580417276.90851,1.25123979552905,-0.091554131380235,0.396734569314049
1580417276.9125,1.37331197070262,-0.091554131380235,0.457770656900948
1580417276.9165,1.31227588311594,-0.091554131380235,0.457770656900948
1580417276.92049,1.43434805828952,-0.091554131380235,0.457770656900948
1580417276.92448,1.31227588311594,-0.091554131380235,0.51880674448762
1580417276.92848,1.37331197070262,-0.213626306553806,0.396734569314049
1580417276.93247,1.25123979552905,-0.091554131380235,0.396734569314049
1580417276.93647,1.0681315327688,-0.091554131380235,0.396734569314049
1580417276.94046,1.0681315327688,-0.0305180437933359,0.396734569314049
1580417276.94445,1.0681315327688,0.152590218966907,0.457770656900948
1580417276.94845,1.0681315327688,0.0305180437933359,0.51880674448762
1580417276.95244,0.946059357595232,0.0305180437933359,0.51880674448762
1580417276.95644,0.885023270008332,0.091554131380235,0.579842832074519
1580417276.96043,0.823987182421661,0.152590218966907,0.579842832074519
1580417276.96442,0.762951094834762,0.213626306553806,0.457770656900948
1580417276.96842,0.823987182421661,0.274662394140478,0.335698481727377
1580417276.97241,0.946059357595232,0.152590218966907,0.457770656900948
1580417276.97641,0.823987182421661,0.152590218966907,0.457770656900948
1580417276.9804,0.885023270008332,0.274662394140478,0.396734569314049
1580417276.98439,0.70191500724809,0.274662394140478,0.51880674448762
1580417276.98837,0.823987182421661,0.091554131380235,0.457770656900948
1580417276.99237,0.762951094834762,0.091554131380235,0.457770656900948
1580417276.99636,0.823987182421661,0.152590218966907,0.51880674448762
1580417277.00035,0.823987182421661,0.152590218966907,0.457770656900948
1580417277.00435,0.762951094834762,0.274662394140478,0.457770656900948
1580417277.00834,0.946059357595232,0.213626306553806,0.396734569314049
1580417277.01234,0.885023270008332,0.213626306553806,0.396734569314049
1580417277.01633,0.762951094834762,0.274662394140478,0.51880674448762
1580417277.02032,0.762951094834762,0.396734569314049,0.51880674448762
1580417277.02432,0.823987182421661,0.396734569314049,0.457770656900948
1580417277.02831,0.70191500724809,0.335698481727377,0.51880674448762
1580417277.03231,0.762951094834762,0.274662394140478,0.579842832074519
1580417277.0363,0.823987182421661,0.213626306553806,0.396734569314049
1580417277.04029,0.762951094834762,0.152590218966907,0.51880674448762
1580417277.04429,0.885023270008332,0.091554131380235,0.457770656900948
1580417277.04828,0.762951094834762,0.0305180437933359,0.51880674448762
1580417277.05228,0.823987182421661,0.0305180437933359,0.640878919661191
1580417277.05627,1.0070954451819,0.0305180437933359,0.579842832074519
1580417277.06026,1.0681315327688,0.0305180437933359,0.51880674448762
1580417277.06426,0.946059357595232,-0.0305180437933359,0.457770656900948
1580417277.06827,1.0681315327688,-0.091554131380235,0.396734569314049
1580417277.07226,1.12916762035547,-0.152590218966907,0.457770656900948
1580417277.07625,1.0681315327688,-0.091554131380235,0.396734569314049
1580417277.08025,1.25123979552905,-0.091554131380235,0.457770656900948
1580417277.08424,1.19020370794237,-0.091554131380235,0.396734569314049
1580417277.08824,1.19020370794237,-0.0305180437933359,0.457770656900948
1580417277.09223,1.25123979552905,-0.0305180437933359,0.51880674448762
1580417277.09623,1.31227588311594,-0.091554131380235,0.457770656900948
1580417277.10022,1.37331197070262,0.0305180437933359,0.396734569314049
1580417277.10421,1.49538414587619,0.0305180437933359,0.579842832074519
1580417277.10821,1.49538414587619,-0.091554131380235,0.396734569314049
1580417277.1122,1.49538414587619,-0.152590218966907,0.457770656900948
1580417277.11619,1.55642023346309,-0.0305180437933359,0.396734569314049
1580417277.12019,1.61745632104976,-0.213626306553806,0.274662394140478
1580417277.12418,1.49538414587619,-0.213626306553806,0.457770656900948
1580417277.12818,1.43434805828952,-0.213626306553806,0.579842832074519
1580417277.13217,1.37331197070262,-0.152590218966907,0.51880674448762
1580417277.13616,1.43434805828952,-0.152590218966907,0.457770656900948
1580417277.14016,1.37331197070262,-0.0305180437933359,0.274662394140478
1580417277.14415,1.43434805828952,-0.213626306553806,0.335698481727377
1580417277.14816,1.49538414587619,-0.0305180437933359,0.396734569314049
1580417277.15216,1.55642023346309,-0.152590218966907,0.335698481727377
1580417277.15615,1.61745632104976,0.0305180437933359,0.335698481727377
1580417277.16014,1.43434805828952,-0.0305180437933359,0.335698481727377
1580417277.16414,1.49538414587619,-0.152590218966907,0.396734569314049
1580417277.16813,1.55642023346309,-0.091554131380235,0.335698481727377
1580417277.17213,1.49538414587619,-0.091554131380235,0.396734569314049
1580417277.17612,1.55642023346309,-0.0305180437933359,0.396734569314049
1580417277.18011,1.49538414587619,-0.091554131380235,0.457770656900948
1580417277.18411,1.49538414587619,-0.091554131380235,0.457770656900948
1580417277.1881,1.37331197070262,-0.091554131380235,0.396734569314049
1580417277.1921,1.43434805828952,-0.091554131380235,0.396734569314049
1580417277.19609,1.43434805828952,-0.091554131380235,0.457770656900948
1580417277.20008,1.25123979552905,-0.091554131380235,0.396734569314049
1580417277.20408,1.19020370794237,0.0305180437933359,0.335698481727377
1580417277.20807,1.12916762035547,-0.0305180437933359,0.457770656900948
1580417277.21207,1.19020370794237,-0.0305180437933359,0.457770656900948
1580417277.21606,1.0070954451819,0.091554131380235,0.396734569314049
1580417277.22005,1.0070954451819,0.274662394140478,0.396734569314049
1580417277.22405,1.0681315327688,0.152590218966907,0.457770656900948
1580417277.22803,1.0070954451819,0.152590218966907,0.51880674448762
1580417277.23202,1.0070954451819,0.213626306553806,0.579842832074519
1580417277.23601,1.0681315327688,0.152590218966907,0.457770656900948
1580417277.24001,1.19020370794237,0.091554131380235,0.51880674448762
1580417277.244,1.31227588311594,0.091554131380235,0.51880674448762
1580417277.248,1.49538414587619,0.091554131380235,0.396734569314049
1580417277.25199,1.55642023346309,-0.0305180437933359,0.274662394140478
1580417277.25599,1.73952849622333,-0.0305180437933359,0.457770656900948
1580417277.25998,1.8616006713969,-0.0305180437933359,0.457770656900948
1580417277.26397,1.9226367589838,-0.0305180437933359,0.51880674448762
1580417277.26797,1.8616006713969,-0.091554131380235,0.457770656900948
1580417277.27196,1.73952849622333,-0.0305180437933359,0.396734569314049
1580417277.27595,1.67849240863666,-0.0305180437933359,0.457770656900948
1580417277.27995,1.73952849622333,-0.091554131380235,0.457770656900948
1580417277.28394,1.67849240863666,-0.091554131380235,0.457770656900948
1580417277.28794,1.55642023346309,-0.091554131380235,0.396734569314049
1580417277.29193,1.61745632104976,0.0305180437933359,0.396734569314049
1580417277.29592,1.61745632104976,0.0305180437933359,0.457770656900948
1580417277.29992,1.43434805828952,-0.0305180437933359,0.457770656900948
1580417277.30391,1.43434805828952,0.0305180437933359,0.579842832074519
1580417277.30792,1.49538414587619,0.0305180437933359,0.51880674448762
1580417277.31192,1.37331197070262,-0.0305180437933359,0.457770656900948
1580417277.31591,1.31227588311594,-0.091554131380235,0.396734569314049
1580417277.3199,1.43434805828952,-0.152590218966907,0.457770656900948
1580417277.3239,1.43434805828952,-0.0305180437933359,0.396734569314049
1580417277.32789,1.49538414587619,-0.091554131380235,0.335698481727377
1580417277.33189,1.55642023346309,-0.152590218966907,0.396734569314049
1580417277.33588,1.31227588311594,-0.213626306553806,0.51880674448762
1580417277.33987,1.12916762035547,0.0305180437933359,0.457770656900948
1580417277.34387,0.946059357595232,0.091554131380235,0.51880674448762
1580417277.34786,0.946059357595232,-0.0305180437933359,0.51880674448762
1580417277.35186,1.0681315327688,0.0305180437933359,0.457770656900948
1580417277.35585,1.0681315327688,0.0305180437933359,0.51880674448762
1580417277.35984,1.12916762035547,0.091554131380235,0.51880674448762
1580417277.36384,1.25123979552905,-0.091554131380235,0.457770656900948
1580417277.36783,1.25123979552905,-0.091554131380235,0.396734569314049
1580417277.37183,1.12916762035547,-0.0305180437933359,0.51880674448762
1580417277.37582,1.19020370794237,-0.091554131380235,0.335698481727377
1580417277.37981,1.12916762035547,-0.0305180437933359,0.274662394140478
1580417277.38381,1.0070954451819,-0.0305180437933359,0.579842832074519
1580417277.38779,0.946059357595232,0.091554131380235,0.640878919661191
1580417277.39178,0.946059357595232,0.0305180437933359,0.51880674448762
1580417277.39577,0.885023270008332,0.0305180437933359,0.457770656900948
1580417277.39977,0.946059357595232,-0.0305180437933359,0.396734569314049
1580417277.40376,0.70191500724809,0.0305180437933359,0.396734569314049
1580417277.40776,0.70191500724809,0.0305180437933359,0.51880674448762
1580417277.41175,0.70191500724809,0.152590218966907,0.457770656900948
1580417277.41574,0.70191500724809,0.0305180437933359,0.335698481727377
1580417277.41974,0.762951094834762,0.0305180437933359,0.51880674448762
1580417277.42373,0.762951094834762,0.213626306553806,0.51880674448762
1580417277.42773,0.70191500724809,0.152590218966907,0.457770656900948
1580417277.43172,0.70191500724809,0.213626306553806,0.457770656900948
1580417277.43571,0.762951094834762,0.213626306553806,0.457770656900948
1580417277.43971,0.823987182421661,0.213626306553806,0.335698481727377
1580417277.4437,0.823987182421661,0.213626306553806,0.396734569314049
1580417277.4477,0.946059357595232,0.335698481727377,0.457770656900948
1580417277.45169,1.0681315327688,0.457770656900948,0.396734569314049
1580417277.45568,0.885023270008332,0.396734569314049,0.457770656900948
1580417277.45968,1.0070954451819,0.396734569314049,0.457770656900948
1580417277.46367,0.946059357595232,0.396734569314049,0.396734569314049
1580417277.46768,0.762951094834762,0.274662394140478,0.51880674448762
1580417277.47167,0.762951094834762,0.274662394140478,0.51880674448762
1580417277.47567,0.70191500724809,0.274662394140478,0.579842832074519
1580417277.47966,0.70191500724809,0.152590218966907,0.457770656900948
1580417277.48366,0.70191500724809,0.213626306553806,0.579842832074519
1580417277.48765,0.70191500724809,0.213626306553806,0.51880674448762
1580417277.49164,0.70191500724809,0.091554131380235,0.51880674448762
1580417277.49564,0.946059357595232,0.152590218966907,0.457770656900948
1580417277.49963,1.0070954451819,0.0305180437933359,0.51880674448762
1580417277.50363,0.885023270008332,0.0305180437933359,0.457770656900948
1580417277.50762,0.885023270008332,0.0305180437933359,0.51880674448762
1580417277.51162,1.0070954451819,0.0305180437933359,0.457770656900948
1580417277.51561,1.12916762035547,0.091554131380235,0.457770656900948
1580417277.5196,1.12916762035547,0.091554131380235,0.51880674448762
1580417277.5236,1.25123979552905,0.0305180437933359,0.457770656900948
1580417277.52759,1.19020370794237,0.091554131380235,0.457770656900948
1580417277.53158,1.19020370794237,0.091554131380235,0.457770656900948
1580417277.53558,1.31227588311594,0.152590218966907,0.457770656900948
1580417277.53957,1.25123979552905,0.152590218966907,0.335698481727377
1580417277.54357,1.0681315327688,-0.0305180437933359,0.51880674448762
1580417277.54755,1.0681315327688,-0.0305180437933359,0.396734569314049
1580417277.55154,1.19020370794237,-0.0305180437933359,0.457770656900948
1580417277.55553,1.19020370794237,-0.0305180437933359,0.457770656900948
1580417277.55953,1.12916762035547,0.091554131380235,0.457770656900948
1580417277.56352,1.0070954451819,0.152590218966907,0.457770656900948
1580417277.56752,1.19020370794237,0.152590218966907,0.396734569314049
1580417277.57151,1.12916762035547,0.274662394140478,0.51880674448762
1580417277.5755,1.19020370794237,0.213626306553806,0.51880674448762
1580417277.5795,1.19020370794237,0.213626306553806,0.396734569314049
1580417277.58349,1.25123979552905,0.213626306553806,0.396734569314049
1580417277.58749,1.31227588311594,0.213626306553806,0.51880674448762
1580417277.59148,1.31227588311594,0.213626306553806,0.396734569314049
1580417277.59547,1.37331197070262,0.274662394140478,0.335698481727377
1580417277.59947,1.37331197070262,0.213626306553806,0.396734569314049
1580417277.60346,1.37331197070262,0.213626306553806,0.396734569314049
1580417277.60746,1.37331197070262,0.152590218966907,0.457770656900948
1580417277.61145,1.43434805828952,0.152590218966907,0.396734569314049
1580417277.61544,1.43434805828952,0.213626306553806,0.335698481727377
1580417277.61944,1.37331197070262,0.274662394140478,0.396734569314049
1580417277.62343,1.31227588311594,0.213626306553806,0.335698481727377
1580417277.62744,1.43434805828952,0.213626306553806,0.457770656900948
1580417277.63143,1.37331197070262,0.335698481727377,0.396734569314049
1580417277.63543,1.43434805828952,0.396734569314049,0.396734569314049
1580417277.63942,1.43434805828952,0.274662394140478,0.457770656900948
1580417277.64342,1.55642023346309,0.335698481727377,0.396734569314049
1580417277.64741,1.31227588311594,0.396734569314049,0.335698481727377
1580417277.6514,1.19020370794237,0.457770656900948,0.396734569314049
1580417277.6554,1.0681315327688,0.579842832074519,0.457770656900948
1580417277.65939,1.19020370794237,0.579842832074519,0.51880674448762
1580417277.66339,1.12916762035547,0.762951094834762,0.274662394140478
1580417277.66738,1.0070954451819,0.762951094834762,0.396734569314049
1580417277.67138,1.0681315327688,0.762951094834762,0.51880674448762
1580417277.67537,1.25123979552905,0.762951094834762,0.457770656900948
1580417277.67936,1.12916762035547,0.762951094834762,0.457770656900948
1580417277.68336,1.31227588311594,0.70191500724809,0.457770656900948
1580417277.68735,1.43434805828952,0.70191500724809,0.396734569314049
1580417277.69134,1.43434805828952,0.946059357595232,0.335698481727377
1580417277.69534,1.61745632104976,1.0681315327688,0.335698481727377
1580417277.69933,1.61745632104976,1.12916762035547,0.396734569314049
1580417277.70333,1.55642023346309,1.25123979552905,0.396734569314049
1580417277.70731,1.43434805828952,1.43434805828952,0.396734569314049
1580417277.7113,1.37331197070262,1.43434805828952,0.396734569314049
1580417277.71529,1.25123979552905,1.0681315327688,0.51880674448762
1580417277.71929,1.43434805828952,0.946059357595232,0.457770656900948
1580417277.72328,1.43434805828952,0.70191500724809,0.396734569314049
1580417277.72727,1.37331197070262,0.885023270008332,0.396734569314049
1580417277.73127,1.25123979552905,0.946059357595232,0.396734569314049
1580417277.73526,1.12916762035547,0.762951094834762,0.335698481727377
1580417277.73926,1.43434805828952,0.640878919661191,0.396734569314049
1580417277.74325,1.43434805828952,0.51880674448762,0.396734569314049
1580417277.74724,1.31227588311594,0.640878919661191,0.396734569314049
1580417277.75124,1.19020370794237,0.51880674448762,0.457770656900948
1580417277.75523,1.31227588311594,0.579842832074519,0.457770656900948
1580417277.75923,1.31227588311594,0.457770656900948,0.457770656900948
1580417277.76322,1.19020370794237,0.396734569314049,0.396734569314049
1580417277.76722,1.0070954451819,0.579842832074519,0.335698481727377
1580417277.77121,0.823987182421661,0.640878919661191,0.396734569314049
1580417277.7752,0.762951094834762,0.51880674448762,0.335698481727377
1580417277.7792,0.762951094834762,0.457770656900948,0.457770656900948
1580417277.78319,0.70191500724809,0.51880674448762,0.457770656900948
1580417277.7872,0.457770656900948,0.70191500724809,0.51880674448762
1580417277.79119,0.335698481727377,0.762951094834762,0.457770656900948
1580417277.79519,0.335698481727377,0.70191500724809,0.396734569314049
1580417277.79918,0.396734569314049,0.70191500724809,0.457770656900948
1580417277.80318,0.335698481727377,0.70191500724809,0.396734569314049
1580417277.80717,0.274662394140478,0.885023270008332,0.396734569314049
1580417277.81116,0.335698481727377,0.946059357595232,0.274662394140478
1580417277.81516,0.579842832074519,1.25123979552905,0.396734569314049
1580417277.81915,0.946059357595232,1.43434805828952,0.396734569314049
1580417277.82315,1.12916762035547,1.61745632104976,0.274662394140478
1580417277.82714,1.19020370794237,1.67849240863666,0.335698481727377
1580417277.83113,1.19020370794237,1.43434805828952,0.335698481727377
1580417277.83513,1.31227588311594,1.19020370794237,0.396734569314049
1580417277.83912,1.25123979552905,0.885023270008332,0.396734569314049
1580417277.84312,1.37331197070262,0.823987182421661,0.335698481727377
1580417277.84711,1.55642023346309,0.640878919661191,0.274662394140478
1580417277.8511,1.80056458381023,0.579842832074519,0.396734569314049
1580417277.8551,1.8616006713969,0.396734569314049,0.457770656900948
1580417277.85909,1.8616006713969,0.335698481727377,0.396734569314049
1580417277.86309,1.80056458381023,0.274662394140478,0.335698481727377
1580417277.86706,1.61745632104976,0.213626306553806,0.335698481727377
1580417277.87106,1.49538414587619,0.396734569314049,0.274662394140478
1580417277.87505,1.37331197070262,0.396734569314049,0.274662394140478
1580417277.87905,1.25123979552905,0.335698481727377,0.274662394140478
1580417277.88304,1.19020370794237,0.396734569314049,0.396734569314049
1580417277.88703,1.55642023346309,0.396734569314049,0.457770656900948
1580417277.89103,1.67849240863666,0.335698481727377,0.457770656900948
1580417277.89502,1.61745632104976,0.335698481727377,0.335698481727377
1580417277.89902,1.80056458381023,0.213626306553806,0.457770656900948
1580417277.90301,1.8616006713969,0.335698481727377,0.396734569314049
1580417277.907,1.98367284657047,0.213626306553806,0.396734569314049
1580417277.911,1.73952849622333,0.213626306553806,0.335698481727377
1580417277.91499,1.80056458381023,0.213626306553806,0.335698481727377
1580417277.91899,1.73952849622333,0.152590218966907,0.396734569314049
1580417277.92298,1.67849240863666,0.213626306553806,0.335698481727377
1580417277.92698,1.67849240863666,0.213626306553806,0.335698481727377
1580417277.93097,1.55642023346309,0.152590218966907,0.335698481727377
1580417277.93496,1.49538414587619,0.091554131380235,0.335698481727377
1580417277.93896,1.43434805828952,0.152590218966907,0.51880674448762
1580417277.94295,1.31227588311594,0.091554131380235,0.457770656900948
1580417277.94696,1.25123979552905,0.0305180437933359,0.579842832074519
1580417277.95095,1.0681315327688,0.0305180437933359,0.396734569314049
1580417277.95495,0.946059357595232,0.091554131380235,0.457770656900948
1580417277.95894,1.0070954451819,0.091554131380235,0.213626306553806
1580417277.96294,1.0681315327688,0.091554131380235,0.335698481727377
1580417277.96693,1.12916762035547,0.152590218966907,0.274662394140478
1580417277.97092,1.31227588311594,0.091554131380235,0.335698481727377
1580417277.97492,1.37331197070262,0.152590218966907,0.335698481727377
1580417277.97891,1.37331197070262,0.274662394140478,0.396734569314049
1580417277.98291,1.37331197070262,0.396734569314049,0.396734569314049
1580417277.9869,1.25123979552905,0.457770656900948,0.396734569314049
1580417277.99089,1.12916762035547,0.70191500724809,0.396734569314049
1580417277.99489,1.19020370794237,0.70191500724809,0.396734569314049
1580417277.99888,1.12916762035547,0.946059357595232,0.274662394140478
1580417278.00288,1.0070954451819,1.0070954451819,0.274662394140478
1580417278.00687,0.823987182421661,1.31227588311594,0.274662394140478
1580417278.01086,0.640878919661191,1.43434805828952,0.213626306553806
1580417278.01486,0.51880674448762,1.49538414587619,0.335698481727377
1580417278.01885,0.640878919661191,1.55642023346309,0.274662394140478
1580417278.02285,0.762951094834762,1.43434805828952,0.396734569314049
1580417278.02682,0.946059357595232,1.25123979552905,0.335698481727377
1580417278.03082,1.25123979552905,1.25123979552905,0.335698481727377
1580417278.03481,1.31227588311594,1.0070954451819,0.335698481727377
1580417278.03881,1.43434805828952,0.51880674448762,0.335698481727377
1580417278.0428,1.61745632104976,0.396734569314049,0.396734569314049
1580417278.04679,1.55642023346309,0.213626306553806,0.274662394140478
1580417278.05079,1.80056458381023,0.091554131380235,0.274662394140478
1580417278.05478,1.9226367589838,0.091554131380235,0.457770656900948
1580417278.05878,2.04470893415737,-0.457770656900948,0.396734569314049
1580417278.06277,1.80056458381023,-0.0305180437933359,0.396734569314049
1580417278.06676,1.55642023346309,-0.213626306553806,0.335698481727377
1580417278.07076,1.73952849622333,-0.396734569314049,0.335698481727377
1580417278.07475,1.9226367589838,-0.457770656900948,0.457770656900948
1580417278.07875,1.98367284657047,-0.335698481727377,0.335698481727377
1580417278.08274,2.16678110933094,-0.396734569314049,0.274662394140478
1580417278.08673,2.10574502174404,-0.51880674448762,0.396734569314049
1580417278.09073,2.28885328450451,-0.579842832074519,0.396734569314049
1580417278.09472,2.28885328450451,-0.335698481727377,0.335698481727377
1580417278.09872,2.22781719691761,0.70191500724809,0.274662394140478
1580417278.10271,2.16678110933094,-0.335698481727377,0.396734569314049
1580417278.10672,2.34988937209118,-0.70191500724809,0.335698481727377
1580417278.11071,2.10574502174404,-0.51880674448762,0.335698481727377
1580417278.11471,1.80056458381023,0.579842832074519,0.335698481727377
1580417278.1187,1.0681315327688,0.091554131380235,0.274662394140478
1580417278.1227,0.762951094834762,0.091554131380235,0.396734569314049
1580417278.12669,0.70191500724809,0.457770656900948,0.335698481727377
1580417278.13068,0.823987182421661,0.213626306553806,0.335698481727377
1580417278.13468,1.0681315327688,-0.152590218966907,0.335698481727377
1580417278.13867,0.823987182421661,-0.0305180437933359,0.335698481727377
1580417278.14266,0.70191500724809,0.213626306553806,0.396734569314049
1580417278.14666,0.51880674448762,0.274662394140478,0.335698481727377
1580417278.15065,0.335698481727377,0.152590218966907,0.457770656900948
1580417278.15465,0.091554131380235,0.213626306553806,0.396734569314049
1580417278.15864,0.091554131380235,0.091554131380235,0.396734569314049
1580417278.16263,0.213626306553806,-0.0305180437933359,0.396734569314049
1580417278.16663,0.51880674448762,-0.091554131380235,0.396734569314049
1580417278.17062,0.640878919661191,-0.091554131380235,0.457770656900948
1580417278.17462,0.579842832074519,-0.213626306553806,0.51880674448762
1580417278.17861,0.579842832074519,0.091554131380235,0.51880674448762
1580417278.18261,0.579842832074519,0.579842832074519,0.51880674448762
1580417278.18658,0.946059357595232,-0.762951094834762,0.51880674448762
1580417278.19058,1.37331197070262,-0.640878919661191,0.396734569314049
1580417278.19457,0.823987182421661,-0.0305180437933359,0.457770656900948
1580417278.19857,-0.0305180437933359,0.70191500724809,0.579842832074519
1580417278.20256,-0.396734569314049,0.51880674448762,0.579842832074519
1580417278.20655,0.213626306553806,0.70191500724809,0.396734569314049
1580417278.21055,0.640878919661191,0.885023270008332,0.335698481727377
1580417278.21454,0.70191500724809,-0.0305180437933359,0.457770656900948
1580417278.21854,1.12916762035547,0.70191500724809,0.396734569314049
1580417278.22253,1.0070954451819,0.396734569314049,0.579842832074519
1580417278.22652,0.885023270008332,0.457770656900948,0.457770656900948
1580417278.23052,0.579842832074519,0.396734569314049,0.457770656900948
1580417278.23451,0.213626306553806,0.396734569314049,0.396734569314049
1580417278.23851,-0.091554131380235,-0.335698481727377,0.457770656900948
1580417278.2425,0.213626306553806,0.762951094834762,0.457770656900948
1580417278.24649,-0.213626306553806,0.274662394140478,0.51880674448762
1580417278.25049,0.213626306553806,0.213626306553806,0.457770656900948
1580417278.25448,0.946059357595232,2.59403372243833,0.457770656900948
1580417278.25848,0.640878919661191,-0.640878919661191,0.335698481727377
1580417278.26247,0.70191500724809,-1.37331197070262,0.274662394140478
1580417278.26648,0.335698481727377,-0.396734569314049,0.396734569314049
1580417278.27047,-0.762951094834762,-0.213626306553806,0.396734569314049
1580417278.27447,-0.091554131380235,0.823987182421661,0.213626306553806
1580417278.27846,1.0681315327688,1.8616006713969,0.213626306553806
1580417278.28245,1.25123979552905,0.396734569314049,0.0305180437933359
1580417278.28645,0.823987182421661,-0.0305180437933359,0.213626306553806
1580417278.29044,-0.579842832074519,-0.640878919661191,0.335698481727377
1580417278.29444,0.274662394140478,2.04470893415737,0.335698481727377
1580417278.29843,2.7161058976119,2.34988937209118,0.274662394140478
1580417278.30242,1.0681315327688,6.92759594110021,-0.457770656900948
1580417278.30642,-4.8523689631495,0.640878919661191,-1.0070954451819
1580417278.31041,-1.67849240863666,-0.335698481727377,-1.0070954451819
1580417278.31441,-3.93682764934761,-2.28885328450451,-0.335698481727377
1580417278.3184,-4.60822461280236,-1.31227588311594,0.274662394140478
1580417278.32239,-2.83817807278547,-1.0070954451819,0.51880674448762
1580417278.32639,-1.61745632104976,1.12916762035547,0.51880674448762
1580417278.33038,-1.49538414587619,1.49538414587619,-0.0305180437933359
1580417278.33438,1.19020370794237,-3.44853894865332,-0.0305180437933359
1580417278.33837,4.54718852521546,0.213626306553806,0.213626306553806
1580417278.34237,-0.0305180437933359,2.04470893415737,0.274662394140478
1580417278.34634,-0.762951094834762,1.12916762035547,0.274662394140478
1580417278.35034,1.0070954451819,0.70191500724809,0.152590218966907
1580417278.35433,-0.946059357595232,5.09651331349664,-0.0305180437933359
1580417278.35833,-4.7913328755626,4.60822461280236,-0.823987182421661
1580417278.36232,-0.823987182421661,3.50957503624022,-0.946059357595232
1580417278.36631,-1.67849240863666,2.89921416037237,-0.457770656900948
1580417278.37031,-4.11993591210808,0.274662394140478,-0.152590218966907
1580417278.3743,-3.93682764934761,2.34988937209118,0.213626306553806
1580417278.3783,-3.93682764934761,2.10574502174404,-0.091554131380235
1580417278.38229,-4.73029678797593,4.91340505073617,-0.579842832074519
1580417278.38628,-6.19516289005878,5.76791027695117,-1.55642023346309
1580417278.39028,-5.52376592660403,2.96025024795904,-1.43434805828952
1580417278.39427,-3.81475547417404,0.213626306553806,-1.0070954451819
1580417278.39826,-1.9226367589838,0.823987182421661,-0.274662394140478
1580417278.40226,-2.04470893415737,1.0681315327688,-0.152590218966907
1580417278.40625,-0.152590218966907,2.7161058976119,0.152590218966907
1580417278.41025,0.152590218966907,1.19020370794237,-0.274662394140478
1580417278.41424,0.152590218966907,0.946059357595232,0.0305180437933359
1580417278.41823,-2.34988937209118,4.91340505073617,-0.579842832074519
1580417278.42223,-5.58480201419093,6.31723506523235,-1.43434805828952
1580417278.42624,-2.04470893415737,4.24200808728165,-1.55642023346309
1580417278.43023,-0.152590218966907,1.67849240863666,-1.12916762035547
1580417278.43423,-0.762951094834762,2.96025024795904,-0.640878919661191
1580417278.43822,-2.7161058976119,2.96025024795904,-0.335698481727377
1580417278.44221,-1.73952849622333,5.88998245212474,-0.762951094834762
1580417278.44621,-0.335698481727377,-0.823987182421661,0.274662394140478
1580417278.4502,-2.89921416037237,2.22781719691761,-0.946059357595232
1580417278.4542,-6.62241550316617,2.89921416037237,-2.04470893415737
1580417278.45819,-7.17174029144735,3.69268329900046,-1.80056458381023
1580417278.46218,-4.30304417486832,2.47196154726475,-1.0070954451819
1580417278.46618,-1.80056458381023,2.89921416037237,-0.0305180437933359
1580417278.47017,-2.83817807278547,-0.274662394140478,-0.213626306553806
1580417278.47417,2.59403372243833,-1.0681315327688,0.152590218966907
1580417278.47816,5.21858548867021,-0.396734569314049,0.152590218966907
1580417278.48215,4.24200808728165,1.0681315327688,0.091554131380235
1580417278.48615,0.51880674448762,2.41092545967808,-0.0305180437933359
1580417278.49014,-8.5755703059433,8.27038986800949,-2.10574502174404
1580417278.49414,-13.2753490501259,8.27038986800949,-3.75371938658736
1580417278.49813,-14.7402151522087,-4.18097199969475,-8.5755703059433
1580417278.50212,-6.98863202868688,-2.83817807278547,-5.03547722590974
1580417278.5061,-2.7771419851988,1.67849240863666,-1.19020370794237
1580417278.5101,-3.57061112382689,3.08232242313261,-0.335698481727377
1580417278.51409,-2.41092545967808,2.34988937209118,-0.213626306553806
1580417278.51809,-7.7821011673152,5.21858548867021,-1.43434805828952
1580417278.52208,-27.191577019913,0.579842832074519,-12.2377355611504
1580417278.52607,-7.72106507972831,-6.56137941557949,-22.9800869764247
1580417278.53007,5.52376592660403,-6.25619897764545,-20.8438239108873
1580417278.53406,10.7728694590676,-4.36408026245522,-5.21858548867021
1580417278.53805,2.28885328450451,1.49538414587619,0.152590218966907
1580417278.54205,0.640878919661191,3.26543068589308,0.51880674448762
1580417278.54604,3.38750286106665,2.04470893415737,0.152590218966907
1580417278.55004,-0.885023270008332,4.05889982452118,-0.70191500724809
1580417278.55403,-2.16678110933094,2.96025024795904,-0.396734569314049
1580417278.55802,0.274662394140478,1.49538414587619,0.335698481727377
1580417278.56202,1.31227588311594,3.50957503624022,0.152590218966907
1580417278.56601,-6.43930724040592,7.90417334248878,-1.55642023346309
1580417278.57001,-9.67421988250544,9.00282291905091,-2.59403372243833
1580417278.574,-8.94178683146401,9.12489509422448,-2.04470893415737
1580417278.57799,-9.55214770733187,-2.83817807278547,-9.85732814526591
1580417278.58199,10.1625085831997,-20.8438239108873,-46.9672693980317
1580417278.586,-0.396734569314049,-5.09651331349664,-6.92759594110021
1580417278.58999,-1.98367284657047,-1.0681315327688,0.0305180437933359
1580417278.59399,-5.46272983901736,0.762951094834762,0.274662394140478
1580417278.59798,-1.37331197070262,0.457770656900948,0.152590218966907
1580417278.60197,2.16678110933094,-0.396734569314049,0.213626306553806
1580417278.60597,3.44853894865332,-0.0305180437933359,0.51880674448762
1580417278.60996,3.44853894865332,1.67849240863666,0.457770656900948
1580417278.61396,3.63164721141379,0.091554131380235,0.457770656900948
1580417278.61795,3.63164721141379,-0.213626306553806,0.457770656900948
1580417278.62194,2.41092545967808,0.396734569314049,0.335698481727377
1580417278.62594,1.19020370794237,1.9226367589838,0.396734569314049
1580417278.62993,-0.51880674448762,1.31227588311594,0.335698481727377
1580417278.63393,-7.11070420386045,3.08232242313261,-1.0070954451819
1580417278.63792,-7.17174029144735,4.8523689631495,-1.25123979552905
1580417278.64191,-5.58480201419093,3.63164721141379,-1.0070954451819
1580417278.64591,-5.09651331349664,6.43930724040592,-2.16678110933094
1580417278.6499,-2.04470893415737,7.35484855420759,-2.10574502174404
1580417278.6539,-6.62241550316617,4.8523689631495,-1.55642023346309
1580417278.65789,-6.92759594110021,-1.25123979552905,-1.25123979552905
1580417278.66188,-5.27962157625689,-0.640878919661191,-0.885023270008332
1580417278.66586,-1.73952849622333,-1.67849240863666,-0.51880674448762
1580417278.66986,0.0305180437933359,-2.04470893415737,0.152590218966907
1580417278.67385,-1.12916762035547,-2.53299763485165,0.457770656900948
1580417278.67785,-1.43434805828952,-1.12916762035547,0.396734569314049
1580417278.68184,1.67849240863666,-1.31227588311594,0.51880674448762
1580417278.68583,4.60822461280236,-2.16678110933094,0.51880674448762
1580417278.68983,5.52376592660403,-2.41092545967808,0.51880674448762
1580417278.69382,5.15754940108332,-1.9226367589838,0.579842832074519
1580417278.69781,4.54718852521546,-1.67849240863666,0.579842832074519
1580417278.70181,3.63164721141379,-1.55642023346309,0.579842832074519
1580417278.7058,2.34988937209118,-1.31227588311594,0.640878919661191
1580417278.7098,0.885023270008332,-1.12916762035547,0.579842832074519
1580417278.71379,0.274662394140478,-0.946059357595232,0.51880674448762
1580417278.71778,0.335698481727377,-0.640878919661191,0.579842832074519
1580417278.72178,0.579842832074519,-0.70191500724809,0.457770656900948
1580417278.72577,1.0070954451819,-0.823987182421661,0.396734569314049
1580417278.72977,0.885023270008332,-0.946059357595232,0.396734569314049
1580417278.73376,0.579842832074519,-0.946059357595232,0.396734569314049
1580417278.73775,0.335698481727377,-0.823987182421661,0.51880674448762
1580417278.74175,0.152590218966907,-0.823987182421661,0.457770656900948
1580417278.74576,0.152590218966907,-0.823987182421661,0.51880674448762
1580417278.74975,-0.0305180437933359,-0.823987182421661,0.51880674448762
1580417278.75375,0.152590218966907,-0.823987182421661,0.579842832074519
1580417278.75774,0.152590218966907,-0.51880674448762,0.579842832074519
1580417278.76173,0.152590218966907,-0.213626306553806,0.274662394140478
1580417278.76573,0.0305180437933359,-0.091554131380235,0.274662394140478
1580417278.76972,0.274662394140478,0.0305180437933359,0.396734569314049
1580417278.77372,0.335698481727377,-0.152590218966907,0.335698481727377
1580417278.77771,0.274662394140478,0.0305180437933359,0.274662394140478
1580417278.7817,0.091554131380235,-0.091554131380235,0.335698481727377
1580417278.7857,0.213626306553806,-0.213626306553806,0.335698481727377
1580417278.78969,0.396734569314049,-0.091554131380235,0.335698481727377
1580417278.79369,0.579842832074519,0.213626306553806,0.274662394140478
1580417278.79768,0.70191500724809,0.396734569314049,0.396734569314049
1580417278.80167,1.0681315327688,1.80056458381023,0.457770656900948
1580417278.80567,1.0070954451819,0.091554131380235,0.457770656900948
1580417278.80966,1.43434805828952,0.0305180437933359,0.274662394140478
1580417278.81365,2.04470893415737,-0.579842832074519,0.335698481727377
1580417278.81765,2.04470893415737,-0.335698481727377,0.274662394140478
1580417278.82164,1.61745632104976,0.274662394140478,0.274662394140478
1580417278.82562,1.67849240863666,0.51880674448762,0.274662394140478
1580417278.82962,1.9226367589838,-0.70191500724809,0.0305180437933359
1580417278.83361,2.28885328450451,-0.335698481727377,0.213626306553806
1580417278.8376,0.579842832074519,1.0681315327688,-0.457770656900948
1580417278.8416,-0.335698481727377,1.49538414587619,-0.51880674448762
1580417278.84559,2.22781719691761,0.396734569314049,0.396734569314049
1580417278.84959,3.38750286106665,-0.579842832074519,0.396734569314049
1580417278.85358,3.63164721141379,1.31227588311594,0.396734569314049
1580417278.85757,2.89921416037237,0.762951094834762,0.51880674448762
1580417278.86157,-0.946059357595232,0.51880674448762,-0.274662394140478
1580417278.86556,-4.05889982452118,3.08232242313261,-1.0681315327688
1580417278.86956,-2.47196154726475,5.21858548867021,-0.885023270008332
1580417278.87355,-6.25619897764545,7.53795681696806,-2.65506981002522
1580417278.87754,-6.25619897764545,6.13412680247188,-2.96025024795904
1580417278.88154,-3.32646677347975,2.89921416037237,-1.19020370794237
1580417278.88553,27.9850461585411,-17.486839093614,-40.5584802014191
1580417278.88953,66.6208896009766,-22.1255817502097,-47.455558098726
1580417278.89352,41.5350576028075,-13.519493400473,-62.3483634699016
1580417278.89751,6.5003433279926,-8.14831769283592,-39.2767223620967
1580417278.90151,3.14335851071951,-5.21858548867021,-22.7969787136644
1580417278.90549,-5.09651331349664,2.16678110933094,-3.81475547417404
1580417278.90948,3.32646677347975,1.12916762035547,-0.0305180437933359
1580417278.91348,2.59403372243833,1.61745632104976,0.091554131380235
1580417278.91747,1.9226367589838,3.69268329900046,-0.0305180437933359
1580417278.92146,0.640878919661191,0.091554131380235,0.396734569314049
1580417278.92546,-1.9226367589838,-0.335698481727377,0.579842832074519
1580417278.92945,-2.83817807278547,0.396734569314049,0.51880674448762
1580417278.93344,-0.0305180437933359,-0.152590218966907,0.274662394140478
1580417278.93744,3.69268329900046,-0.51880674448762,0.213626306553806
1580417278.94143,4.91340505073617,-0.823987182421661,0.152590218966907
1580417278.94543,3.69268329900046,-0.0305180437933359,0.213626306553806
1580417278.94942,2.65506981002522,0.274662394140478,0.274662394140478
1580417278.95341,2.22781719691761,0.091554131380235,0.152590218966907
1580417278.95741,1.67849240863666,-0.152590218966907,0.274662394140478
1580417278.9614,0.946059357595232,0.091554131380235,0.335698481727377
1580417278.9654,0.274662394140478,0.274662394140478,0.396734569314049
1580417278.96939,0.396734569314049,0.274662394140478,0.51880674448762
1580417278.97338,0.823987182421661,-0.152590218966907,0.51880674448762
1580417278.97738,1.19020370794237,-0.823987182421661,0.51880674448762
1580417278.98137,1.55642023346309,-1.19020370794237,0.51880674448762
1580417278.98538,1.8616006713969,-1.61745632104976,0.396734569314049
1580417278.98938,2.16678110933094,-1.49538414587619,0.335698481727377
1580417278.99337,2.10574502174404,-1.31227588311594,0.335698481727377
1580417278.99736,1.98367284657047,-1.0070954451819,0.457770656900948
1580417279.00136,1.98367284657047,-1.0070954451819,0.457770656900948
1580417279.00535,1.8616006713969,-0.946059357595232,0.457770656900948
1580417279.00935,1.98367284657047,-0.946059357595232,0.396734569314049
1580417279.01334,2.10574502174404,-0.823987182421661,0.579842832074519
1580417279.01733,2.34988937209118,-0.579842832074519,0.396734569314049
1580417279.02133,2.34988937209118,-0.335698481727377,0.335698481727377
1580417279.02532,2.10574502174404,-0.213626306553806,0.335698481727377
1580417279.02932,1.80056458381023,-0.152590218966907,0.335698481727377
1580417279.03331,1.31227588311594,-0.152590218966907,0.457770656900948
1580417279.0373,0.946059357595232,-0.274662394140478,0.396734569314049
1580417279.0413,0.823987182421661,-0.579842832074519,0.335698481727377
1580417279.04529,0.946059357595232,-0.70191500724809,0.274662394140478
1580417279.04929,0.946059357595232,-0.640878919661191,0.274662394140478
1580417279.05328,1.12916762035547,-0.51880674448762,0.335698481727377
1580417279.05727,1.12916762035547,-0.457770656900948,0.396734569314049
1580417279.06127,1.31227588311594,-0.213626306553806,0.396734569314049
1580417279.06525,1.43434805828952,-0.213626306553806,0.335698481727377
1580417279.06924,1.55642023346309,-0.213626306553806,0.396734569314049
1580417279.07323,1.9226367589838,-0.0305180437933359,0.335698481727377
1580417279.07723,1.9226367589838,1.0070954451819,0.396734569314049
1580417279.08122,1.73952849622333,2.16678110933094,0.579842832074519
1580417279.08522,1.19020370794237,0.70191500724809,0.579842832074519
1580417279.08921,1.55642023346309,0.640878919661191,0.274662394140478
1580417279.0932,1.61745632104976,0.274662394140478,0.152590218966907
1580417279.0972,0.762951094834762,0.823987182421661,0.091554131380235
1580417279.10119,-3.69268329900046,3.93682764934761,-1.12916762035547
1580417279.10519,-8.5755703059433,5.7068741893645,-1.49538414587619
1580417279.10918,-8.45349813076973,9.36903944457163,-1.61745632104976
1580417279.11317,-3.63164721141379,3.26543068589308,-1.0681315327688
1580417279.11717,-2.7771419851988,1.80056458381023,-0.946059357595232
1580417279.12116,-1.8616006713969,3.20439459830618,-0.152590218966907
1580417279.12516,-4.48615243762879,6.31723506523235,0.51880674448762
1580417279.12915,-2.89921416037237,7.23277637903402,0.091554131380235
1580417279.13314,-3.93682764934761,8.20935378042259,-1.49538414587619
1580417279.13714,-12.5429159990845,2.16678110933094,-13.5805294880597
1580417279.14113,64.3625543602657,-29.8161287861446,-71.3817044327459
1580417279.14514,42.6947432669565,-17.1206225680933,-73.7621118486304
1580417279.14913,19.0127412832837,-14.068818188754,-50.019073777371
1580417279.15313,-10.2235446707866,-6.98863202868688,-23.8956282902266
1580417279.15712,-18.2803082322423,0.335698481727377,-3.50957503624022
1580417279.16112,-6.74448767833974,1.0070954451819,-0.091554131380235
1580417279.16511,-1.25123979552905,2.10574502174404,-0.335698481727377
1580417279.1691,1.98367284657047,4.05889982452118,-0.213626306553806
1580417279.1731,3.69268329900046,6.5003433279926,0.213626306553806
1580417279.17709,3.02128633554594,4.48615243762879,0.213626306553806
1580417279.18109,2.16678110933094,1.49538414587619,0.152590218966907
1580417279.18508,2.22781719691761,1.80056458381023,0.274662394140478
1580417279.18907,1.19020370794237,3.38750286106665,0.274662394140478
1580417279.19307,-1.73952849622333,-1.19020370794237,0.274662394140478
1580417279.19706,-1.49538414587619,-1.19020370794237,0.213626306553806
1580417279.20106,-1.61745632104976,-0.0305180437933359,0.152590218966907
1580417279.20505,-1.98367284657047,-0.274662394140478,0.213626306553806
1580417279.20904,-0.823987182421661,-0.51880674448762,0.396734569314049
1580417279.21304,0.335698481727377,0.579842832074519,0.396734569314049
1580417279.21703,0.640878919661191,0.335698481727377,0.51880674448762
1580417279.22103,0.640878919661191,-0.274662394140478,0.51880674448762
1580417279.22501,0.885023270008332,-0.640878919661191,0.579842832074519
1580417279.229,1.0681315327688,-0.823987182421661,0.579842832074519
1580417279.23299,1.0070954451819,-1.19020370794237,0.51880674448762
1580417279.23699,0.885023270008332,-1.31227588311594,0.396734569314049
1580417279.24098,1.0681315327688,-1.12916762035547,0.457770656900948
1580417279.24498,1.25123979552905,-0.885023270008332,0.457770656900948
1580417279.24897,0.885023270008332,-0.70191500724809,0.51880674448762
1580417279.25296,0.51880674448762,-0.946059357595232,0.51880674448762
1580417279.25696,0.274662394140478,-1.25123979552905,0.51880674448762
1580417279.26095,0.335698481727377,-1.43434805828952,0.579842832074519
1580417279.26495,0.213626306553806,-1.12916762035547,0.51880674448762
1580417279.26894,0.152590218966907,-0.885023270008332,0.640878919661191
1580417279.27293,-0.0305180437933359,-0.70191500724809,0.579842832074519
1580417279.27693,-0.335698481727377,-0.640878919661191,0.70191500724809
1580417279.28092,-0.335698481727377,-0.70191500724809,0.70191500724809
1580417279.28492,-0.274662394140478,-0.640878919661191,0.579842832074519
1580417279.28891,-0.0305180437933359,-0.51880674448762,0.457770656900948
1580417279.2929,0.579842832074519,-0.335698481727377,0.51880674448762
1580417279.2969,1.12916762035547,-0.457770656900948,0.335698481727377
1580417279.30089,1.61745632104976,-0.51880674448762,0.457770656900948
1580417279.3049,1.73952849622333,-0.457770656900948,0.51880674448762
1580417279.30889,2.04470893415737,-0.457770656900948,0.51880674448762
1580417279.31289,2.10574502174404,-0.091554131380235,0.579842832074519
1580417279.31688,1.8616006713969,-0.0305180437933359,0.457770656900948
1580417279.32088,1.55642023346309,-0.274662394140478,0.579842832074519
1580417279.32487,1.12916762035547,-0.457770656900948,0.51880674448762
1580417279.32886,0.946059357595232,-0.335698481727377,0.579842832074519
1580417279.33286,0.885023270008332,-0.152590218966907,0.640878919661191
1580417279.33685,0.823987182421661,-0.0305180437933359,0.51880674448762
1580417279.34085,0.885023270008332,0.091554131380235,0.640878919661191
1580417279.34484,0.823987182421661,0.152590218966907,0.457770656900948
1580417279.34883,1.19020370794237,0.152590218966907,0.396734569314049
1580417279.35283,1.37331197070262,0.396734569314049,0.457770656900948
1580417279.35682,1.49538414587619,0.457770656900948,0.51880674448762
1580417279.36082,1.37331197070262,0.396734569314049,0.51880674448762
1580417279.36481,1.19020370794237,0.213626306553806,0.51880674448762
1580417279.3688,1.0070954451819,0.213626306553806,0.396734569314049
1580417279.3728,0.885023270008332,0.213626306553806,0.396734569314049
1580417279.37679,0.823987182421661,0.396734569314049,0.457770656900948
1580417279.38079,0.823987182421661,0.335698481727377,0.396734569314049
1580417279.38476,0.762951094834762,0.274662394140478,0.579842832074519
1580417279.38876,0.70191500724809,0.213626306553806,0.51880674448762
1580417279.39275,0.579842832074519,0.091554131380235,0.51880674448762
1580417279.39675,0.457770656900948,0.0305180437933359,0.51880674448762
1580417279.40074,0.396734569314049,-0.0305180437933359,0.51880674448762
1580417279.40473,0.457770656900948,-0.152590218966907,0.457770656900948
1580417279.40873,0.51880674448762,-0.152590218966907,0.51880674448762
1580417279.41272,0.640878919661191,-0.213626306553806,0.457770656900948
1580417279.41672,0.640878919661191,-0.274662394140478,0.396734569314049
1580417279.42071,0.579842832074519,-0.213626306553806,0.457770656900948
1580417279.42471,0.457770656900948,-0.274662394140478,0.579842832074519
1580417279.4287,0.274662394140478,-0.396734569314049,0.51880674448762
1580417279.43269,0.213626306553806,-0.396734569314049,0.579842832074519
1580417279.43669,0.152590218966907,-0.396734569314049,0.51880674448762
1580417279.44068,0.274662394140478,-0.51880674448762,0.457770656900948
1580417279.44467,0.152590218966907,-0.396734569314049,0.457770656900948
1580417279.44867,0.152590218966907,-0.091554131380235,0.396734569314049
1580417279.45266,0.213626306553806,-0.0305180437933359,0.396734569314049
1580417279.45666,0.152590218966907,-0.091554131380235,0.457770656900948
1580417279.46065,0.091554131380235,-0.152590218966907,0.396734569314049
1580417279.46466,-0.0305180437933359,-0.091554131380235,0.457770656900948
1580417279.46865,0.0305180437933359,-0.0305180437933359,0.457770656900948
1580417279.47265,0.091554131380235,-0.0305180437933359,0.396734569314049
1580417279.47664,0.152590218966907,-0.0305180437933359,0.51880674448762
1580417279.48064,0.0305180437933359,-0.091554131380235,0.579842832074519
1580417279.48463,0.091554131380235,-0.091554131380235,0.51880674448762
1580417279.48862,0.091554131380235,0.0305180437933359,0.457770656900948
1580417279.49262,0.091554131380235,0.091554131380235,0.457770656900948
1580417279.49661,-0.0305180437933359,-0.0305180437933359,0.457770656900948
1580417279.50061,0.091554131380235,-0.091554131380235,0.396734569314049
1580417279.5046,0.213626306553806,0.0305180437933359,0.51880674448762
1580417279.50859,0.335698481727377,-0.0305180437933359,0.396734569314049
1580417279.51259,0.335698481727377,-0.213626306553806,0.457770656900948
1580417279.51658,0.396734569314049,-0.274662394140478,0.457770656900948
1580417279.52058,0.335698481727377,-0.213626306553806,0.396734569314049
1580417279.52457,0.335698481727377,-0.274662394140478,0.457770656900948
1580417279.52856,0.579842832074519,-0.335698481727377,0.396734569314049
1580417279.53256,0.579842832074519,-0.213626306553806,0.396734569314049
1580417279.53655,0.457770656900948,-0.457770656900948,0.457770656900948
1580417279.54055,0.579842832074519,-0.457770656900948,0.457770656900948
1580417279.54452,0.640878919661191,-0.51880674448762,0.457770656900948
1580417279.54852,0.70191500724809,-0.579842832074519,0.457770656900948
1580417279.55251,0.762951094834762,-0.457770656900948,0.396734569314049
1580417279.55651,0.762951094834762,-0.335698481727377,0.396734569314049
1580417279.5605,0.640878919661191,-0.152590218966907,0.457770656900948
1580417279.56449,0.885023270008332,-0.091554131380235,0.579842832074519
1580417279.56849,0.823987182421661,-0.213626306553806,0.396734569314049
1580417279.57248,0.946059357595232,-0.152590218966907,0.274662394140478
1580417279.57648,0.823987182421661,-0.0305180437933359,0.335698481727377
1580417279.58047,0.70191500724809,0.213626306553806,0.457770656900948
1580417279.58447,0.762951094834762,0.274662394140478,0.274662394140478
1580417279.58846,0.823987182421661,0.457770656900948,0.335698481727377
1580417279.59245,0.946059357595232,0.51880674448762,0.335698481727377
1580417279.59645,1.0070954451819,0.274662394140478,0.396734569314049
1580417279.60044,0.946059357595232,0.274662394140478,0.396734569314049
1580417279.60443,0.946059357595232,0.274662394140478,0.457770656900948
1580417279.60843,0.885023270008332,0.091554131380235,0.396734569314049
1580417279.61242,0.70191500724809,0.0305180437933359,0.457770656900948
1580417279.61642,0.762951094834762,-0.213626306553806,0.457770656900948
1580417279.62041,0.762951094834762,-0.274662394140478,0.396734569314049
1580417279.62442,0.885023270008332,-0.335698481727377,0.274662394140478
1580417279.62841,1.12916762035547,-0.396734569314049,0.396734569314049
1580417279.63241,1.31227588311594,-0.51880674448762,0.335698481727377
1580417279.6364,1.67849240863666,-0.640878919661191,0.335698481727377
1580417279.6404,1.98367284657047,-0.70191500724809,0.274662394140478
1580417279.64439,2.34988937209118,-0.70191500724809,0.213626306553806
1580417279.64838,2.53299763485165,-0.640878919661191,0.274662394140478
1580417279.65238,2.65506981002522,-0.579842832074519,0.396734569314049
1580417279.65637,2.53299763485165,-0.51880674448762,0.335698481727377
1580417279.66037,2.47196154726475,-0.396734569314049,0.335698481727377
1580417279.66436,2.34988937209118,-0.457770656900948,0.396734569314049
1580417279.66835,2.22781719691761,-0.579842832074519,0.274662394140478
1580417279.67235,2.10574502174404,-0.51880674448762,0.152590218966907
1580417279.67634,2.04470893415737,-0.457770656900948,0.213626306553806
1580417279.68034,1.73952849622333,-0.396734569314049,0.274662394140478
1580417279.68433,1.49538414587619,-0.51880674448762,0.335698481727377
1580417279.68832,1.0681315327688,-0.335698481727377,0.335698481727377
1580417279.69232,1.0070954451819,-0.0305180437933359,0.396734569314049
1580417279.69631,1.19020370794237,0.091554131380235,0.396734569314049
1580417279.70031,1.37331197070262,0.0305180437933359,0.335698481727377
1580417279.70431,1.49538414587619,0.091554131380235,0.396734569314049
1580417279.70831,1.61745632104976,0.152590218966907,0.457770656900948
1580417279.7123,1.61745632104976,0.152590218966907,0.274662394140478
1580417279.7163,1.37331197070262,0.0305180437933359,0.213626306553806
1580417279.72029,1.67849240863666,-0.152590218966907,0.396734569314049
1580417279.72428,1.73952849622333,-0.091554131380235,0.396734569314049
1580417279.72828,1.80056458381023,-0.152590218966907,0.457770656900948
1580417279.73227,1.73952849622333,-0.335698481727377,0.457770656900948
1580417279.73627,1.67849240863666,-0.396734569314049,0.457770656900948
1580417279.74026,1.67849240863666,-0.152590218966907,0.579842832074519
1580417279.74425,1.49538414587619,-0.091554131380235,0.457770656900948
1580417279.74825,1.37331197070262,-0.091554131380235,0.51880674448762
1580417279.75224,1.31227588311594,-0.0305180437933359,0.51880674448762
1580417279.75624,1.31227588311594,-0.091554131380235,0.457770656900948
1580417279.76023,1.31227588311594,-0.091554131380235,0.335698481727377
1580417279.76423,1.49538414587619,-0.152590218966907,0.335698481727377
1580417279.76822,1.55642023346309,-0.091554131380235,0.335698481727377
1580417279.77221,1.67849240863666,-0.091554131380235,0.396734569314049
1580417279.77621,1.67849240863666,-0.091554131380235,0.335698481727377
1580417279.7802,1.67849240863666,-0.091554131380235,0.274662394140478
1580417279.78418,1.55642023346309,0.091554131380235,0.396734569314049
1580417279.78817,1.31227588311594,0.152590218966907,0.457770656900948
1580417279.79217,1.25123979552905,0.213626306553806,0.51880674448762
1580417279.79616,1.0681315327688,0.335698481727377,0.51880674448762
1580417279.80015,0.946059357595232,0.396734569314049,0.51880674448762
1580417279.80415,0.885023270008332,0.457770656900948,0.51880674448762
1580417279.80814,0.946059357595232,0.335698481727377,0.51880674448762
1580417279.81214,0.70191500724809,0.152590218966907,0.579842832074519
1580417279.81613,0.457770656900948,0.152590218966907,0.457770656900948
1580417279.82012,0.213626306553806,0.152590218966907,0.579842832074519
1580417279.82412,0.213626306553806,0.152590218966907,0.579842832074519
1580417279.82811,0.274662394140478,0.152590218966907,0.579842832074519
1580417279.83211,0.457770656900948,0.274662394140478,0.579842832074519
1580417279.8361,0.640878919661191,0.213626306553806,0.457770656900948
1580417279.8401,0.762951094834762,0.152590218966907,0.396734569314049
1580417279.84409,0.946059357595232,0.152590218966907,0.396734569314049
1580417279.84808,1.0681315327688,0.091554131380235,0.335698481727377
1580417279.85208,1.12916762035547,0.213626306553806,0.335698481727377
1580417279.85607,1.19020370794237,0.091554131380235,0.396734569314049
1580417279.86006,1.19020370794237,0.091554131380235,0.51880674448762
1580417279.86407,1.0681315327688,0.152590218966907,0.457770656900948
1580417279.86807,0.946059357595232,0.091554131380235,0.335698481727377
1580417279.87206,0.885023270008332,-0.0305180437933359,0.457770656900948
1580417279.87606,0.823987182421661,0.213626306553806,0.51880674448762
1580417279.88005,0.823987182421661,0.213626306553806,0.579842832074519
1580417279.88404,0.946059357595232,0.152590218966907,0.579842832074519
1580417279.88804,0.823987182421661,0.213626306553806,0.51880674448762
1580417279.89203,0.70191500724809,0.274662394140478,0.579842832074519
1580417279.89603,0.70191500724809,0.091554131380235,0.51880674448762
1580417279.90002,0.579842832074519,0.152590218966907,0.335698481727377
1580417279.90401,0.579842832074519,0.213626306553806,0.335698481727377
1580417279.90801,0.640878919661191,0.213626306553806,0.396734569314049
1580417279.912,0.70191500724809,0.213626306553806,0.396734569314049
1580417279.916,0.762951094834762,0.274662394140478,0.274662394140478
1580417279.91999,1.0070954451819,0.396734569314049,0.457770656900948
1580417279.92398,0.946059357595232,0.457770656900948,0.396734569314049
1580417279.92798,1.0681315327688,0.640878919661191,0.396734569314049
1580417279.93197,1.31227588311594,3.08232242313261,0.396734569314049
1580417279.93597,0.640878919661191,1.73952849622333,0.335698481727377
1580417279.93996,1.37331197070262,1.0070954451819,0.335698481727377
1580417279.94394,1.98367284657047,0.823987182421661,0.274662394140478
1580417279.94793,1.55642023346309,0.823987182421661,0.274662394140478
1580417279.95193,0.335698481727377,1.8616006713969,-0.0305180437933359
1580417279.95592,0.0305180437933359,2.89921416037237,0.0305180437933359
1580417279.95991,1.0681315327688,1.9226367589838,0.396734569314049
1580417279.96391,1.37331197070262,1.43434805828952,0.274662394140478
1580417279.9679,1.9226367589838,1.49538414587619,0.152590218966907
1580417279.9719,1.0070954451819,0.885023270008332,0.152590218966907
1580417279.97589,-3.81475547417404,2.83817807278547,-0.946059357595232
1580417279.97988,-10.3456168459602,6.07309071488521,-2.65506981002522
1580417279.98388,-4.66926070038903,7.96520943007545,-1.61745632104976
1580417279.98787,0.640878919661191,-0.640878919661191,-0.091554131380235
1580417279.99187,-2.10574502174404,2.10574502174404,0.0305180437933359
1580417279.99586,-0.213626306553806,3.38750286106665,0.579842832074519
1580417279.99986,4.18097199969475,2.7161058976119,0.51880674448762
1580417280.00385,2.89921416037237,-0.396734569314049,0.091554131380235
1580417280.00784,-2.7771419851988,0.823987182421661,-0.579842832074519
1580417280.01184,0.091554131380235,1.31227588311594,0.152590218966907
1580417280.01583,2.96025024795904,1.80056458381023,0.274662394140478
1580417280.01982,2.83817807278547,2.04470893415737,0.335698481727377
1580417280.02383,-1.9226367589838,2.7161058976119,-0.0305180437933359
1580417280.02783,-1.55642023346309,2.7161058976119,-0.335698481727377
1580417280.03182,1.0070954451819,4.7913328755626,-0.0305180437933359
1580417280.03582,-5.7068741893645,5.27962157625689,-2.04470893415737
1580417280.03981,-12.4818799114976,9.4300755321583,-3.38750286106665
1580417280.0438,-4.97444113832307,4.7913328755626,-0.640878919661191
1580417280.0478,0.152590218966907,-0.640878919661191,0.51880674448762
1580417280.05179,-1.31227588311594,0.152590218966907,0.335698481727377
1580417280.05579,2.41092545967808,3.08232242313261,0.091554131380235
1580417280.05978,3.44853894865332,1.98367284657047,0.152590218966907
1580417280.06377,3.14335851071951,0.51880674448762,0.335698481727377
1580417280.06777,2.47196154726475,-0.457770656900948,0.274662394140478
1580417280.07176,-5.82894636453807,-0.213626306553806,-0.640878919661191
1580417280.07576,-4.54718852521546,-6.56137941557949,-3.99786373693451
1580417280.07975,-16.8764782177461,-12.1156633859769,-14.9843595025559
1580417280.08374,38.1780727855344,-19.7451743343252,-27.8629739833675
1580417280.08774,29.8161287861446,-8.94178683146401,-16.3271534294652
1580417280.09173,-0.70191500724809,2.89921416037237,-0.70191500724809
1580417280.09573,23.1021591515982,-6.37827115281902,-24.3839169909209
1580417280.09972,39.4598306248567,-14.6791790646218,-42.023346303502
1580417280.1037,15.1674677653161,-6.01205462729831,-20.904859998474
1580417280.10769,-1.9226367589838,-4.18097199969475,-2.59403372243833
1580417280.11169,-2.7771419851988,-1.55642023346309,0.213626306553806
1580417280.11568,-1.43434805828952,2.22781719691761,0.0305180437933359
1580417280.11967,-0.152590218966907,0.946059357595232,0.274662394140478
1580417280.12367,-1.98367284657047,2.41092545967808,0.457770656900948
1580417280.12766,-1.31227588311594,-0.274662394140478,0.396734569314049
1580417280.13166,4.18097199969475,-0.70191500724809,0.335698481727377
1580417280.13565,6.62241550316617,0.51880674448762,0.213626306553806
1580417280.13964,3.69268329900046,1.67849240863666,0.213626306553806
1580417280.14364,1.49538414587619,0.885023270008332,0.396734569314049
1580417280.14763,1.55642023346309,-0.0305180437933359,0.51880674448762
1580417280.15163,2.10574502174404,-1.37331197070262,0.457770656900948
1580417280.15562,2.41092545967808,0.0305180437933359,0.335698481727377
1580417280.15961,1.8616006713969,0.823987182421661,0.396734569314049
1580417280.16361,2.04470893415737,0.396734569314049,0.396734569314049
1580417280.1676,1.8616006713969,0.091554131380235,0.396734569314049
1580417280.1716,1.12916762035547,-0.274662394140478,0.396734569314049
1580417280.17559,0.885023270008332,-0.396734569314049,0.457770656900948
1580417280.17958,0.946059357595232,-0.335698481727377,0.457770656900948
1580417280.18359,1.61745632104976,-0.213626306553806,0.579842832074519
1580417280.18759,2.10574502174404,-0.0305180437933359,0.457770656900948
1580417280.19158,2.04470893415737,-0.152590218966907,0.457770656900948
1580417280.19557,1.55642023346309,-0.091554131380235,0.396734569314049
1580417280.19957,1.12916762035547,-0.091554131380235,0.396734569314049
1580417280.20356,0.946059357595232,-0.152590218966907,0.335698481727377
1580417280.20756,0.823987182421661,-0.091554131380235,0.396734569314049
1580417280.21155,0.885023270008332,0.0305180437933359,0.457770656900948
1580417280.21554,1.12916762035547,0.335698481727377,0.457770656900948
1580417280.21954,1.12916762035547,0.579842832074519,0.51880674448762
1580417280.22353,0.946059357595232,0.762951094834762,0.51880674448762
1580417280.22753,0.823987182421661,0.579842832074519,0.396734569314049
1580417280.23152,0.70191500724809,0.396734569314049,0.396734569314049
1580417280.23551,0.762951094834762,0.091554131380235,0.396734569314049
1580417280.23951,0.640878919661191,0.0305180437933359,0.457770656900948
1580417280.2435,0.640878919661191,-0.0305180437933359,0.396734569314049
1580417280.2475,0.396734569314049,-0.091554131380235,0.396734569314049
1580417280.25149,0.396734569314049,-0.091554131380235,0.51880674448762
1580417280.25548,0.274662394140478,-0.0305180437933359,0.579842832074519
1580417280.25948,0.396734569314049,0.091554131380235,0.51880674448762
1580417280.26346,0.396734569314049,-0.0305180437933359,0.457770656900948
1580417280.26745,0.70191500724809,-0.0305180437933359,0.579842832074519
1580417280.27145,0.885023270008332,0.0305180437933359,0.51880674448762
1580417280.27544,1.0681315327688,0.091554131380235,0.51880674448762
1580417280.27943,1.19020370794237,0.213626306553806,0.51880674448762
1580417280.28343,1.25123979552905,0.274662394140478,0.51880674448762
1580417280.28742,1.31227588311594,0.091554131380235,0.457770656900948
1580417280.29142,1.49538414587619,-0.0305180437933359,0.457770656900948
1580417280.29541,1.37331197070262,-0.0305180437933359,0.457770656900948
1580417280.2994,1.12916762035547,0.0305180437933359,0.51880674448762
1580417280.3034,0.946059357595232,0.0305180437933359,0.457770656900948
1580417280.30739,0.640878919661191,0.0305180437933359,0.457770656900948
1580417280.31139,0.457770656900948,0.091554131380235,0.396734569314049
1580417280.31538,0.396734569314049,0.0305180437933359,0.51880674448762
1580417280.31937,0.396734569314049,0.152590218966907,0.579842832074519
1580417280.32337,0.640878919661191,0.213626306553806,0.457770656900948
1580417280.32736,0.70191500724809,0.152590218966907,0.396734569314049
1580417280.33136,0.946059357595232,0.0305180437933359,0.457770656900948
1580417280.33535,1.0681315327688,0.0305180437933359,0.51880674448762
1580417280.33934,1.0681315327688,-0.152590218966907,0.640878919661191
1580417280.34335,1.12916762035547,-0.0305180437933359,0.640878919661191
1580417280.34735,1.25123979552905,0.152590218966907,0.579842832074519
1580417280.35134,1.43434805828952,0.213626306553806,0.579842832074519
1580417280.35533,1.37331197070262,0.335698481727377,0.396734569314049
1580417280.35933,1.12916762035547,0.396734569314049,0.396734569314049
1580417280.36332,1.0070954451819,0.274662394140478,0.51880674448762
1580417280.36732,1.0070954451819,0.213626306553806,0.396734569314049
1580417280.37131,1.12916762035547,0.213626306553806,0.396734569314049
1580417280.3753,1.19020370794237,0.091554131380235,0.457770656900948
1580417280.3793,1.19020370794237,0.213626306553806,0.396734569314049
1580417280.38329,1.0681315327688,0.274662394140478,0.335698481727377
1580417280.38729,1.0070954451819,0.396734569314049,0.51880674448762
1580417280.39128,0.823987182421661,0.274662394140478,0.457770656900948
1580417280.39527,0.823987182421661,0.396734569314049,0.51880674448762
1580417280.39927,1.19020370794237,0.396734569314049,0.457770656900948
1580417280.40326,1.49538414587619,0.51880674448762,0.457770656900948
1580417280.40726,1.49538414587619,0.457770656900948,0.335698481727377
1580417280.41125,1.37331197070262,0.396734569314049,0.396734569314049
1580417280.41524,1.12916762035547,0.335698481727377,0.457770656900948
1580417280.41924,0.762951094834762,0.213626306553806,0.457770656900948
1580417280.42322,0.579842832074519,0.396734569314049,0.457770656900948
1580417280.42721,0.640878919661191,0.457770656900948,0.457770656900948
1580417280.43121,0.762951094834762,0.640878919661191,0.396734569314049
1580417280.4352,1.12916762035547,0.579842832074519,0.335698481727377
1580417280.43919,1.0681315327688,0.51880674448762,0.274662394140478
1580417280.44319,1.12916762035547,0.51880674448762,0.335698481727377
1580417280.44718,1.0681315327688,0.396734569314049,0.335698481727377
1580417280.45117,0.946059357595232,0.335698481727377,0.396734569314049
1580417280.45517,1.0070954451819,0.0305180437933359,0.396734569314049
1580417280.45916,0.946059357595232,-0.152590218966907,0.335698481727377
1580417280.46316,0.885023270008332,-0.152590218966907,0.335698481727377
1580417280.46715,0.823987182421661,-0.274662394140478,0.274662394140478
1580417280.47114,0.946059357595232,-0.335698481727377,0.335698481727377
1580417280.47514,0.946059357595232,-0.274662394140478,0.335698481727377
1580417280.47913,1.19020370794237,-0.335698481727377,0.335698481727377
1580417280.48313,1.37331197070262,-0.335698481727377,0.213626306553806
1580417280.48712,1.43434805828952,-0.335698481727377,0.396734569314049
1580417280.49111,1.43434805828952,-0.396734569314049,0.457770656900948
1580417280.49511,1.31227588311594,-0.396734569314049,0.51880674448762
1580417280.4991,1.25123979552905,-0.335698481727377,0.396734569314049
1580417280.50311,1.37331197070262,-0.274662394140478,0.396734569314049
1580417280.50711,1.37331197070262,-0.335698481727377,0.457770656900948
1580417280.5111,1.25123979552905,-0.274662394140478,0.335698481727377
1580417280.51509,1.0681315327688,-0.335698481727377,0.457770656900948
1580417280.51909,1.0681315327688,-0.396734569314049,0.396734569314049
1580417280.52308,1.12916762035547,-0.51880674448762,0.274662394140478
1580417280.52708,1.31227588311594,-0.51880674448762,0.274662394140478
1580417280.53107,1.43434805828952,-0.396734569314049,0.274662394140478
1580417280.53506,1.43434805828952,-0.579842832074519,0.335698481727377
1580417280.53906,1.37331197070262,-0.762951094834762,0.396734569314049
1580417280.54305,1.37331197070262,-0.640878919661191,0.457770656900948
1580417280.54705,1.49538414587619,-0.579842832074519,0.457770656900948
1580417280.55104,1.55642023346309,-0.51880674448762,0.457770656900948
1580417280.55503,1.55642023346309,-0.335698481727377,0.457770656900948
1580417280.55903,1.67849240863666,-0.274662394140478,0.396734569314049
1580417280.56302,1.67849240863666,-0.335698481727377,0.457770656900948
1580417280.56702,1.55642023346309,-0.335698481727377,0.335698481727377
1580417280.57101,1.31227588311594,-0.51880674448762,0.396734569314049
1580417280.575,1.0681315327688,-0.457770656900948,0.457770656900948
1580417280.579,1.0681315327688,-0.396734569314049,0.457770656900948
1580417280.58298,1.25123979552905,-0.335698481727377,0.274662394140478
1580417280.58697,1.49538414587619,-0.396734569314049,0.213626306553806
1580417280.59097,1.73952849622333,-0.396734569314049,0.335698481727377
1580417280.59496,1.80056458381023,-0.51880674448762,0.396734569314049
1580417280.59895,1.73952849622333,-0.640878919661191,0.335698481727377
1580417280.60295,1.8616006713969,-0.70191500724809,0.396734569314049
1580417280.60694,1.9226367589838,-0.70191500724809,0.396734569314049
1580417280.61093,1.8616006713969,-0.70191500724809,0.335698481727377
1580417280.61493,1.9226367589838,-0.640878919661191,0.457770656900948
1580417280.61892,2.04470893415737,-0.640878919661191,0.396734569314049
1580417280.62292,2.16678110933094,-0.579842832074519,0.457770656900948
1580417280.62691,1.9226367589838,-0.396734569314049,0.51880674448762
1580417280.6309,1.8616006713969,-0.213626306553806,0.457770656900948
1580417280.6349,1.80056458381023,-0.091554131380235,0.396734569314049
1580417280.63889,1.55642023346309,0.0305180437933359,0.396734569314049
1580417280.64289,1.43434805828952,-0.152590218966907,0.396734569314049
1580417280.64688,1.31227588311594,0.0305180437933359,0.335698481727377
1580417280.65087,1.31227588311594,0.091554131380235,0.274662394140478
1580417280.65487,1.19020370794237,0.152590218966907,0.396734569314049
1580417280.65886,1.12916762035547,0.335698481727377,0.396734569314049
1580417280.66287,0.946059357595232,0.396734569314049,0.335698481727377
1580417280.66687,0.823987182421661,0.213626306553806,0.396734569314049
1580417280.67086,0.823987182421661,0.0305180437933359,0.579842832074519
1580417280.67485,0.762951094834762,-0.152590218966907,0.51880674448762
1580417280.67885,0.885023270008332,-0.213626306553806,0.396734569314049
1580417280.68284,0.823987182421661,-0.152590218966907,0.274662394140478
1580417280.68684,0.885023270008332,-0.152590218966907,0.335698481727377
1580417280.69083,0.823987182421661,-0.457770656900948,0.396734569314049
1580417280.69482,0.885023270008332,-0.457770656900948,0.396734569314049
1580417280.69882,1.19020370794237,-0.51880674448762,0.274662394140478
1580417280.70281,1.55642023346309,-0.579842832074519,0.335698481727377
1580417280.70681,1.73952849622333,-0.579842832074519,0.396734569314049
1580417280.7108,1.80056458381023,-0.457770656900948,0.457770656900948
1580417280.71479,1.73952849622333,-0.457770656900948,0.457770656900948
1580417280.71879,1.73952849622333,-0.579842832074519,0.396734569314049
1580417280.72278,1.67849240863666,-0.640878919661191,0.274662394140478
1580417280.72678,1.73952849622333,-0.579842832074519,0.396734569314049
1580417280.73077,1.73952849622333,-0.457770656900948,0.396734569314049
1580417280.73476,1.80056458381023,-0.274662394140478,0.396734569314049
1580417280.73876,1.61745632104976,-0.091554131380235,0.396734569314049
1580417280.74274,1.31227588311594,-0.091554131380235,0.335698481727377
1580417280.74673,1.12916762035547,-0.152590218966907,0.457770656900948
1580417280.75072,0.946059357595232,-0.213626306553806,0.457770656900948
1580417280.75472,1.0681315327688,-0.274662394140478,0.335698481727377
1580417280.75871,1.19020370794237,-0.457770656900948,0.396734569314049
1580417280.76271,1.37331197070262,-0.457770656900948,0.457770656900948
1580417280.7667,1.19020370794237,-0.579842832074519,0.457770656900948
1580417280.77069,1.19020370794237,-0.51880674448762,0.335698481727377
1580417280.77469,1.25123979552905,-0.51880674448762,0.396734569314049
1580417280.77868,1.55642023346309,-0.213626306553806,0.457770656900948
1580417280.78268,1.73952849622333,0.0305180437933359,0.579842832074519
1580417280.78667,1.67849240863666,-0.0305180437933359,0.396734569314049
1580417280.79066,1.61745632104976,0.091554131380235,0.335698481727377
1580417280.79466,1.25123979552905,-0.0305180437933359,0.396734569314049
1580417280.79865,1.0681315327688,-0.274662394140478,0.213626306553806
1580417280.80265,0.823987182421661,-0.396734569314049,0.396734569314049
1580417280.80664,0.823987182421661,-0.274662394140478,0.457770656900948
1580417280.81063,0.946059357595232,-0.152590218966907,0.51880674448762
1580417280.81463,0.762951094834762,-0.091554131380235,0.51880674448762
1580417280.81862,0.51880674448762,-0.0305180437933359,0.640878919661191
1580417280.82263,0.579842832074519,0.0305180437933359,0.579842832074519
1580417280.82662,0.70191500724809,0.091554131380235,0.579842832074519
1580417280.83062,1.0070954451819,0.213626306553806,0.579842832074519
1580417280.83461,1.25123979552905,0.152590218966907,0.51880674448762
1580417280.83861,1.12916762035547,0.152590218966907,0.396734569314049
1580417280.8426,1.12916762035547,0.152590218966907,0.335698481727377
1580417280.84659,1.19020370794237,0.091554131380235,0.396734569314049
1580417280.85059,1.0681315327688,-0.0305180437933359,0.51880674448762
1580417280.85458,1.25123979552905,-0.091554131380235,0.396734569314049
1580417280.85858,1.31227588311594,-0.152590218966907,0.396734569314049
1580417280.86257,1.61745632104976,-0.091554131380235,0.274662394140478
1580417280.86656,1.61745632104976,0.0305180437933359,0.335698481727377
1580417280.87056,1.67849240863666,0.152590218966907,0.335698481727377
1580417280.87455,1.61745632104976,0.0305180437933359,0.396734569314049
1580417280.87855,1.55642023346309,-0.091554131380235,0.51880674448762
1580417280.88254,1.37331197070262,-0.152590218966907,0.457770656900948
1580417280.88653,1.25123979552905,-0.213626306553806,0.396734569314049
1580417280.89053,1.19020370794237,-0.274662394140478,0.396734569314049
1580417280.89452,1.0681315327688,-0.335698481727377,0.457770656900948
1580417280.89852,0.885023270008332,-0.457770656900948,0.396734569314049
1580417280.9025,1.0070954451819,-0.579842832074519,0.335698481727377
1580417280.90649,1.0681315327688,-0.70191500724809,0.335698481727377
1580417280.91048,1.31227588311594,-0.823987182421661,0.396734569314049
1580417280.91448,1.55642023346309,-0.885023270008332,0.335698481727377
1580417280.91847,1.67849240863666,-0.762951094834762,0.396734569314049
1580417280.92247,1.8616006713969,-0.885023270008332,0.396734569314049
1580417280.92646,2.10574502174404,-0.885023270008332,0.335698481727377
1580417280.93045,2.16678110933094,-0.885023270008332,0.396734569314049
1580417280.93445,2.22781719691761,-0.823987182421661,0.274662394140478
1580417280.93844,2.22781719691761,-0.579842832074519,0.396734569314049
1580417280.94244,2.04470893415737,-0.51880674448762,0.335698481727377
1580417280.94643,1.9226367589838,-0.335698481727377,0.396734569314049
1580417280.95042,1.9226367589838,-0.213626306553806,0.396734569314049
1580417280.95442,1.9226367589838,-0.152590218966907,0.335698481727377
1580417280.95841,1.9226367589838,-0.091554131380235,0.457770656900948
1580417280.96241,1.8616006713969,-0.0305180437933359,0.51880674448762
1580417280.9664,1.67849240863666,-0.0305180437933359,0.457770656900948
1580417280.97039,1.55642023346309,-0.091554131380235,0.579842832074519
1580417280.97439,1.67849240863666,0.091554131380235,0.335698481727377
1580417280.97838,1.8616006713969,0.152590218966907,0.396734569314049
1580417280.98239,1.80056458381023,0.274662394140478,0.51880674448762
1580417280.98638,1.61745632104976,0.335698481727377,0.396734569314049
1580417280.99038,1.55642023346309,0.213626306553806,0.335698481727377
1580417280.99437,1.31227588311594,0.274662394140478,0.396734569314049
1580417280.99837,1.25123979552905,0.274662394140478,0.457770656900948
1580417281.00236,1.55642023346309,0.335698481727377,0.51880674448762
1580417281.00636,1.49538414587619,0.579842832074519,0.457770656900948
1580417281.01035,1.43434805828952,0.823987182421661,0.457770656900948
1580417281.01434,1.12916762035547,0.640878919661191,0.457770656900948
1580417281.01834,0.946059357595232,0.640878919661191,0.51880674448762
1580417281.02233,0.946059357595232,0.51880674448762,0.396734569314049
1580417281.02632,1.0070954451819,0.579842832074519,0.579842832074519
1580417281.03032,1.25123979552905,0.51880674448762,0.51880674448762
1580417281.03431,1.25123979552905,0.335698481727377,0.457770656900948
1580417281.03831,1.19020370794237,-0.0305180437933359,0.457770656900948
1580417281.0423,0.946059357595232,-0.152590218966907,0.396734569314049
1580417281.04629,0.762951094834762,-0.091554131380235,0.51880674448762
1580417281.05029,0.823987182421661,-0.152590218966907,0.51880674448762
1580417281.05428,0.885023270008332,-0.213626306553806,0.457770656900948
1580417281.05828,1.19020370794237,-0.213626306553806,0.457770656900948
1580417281.06225,1.37331197070262,-0.396734569314049,0.396734569314049
1580417281.06625,1.43434805828952,-0.51880674448762,0.51880674448762
1580417281.07024,1.43434805828952,-0.640878919661191,0.457770656900948
1580417281.07424,1.31227588311594,-0.51880674448762,0.396734569314049
1580417281.07823,1.25123979552905,-0.51880674448762,0.457770656900948
1580417281.08222,1.37331197070262,-0.396734569314049,0.457770656900948
1580417281.08622,1.37331197070262,-0.274662394140478,0.457770656900948
1580417281.09021,1.55642023346309,0.0305180437933359,0.457770656900948
1580417281.09421,1.49538414587619,-0.091554131380235,0.457770656900948
1580417281.0982,1.37331197070262,0.0305180437933359,0.396734569314049
1580417281.1022,1.0681315327688,0.0305180437933359,0.457770656900948
1580417281.10619,1.19020370794237,-0.0305180437933359,0.396734569314049
1580417281.11018,1.37331197070262,-0.0305180437933359,0.579842832074519
1580417281.11418,1.31227588311594,0.152590218966907,0.457770656900948
1580417281.11817,1.25123979552905,0.274662394140478,0.51880674448762
1580417281.12216,1.37331197070262,0.274662394140478,0.579842832074519
1580417281.12616,1.55642023346309,0.213626306553806,0.579842832074519
1580417281.13015,1.55642023346309,-0.0305180437933359,0.457770656900948
1580417281.13415,1.61745632104976,-0.091554131380235,0.396734569314049
1580417281.13814,1.73952849622333,-0.213626306553806,0.396734569314049
1580417281.14215,1.98367284657047,-0.091554131380235,0.396734569314049
1580417281.14614,1.8616006713969,-0.091554131380235,0.335698481727377
1580417281.15014,1.55642023346309,0.152590218966907,0.457770656900948
1580417281.15413,1.37331197070262,0.396734569314049,0.396734569314049
1580417281.15813,1.49538414587619,0.335698481727377,0.396734569314049
1580417281.16212,1.80056458381023,0.213626306553806,0.457770656900948
1580417281.16611,2.10574502174404,0.274662394140478,0.51880674448762
1580417281.17011,2.16678110933094,0.0305180437933359,0.396734569314049
1580417281.1741,1.9226367589838,-0.091554131380235,0.457770656900948
1580417281.1781,1.67849240863666,-0.335698481727377,0.51880674448762
1580417281.18209,1.25123979552905,-0.396734569314049,0.457770656900948
1580417281.18608,1.12916762035547,-0.213626306553806,0.51880674448762
1580417281.19008,1.31227588311594,-0.213626306553806,0.457770656900948
1580417281.19407,1.73952849622333,-0.152590218966907,0.213626306553806
1580417281.19807,2.10574502174404,-0.274662394140478,0.396734569314049
1580417281.20206,2.10574502174404,-0.152590218966907,0.457770656900948
1580417281.20605,2.16678110933094,-0.0305180437933359,0.335698481727377
1580417281.21005,2.10574502174404,0.0305180437933359,0.274662394140478
1580417281.21404,2.16678110933094,0.0305180437933359,0.335698481727377
1580417281.21804,2.22781719691761,-0.0305180437933359,0.396734569314049
1580417281.22201,2.10574502174404,0.0305180437933359,0.396734569314049
1580417281.22601,2.04470893415737,0.152590218966907,0.335698481727377
1580417281.23,2.04470893415737,0.274662394140478,0.274662394140478
1580417281.234,1.8616006713969,0.51880674448762,0.335698481727377
1580417281.23799,1.8616006713969,0.946059357595232,0.213626306553806
1580417281.24198,1.80056458381023,0.70191500724809,0.396734569314049
1580417281.24598,1.37331197070262,0.274662394140478,0.457770656900948
1580417281.24997,1.55642023346309,0.0305180437933359,0.51880674448762
1580417281.25397,1.61745632104976,0.152590218966907,0.51880674448762
1580417281.25796,1.49538414587619,0.152590218966907,0.335698481727377
1580417281.26196,1.55642023346309,-0.152590218966907,0.396734569314049
1580417281.26595,1.49538414587619,-0.152590218966907,0.457770656900948
1580417281.26994,1.43434805828952,-0.213626306553806,0.51880674448762
1580417281.27394,1.49538414587619,-0.274662394140478,0.457770656900948
1580417281.27793,1.67849240863666,-0.213626306553806,0.579842832074519
1580417281.28192,2.10574502174404,-0.274662394140478,0.51880674448762
1580417281.28592,2.16678110933094,-0.091554131380235,0.457770656900948
1580417281.28991,2.10574502174404,-0.091554131380235,0.51880674448762
1580417281.29391,1.98367284657047,-0.152590218966907,0.457770656900948
1580417281.2979,1.67849240863666,-0.152590218966907,0.51880674448762
1580417281.30191,1.55642023346309,-0.091554131380235,0.396734569314049
1580417281.3059,1.49538414587619,-0.152590218966907,0.396734569314049
1580417281.3099,1.43434805828952,-0.274662394140478,0.396734569314049
1580417281.31389,1.25123979552905,-0.396734569314049,0.51880674448762
1580417281.31789,1.19020370794237,-0.396734569314049,0.396734569314049
1580417281.32188,1.25123979552905,-0.335698481727377,0.396734569314049
1580417281.32587,1.25123979552905,-0.396734569314049,0.396734569314049
1580417281.32987,1.12916762035547,-0.51880674448762,0.457770656900948
1580417281.33386,1.19020370794237,-0.51880674448762,0.457770656900948
1580417281.33786,1.31227588311594,-0.457770656900948,0.457770656900948
1580417281.34185,1.61745632104976,-0.335698481727377,0.457770656900948
1580417281.34584,2.04470893415737,-0.091554131380235,0.335698481727377
1580417281.34984,2.59403372243833,-0.152590218966907,0.335698481727377
1580417281.35383,2.83817807278547,-0.0305180437933359,0.335698481727377
1580417281.35783,2.47196154726475,-0.091554131380235,0.396734569314049
1580417281.36182,2.10574502174404,-0.213626306553806,0.457770656900948
1580417281.36581,1.80056458381023,-0.274662394140478,0.457770656900948
1580417281.36981,1.67849240863666,-0.396734569314049,0.457770656900948
1580417281.3738,1.67849240863666,-0.51880674448762,0.457770656900948
1580417281.3778,1.61745632104976,-0.579842832074519,0.579842832074519
1580417281.38177,1.9226367589838,-0.51880674448762,0.51880674448762
1580417281.38577,1.80056458381023,-0.51880674448762,0.579842832074519
1580417281.38976,1.61745632104976,-0.457770656900948,0.51880674448762
1580417281.39376,1.37331197070262,-0.274662394140478,0.70191500724809
1580417281.39775,1.37331197070262,-0.152590218966907,0.51880674448762
1580417281.40174,1.49538414587619,-0.274662394140478,0.335698481727377
1580417281.40574,1.73952849622333,-0.457770656900948,0.335698481727377
1580417281.40973,1.61745632104976,-0.457770656900948,0.274662394140478
1580417281.41373,1.80056458381023,-0.335698481727377,0.274662394140478
1580417281.41772,1.73952849622333,-0.335698481727377,0.396734569314049
1580417281.42171,1.9226367589838,-0.213626306553806,0.51880674448762
1580417281.42571,1.98367284657047,0.152590218966907,0.396734569314049
1580417281.4297,1.9226367589838,0.0305180437933359,0.335698481727377
1580417281.4337,1.73952849622333,0.091554131380235,0.396734569314049
1580417281.43769,1.61745632104976,0.396734569314049,0.457770656900948
1580417281.44168,1.67849240863666,0.51880674448762,0.335698481727377
1580417281.44568,1.31227588311594,0.579842832074519,0.457770656900948
1580417281.44967,1.12916762035547,0.274662394140478,0.335698481727377
1580417281.45367,1.12916762035547,0.0305180437933359,0.274662394140478
1580417281.45766,1.0681315327688,0.213626306553806,0.396734569314049
1580417281.46167,1.25123979552905,0.274662394140478,0.457770656900948
1580417281.46566,1.61745632104976,0.396734569314049,0.396734569314049
1580417281.46966,1.67849240863666,0.274662394140478,0.396734569314049
1580417281.47365,1.67849240863666,0.152590218966907,0.335698481727377
1580417281.47764,1.61745632104976,-0.0305180437933359,0.274662394140478
1580417281.48164,1.55642023346309,-0.213626306553806,0.274662394140478
1580417281.48563,1.25123979552905,-0.396734569314049,0.274662394140478
1580417281.48963,1.25123979552905,-0.579842832074519,0.213626306553806
1580417281.49362,1.12916762035547,-0.70191500724809,0.396734569314049
1580417281.49761,1.19020370794237,-0.640878919661191,0.396734569314049
1580417281.50161,1.25123979552905,-0.457770656900948,0.457770656900948
1580417281.5056,1.43434805828952,-0.396734569314049,0.457770656900948
1580417281.5096,1.49538414587619,-0.274662394140478,0.396734569314049
1580417281.51359,1.49538414587619,-0.213626306553806,0.51880674448762
1580417281.51759,1.37331197070262,-0.335698481727377,0.579842832074519
1580417281.52158,1.19020370794237,-0.335698481727377,0.457770656900948
1580417281.52557,1.0681315327688,-0.152590218966907,0.51880674448762
1580417281.52957,1.0681315327688,0.0305180437933359,0.51880674448762
1580417281.53356,1.19020370794237,0.396734569314049,0.51880674448762
1580417281.53755,1.31227588311594,0.396734569314049,0.457770656900948
1580417281.54153,1.37331197070262,0.274662394140478,0.51880674448762
1580417281.54553,1.37331197070262,0.274662394140478,0.457770656900948
1580417281.54952,1.37331197070262,0.152590218966907,0.396734569314049
1580417281.55352,1.49538414587619,-0.213626306553806,0.335698481727377
1580417281.55751,1.55642023346309,-0.335698481727377,0.274662394140478
1580417281.5615,1.67849240863666,-0.335698481727377,0.396734569314049
1580417281.5655,1.61745632104976,-0.457770656900948,0.396734569314049
1580417281.56949,1.55642023346309,-0.396734569314049,0.335698481727377
1580417281.57349,1.25123979552905,-0.396734569314049,0.335698481727377
1580417281.57748,1.12916762035547,-0.396734569314049,0.396734569314049
1580417281.58147,1.25123979552905,-0.396734569314049,0.457770656900948
1580417281.58547,1.49538414587619,-0.335698481727377,0.51880674448762
1580417281.58946,1.67849240863666,-0.274662394140478,0.396734569314049
1580417281.59346,1.80056458381023,-0.091554131380235,0.51880674448762
1580417281.59745,1.9226367589838,0.091554131380235,0.457770656900948
1580417281.60144,1.61745632104976,0.091554131380235,0.51880674448762
1580417281.60544,1.31227588311594,0.213626306553806,0.51880674448762
1580417281.60943,1.0681315327688,0.335698481727377,0.51880674448762
1580417281.61343,1.19020370794237,0.274662394140478,0.457770656900948
1580417281.61742,1.37331197070262,0.152590218966907,0.457770656900948
1580417281.62143,1.37331197070262,0.152590218966907,0.335698481727377
1580417281.62542,1.43434805828952,-0.0305180437933359,0.335698481727377
1580417281.62942,1.61745632104976,-0.0305180437933359,0.274662394140478
1580417281.63341,1.55642023346309,0.0305180437933359,0.335698481727377
1580417281.6374,1.67849240863666,0.0305180437933359,0.396734569314049
1580417281.6414,1.8616006713969,0.091554131380235,0.396734569314049
1580417281.64539,1.73952849622333,0.640878919661191,0.51880674448762
1580417281.64939,1.55642023346309,1.73952849622333,0.396734569314049
1580417281.65338,1.19020370794237,0.213626306553806,0.457770656900948
