Timestamp_seconds,Gyro_X_s,Gyro_Y_s,Gyro_Z_s
1580417320.55905,1.19020370794237,-0.091554131380235,0.457770656900948
1580417320.56304,1.19020370794237,-0.152590218966907,0.457770656900948
1580417320.56703,1.0681315327688,-0.091554131380235,0.51880674448762
1580417320.57103,1.0681315327688,-0.213626306553806,0.51880674448762
1580417320.57502,1.19020370794237,-0.152590218966907,0.457770656900948
1580417320.57902,1.19020370794237,-0.152590218966907,0.51880674448762
1580417320.58301,1.19020370794237,-0.0305180437933359,0.51880674448762
1580417320.587,1.12916762035547,0.091554131380235,0.457770656900948
1580417320.591,1.0681315327688,0.0305180437933359,0.396734569314049
1580417320.59499,0.946059357595232,0.0305180437933359,0.335698481727377
1580417320.59899,1.0681315327688,0.0305180437933359,0.51880674448762
1580417320.60297,1.12916762035547,0.091554131380235,0.51880674448762
1580417320.60696,1.0681315327688,-0.0305180437933359,0.457770656900948
1580417320.61095,1.12916762035547,0.0305180437933359,0.51880674448762
1580417320.61495,1.0681315327688,-0.0305180437933359,0.640878919661191
1580417320.61894,1.19020370794237,0.0305180437933359,0.457770656900948
1580417320.62294,1.0681315327688,-0.0305180437933359,0.51880674448762
1580417320.62693,1.19020370794237,0.0305180437933359,0.457770656900948
1580417320.63092,1.25123979552905,0.091554131380235,0.396734569314049
1580417320.63492,1.12916762035547,-0.0305180437933359,0.579842832074519
1580417320.63891,1.43434805828952,-0.0305180437933359,0.457770656900948
1580417320.64291,1.25123979552905,0.0305180437933359,0.457770656900948
1580417320.6469,1.25123979552905,-0.0305180437933359,0.457770656900948
1580417320.65089,1.25123979552905,-0.0305180437933359,0.579842832074519
1580417320.65489,1.31227588311594,0.091554131380235,0.51880674448762
1580417320.65888,1.37331197070262,0.0305180437933359,0.396734569314049
1580417320.66288,1.25123979552905,-0.091554131380235,0.51880674448762
1580417320.66687,1.31227588311594,-0.091554131380235,0.396734569314049
1580417320.67086,1.25123979552905,-0.091554131380235,0.51880674448762
1580417320.67486,1.31227588311594,0.0305180437933359,0.51880674448762
1580417320.67885,1.37331197070262,-0.091554131380235,0.579842832074519
1580417320.68286,1.43434805828952,-0.091554131380235,0.457770656900948
1580417320.68685,1.31227588311594,-0.0305180437933359,0.457770656900948
1580417320.69085,1.31227588311594,-0.0305180437933359,0.579842832074519
1580417320.69484,1.19020370794237,-0.0305180437933359,0.51880674448762
1580417320.69884,1.31227588311594,0.0305180437933359,0.579842832074519
1580417320.70283,1.25123979552905,0.152590218966907,0.457770656900948
1580417320.70683,1.37331197070262,0.213626306553806,0.640878919661191
1580417320.71082,1.31227588311594,0.213626306553806,0.579842832074519
1580417320.71481,1.37331197070262,0.152590218966907,0.457770656900948
1580417320.71881,1.31227588311594,0.0305180437933359,0.396734569314049
1580417320.7228,1.37331197070262,-0.0305180437933359,0.579842832074519
1580417320.72679,1.31227588311594,-0.0305180437933359,0.51880674448762
1580417320.73079,1.31227588311594,0.0305180437933359,0.51880674448762
1580417320.73478,1.25123979552905,0.0305180437933359,0.396734569314049
1580417320.73878,1.31227588311594,0.0305180437933359,0.51880674448762
1580417320.74277,1.25123979552905,0.091554131380235,0.51880674448762
1580417320.74676,1.19020370794237,-0.091554131380235,0.51880674448762
1580417320.75076,1.37331197070262,-0.0305180437933359,0.579842832074519
1580417320.75475,1.37331197070262,-0.091554131380235,0.457770656900948
1580417320.75875,1.19020370794237,-0.0305180437933359,0.51880674448762
1580417320.76272,1.0681315327688,-0.091554131380235,0.579842832074519
1580417320.76672,1.12916762035547,-0.152590218966907,0.457770656900948
1580417320.77071,1.12916762035547,-0.0305180437933359,0.457770656900948
1580417320.77471,1.19020370794237,-0.091554131380235,0.457770656900948
1580417320.7787,1.31227588311594,-0.091554131380235,0.335698481727377
1580417320.78269,1.12916762035547,-0.0305180437933359,0.396734569314049
1580417320.78669,1.0681315327688,-0.0305180437933359,0.457770656900948
1580417320.79068,1.19020370794237,-0.0305180437933359,0.396734569314049
1580417320.79468,1.0681315327688,-0.091554131380235,0.396734569314049
1580417320.79867,1.12916762035547,-0.091554131380235,0.335698481727377
1580417320.80266,1.0070954451819,-0.0305180437933359,0.51880674448762
1580417320.80666,1.0070954451819,0.0305180437933359,0.457770656900948
1580417320.81065,1.12916762035547,-0.152590218966907,0.457770656900948
1580417320.81465,1.0070954451819,-0.0305180437933359,0.457770656900948
1580417320.81864,1.0070954451819,-0.152590218966907,0.51880674448762
1580417320.82263,1.0070954451819,-0.274662394140478,0.51880674448762
1580417320.82663,1.0681315327688,-0.213626306553806,0.51880674448762
1580417320.83062,1.0681315327688,-0.091554131380235,0.396734569314049
1580417320.83462,1.0681315327688,-0.091554131380235,0.51880674448762
1580417320.83861,1.12916762035547,-0.091554131380235,0.51880674448762
1580417320.84262,1.12916762035547,-0.091554131380235,0.579842832074519
1580417320.84661,1.19020370794237,-0.091554131380235,0.51880674448762
1580417320.85061,1.19020370794237,-0.0305180437933359,0.457770656900948
1580417320.8546,1.0681315327688,-0.091554131380235,0.51880674448762
1580417320.8586,1.19020370794237,-0.091554131380235,0.457770656900948
1580417320.86259,1.12916762035547,-0.0305180437933359,0.335698481727377
1580417320.86658,1.0070954451819,-0.091554131380235,0.335698481727377
1580417320.87058,1.19020370794237,-0.091554131380235,0.335698481727377
1580417320.87457,1.25123979552905,0.0305180437933359,0.396734569314049
1580417320.87857,1.19020370794237,0.0305180437933359,0.396734569314049
1580417320.88256,1.19020370794237,0.0305180437933359,0.457770656900948
1580417320.88655,1.12916762035547,0.0305180437933359,0.457770656900948
1580417320.89055,1.12916762035547,0.091554131380235,0.579842832074519
1580417320.89454,1.0681315327688,0.091554131380235,0.579842832074519
1580417320.89854,1.0070954451819,0.0305180437933359,0.457770656900948
1580417320.90253,1.0681315327688,-0.0305180437933359,0.457770656900948
1580417320.90652,1.19020370794237,-0.091554131380235,0.457770656900948
1580417320.91052,1.19020370794237,-0.152590218966907,0.457770656900948
1580417320.91451,1.12916762035547,-0.152590218966907,0.579842832074519
1580417320.91851,1.0681315327688,-0.152590218966907,0.457770656900948
1580417320.92248,1.12916762035547,-0.152590218966907,0.396734569314049
1580417320.92648,1.0070954451819,-0.091554131380235,0.396734569314049
1580417320.93047,1.12916762035547,-0.152590218966907,0.457770656900948
1580417320.93447,1.19020370794237,-0.091554131380235,0.457770656900948
1580417320.93846,1.12916762035547,-0.0305180437933359,0.457770656900948
1580417320.94245,1.0681315327688,0.091554131380235,0.396734569314049
1580417320.94645,1.0681315327688,0.091554131380235,0.457770656900948
1580417320.95044,1.12916762035547,-0.0305180437933359,0.396734569314049
1580417320.95444,1.12916762035547,0.091554131380235,0.335698481727377
1580417320.95843,1.0070954451819,0.091554131380235,0.335698481727377
1580417320.96242,0.946059357595232,0.0305180437933359,0.457770656900948
1580417320.96642,1.0681315327688,-0.0305180437933359,0.51880674448762
1580417320.97041,1.12916762035547,0.0305180437933359,0.579842832074519
1580417320.97441,1.0070954451819,-0.0305180437933359,0.457770656900948
1580417320.9784,1.12916762035547,-0.0305180437933359,0.396734569314049
1580417320.98239,1.0070954451819,0.091554131380235,0.51880674448762
1580417320.98639,1.0681315327688,-0.0305180437933359,0.51880674448762
1580417320.99038,1.0070954451819,0.091554131380235,0.457770656900948
1580417320.99438,1.0070954451819,-0.0305180437933359,0.396734569314049
1580417320.99837,0.885023270008332,-0.091554131380235,0.396734569314049
1580417321.00238,0.946059357595232,-0.091554131380235,0.396734569314049
1580417321.00637,0.946059357595232,-0.152590218966907,0.457770656900948
1580417321.01037,1.0681315327688,-0.152590218966907,0.396734569314049
1580417321.01436,1.0070954451819,-0.091554131380235,0.51880674448762
1580417321.01836,1.12916762035547,-0.091554131380235,0.457770656900948
1580417321.02235,1.19020370794237,-0.0305180437933359,0.457770656900948
1580417321.02634,1.31227588311594,-0.0305180437933359,0.51880674448762
1580417321.03034,1.31227588311594,-0.0305180437933359,0.457770656900948
1580417321.03433,1.25123979552905,0.091554131380235,0.51880674448762
1580417321.03833,1.25123979552905,-0.0305180437933359,0.51880674448762
1580417321.04232,1.25123979552905,-0.0305180437933359,0.457770656900948
1580417321.04631,1.25123979552905,0.0305180437933359,0.457770656900948
1580417321.05031,1.43434805828952,0.152590218966907,0.457770656900948
1580417321.0543,1.31227588311594,0.0305180437933359,0.51880674448762
1580417321.0583,1.25123979552905,0.091554131380235,0.396734569314049
1580417321.06229,1.25123979552905,0.091554131380235,0.396734569314049
1580417321.06628,1.19020370794237,0.0305180437933359,0.396734569314049
1580417321.07028,1.19020370794237,0.152590218966907,0.579842832074519
1580417321.07427,1.12916762035547,0.0305180437933359,0.457770656900948
1580417321.07827,1.25123979552905,0.091554131380235,0.457770656900948
1580417321.08224,1.19020370794237,0.213626306553806,0.335698481727377
1580417321.08624,1.12916762035547,0.152590218966907,0.335698481727377
1580417321.09023,1.19020370794237,0.091554131380235,0.457770656900948
1580417321.09423,1.25123979552905,0.091554131380235,0.51880674448762
1580417321.09822,1.19020370794237,0.0305180437933359,0.457770656900948
1580417321.10221,1.25123979552905,0.091554131380235,0.51880674448762
1580417321.10621,1.31227588311594,0.091554131380235,0.51880674448762
1580417321.1102,1.43434805828952,0.091554131380235,0.579842832074519
1580417321.1142,1.31227588311594,0.091554131380235,0.51880674448762
1580417321.11819,1.31227588311594,0.152590218966907,0.457770656900948
1580417321.12218,1.25123979552905,0.152590218966907,0.51880674448762
1580417321.12618,1.37331197070262,0.152590218966907,0.51880674448762
1580417321.13017,1.25123979552905,0.213626306553806,0.457770656900948
1580417321.13417,1.31227588311594,0.152590218966907,0.457770656900948
1580417321.13816,1.25123979552905,0.152590218966907,0.396734569314049
1580417321.14215,1.12916762035547,0.152590218966907,0.396734569314049
1580417321.14615,1.0070954451819,0.091554131380235,0.457770656900948
1580417321.15014,1.19020370794237,0.152590218966907,0.457770656900948
1580417321.15414,1.12916762035547,0.0305180437933359,0.51880674448762
1580417321.15813,1.0681315327688,0.0305180437933359,0.579842832074519
1580417321.16214,1.0681315327688,0.091554131380235,0.51880674448762
1580417321.16613,1.12916762035547,0.152590218966907,0.51880674448762
1580417321.17013,1.25123979552905,0.0305180437933359,0.51880674448762
1580417321.17412,1.0070954451819,-0.0305180437933359,0.457770656900948
1580417321.17811,1.0681315327688,-0.091554131380235,0.335698481727377
1580417321.18211,1.0681315327688,0.0305180437933359,0.396734569314049
1580417321.1861,1.0070954451819,-0.0305180437933359,0.457770656900948
1580417321.1901,1.0681315327688,-0.0305180437933359,0.396734569314049
1580417321.19409,1.19020370794237,-0.091554131380235,0.457770656900948
1580417321.19808,1.12916762035547,-0.091554131380235,0.396734569314049
1580417321.20208,1.25123979552905,0.0305180437933359,0.457770656900948
1580417321.20607,1.37331197070262,0.0305180437933359,0.51880674448762
1580417321.21007,1.25123979552905,-0.0305180437933359,0.396734569314049
1580417321.21406,1.25123979552905,-0.213626306553806,0.51880674448762
1580417321.21806,1.25123979552905,-0.0305180437933359,0.396734569314049
1580417321.22205,1.25123979552905,-0.0305180437933359,0.396734569314049
1580417321.22604,1.19020370794237,0.0305180437933359,0.396734569314049
1580417321.23004,1.12916762035547,0.0305180437933359,0.396734569314049
1580417321.23403,1.0681315327688,0.0305180437933359,0.396734569314049
1580417321.23802,1.25123979552905,0.091554131380235,0.396734569314049
1580417321.242,1.19020370794237,0.213626306553806,0.457770656900948
1580417321.246,1.31227588311594,0.152590218966907,0.457770656900948
1580417321.24999,1.19020370794237,0.0305180437933359,0.396734569314049
1580417321.25399,1.12916762035547,-0.0305180437933359,0.457770656900948
1580417321.25798,1.19020370794237,0.0305180437933359,0.51880674448762
1580417321.26197,1.19020370794237,0.0305180437933359,0.51880674448762
1580417321.26597,1.0681315327688,0.152590218966907,0.396734569314049
1580417321.26996,1.25123979552905,0.091554131380235,0.335698481727377
1580417321.27396,1.19020370794237,0.091554131380235,0.335698481727377
1580417321.27795,1.0681315327688,0.091554131380235,0.457770656900948
1580417321.28194,1.12916762035547,0.091554131380235,0.457770656900948
1580417321.28594,1.12916762035547,0.091554131380235,0.396734569314049
1580417321.28993,1.0681315327688,0.091554131380235,0.335698481727377
1580417321.29393,1.12916762035547,0.091554131380235,0.51880674448762
1580417321.29792,1.12916762035547,0.091554131380235,0.457770656900948
1580417321.30191,1.0681315327688,-0.091554131380235,0.457770656900948
1580417321.30591,1.19020370794237,-0.0305180437933359,0.396734569314049
1580417321.3099,1.19020370794237,0.0305180437933359,0.396734569314049
1580417321.3139,1.19020370794237,-0.0305180437933359,0.396734569314049
1580417321.31789,1.12916762035547,0.0305180437933359,0.274662394140478
1580417321.3219,1.19020370794237,-0.0305180437933359,0.335698481727377
1580417321.32589,1.19020370794237,0.0305180437933359,0.396734569314049
1580417321.32989,1.25123979552905,0.0305180437933359,0.396734569314049
1580417321.33388,1.25123979552905,0.0305180437933359,0.396734569314049
1580417321.33787,1.12916762035547,0.091554131380235,0.396734569314049
1580417321.34187,1.31227588311594,0.152590218966907,0.396734569314049
1580417321.34586,1.31227588311594,0.091554131380235,0.396734569314049
1580417321.34986,1.31227588311594,0.091554131380235,0.335698481727377
1580417321.35385,1.19020370794237,0.091554131380235,0.396734569314049
1580417321.35784,1.25123979552905,-0.0305180437933359,0.51880674448762
1580417321.36184,1.19020370794237,0.091554131380235,0.457770656900948
1580417321.36583,1.12916762035547,-0.0305180437933359,0.457770656900948
1580417321.36983,1.12916762035547,0.0305180437933359,0.396734569314049
1580417321.37382,1.12916762035547,0.152590218966907,0.396734569314049
1580417321.37782,1.0681315327688,0.0305180437933359,0.335698481727377
1580417321.38181,1.12916762035547,0.091554131380235,0.457770656900948
1580417321.3858,1.12916762035547,0.152590218966907,0.396734569314049
1580417321.3898,1.0070954451819,0.152590218966907,0.457770656900948
1580417321.39379,1.0070954451819,0.213626306553806,0.457770656900948
1580417321.39778,1.0681315327688,0.274662394140478,0.457770656900948
1580417321.40176,1.0070954451819,0.274662394140478,0.396734569314049
1580417321.40576,1.12916762035547,0.152590218966907,0.457770656900948
1580417321.40975,1.0681315327688,0.152590218966907,0.457770656900948
1580417321.41375,1.0070954451819,0.213626306553806,0.335698481727377
1580417321.41774,1.0070954451819,0.274662394140478,0.457770656900948
1580417321.42173,1.0681315327688,0.274662394140478,0.457770656900948
1580417321.42573,1.0070954451819,0.274662394140478,0.457770656900948
1580417321.42972,1.0070954451819,0.335698481727377,0.51880674448762
1580417321.43371,0.823987182421661,0.274662394140478,0.457770656900948
1580417321.43771,1.0070954451819,0.335698481727377,0.457770656900948
1580417321.4417,1.19020370794237,0.335698481727377,0.396734569314049
1580417321.4457,1.0070954451819,0.457770656900948,0.396734569314049
1580417321.44969,1.0681315327688,0.396734569314049,0.396734569314049
1580417321.45369,1.0070954451819,0.396734569314049,0.335698481727377
1580417321.45768,1.0070954451819,0.396734569314049,0.396734569314049
1580417321.46167,1.0070954451819,0.396734569314049,0.457770656900948
1580417321.46567,0.885023270008332,0.457770656900948,0.396734569314049
1580417321.46966,0.946059357595232,0.457770656900948,0.396734569314049
1580417321.47365,0.885023270008332,0.579842832074519,0.396734569314049
1580417321.47765,0.885023270008332,0.640878919661191,0.457770656900948
1580417321.48166,0.885023270008332,0.579842832074519,0.396734569314049
1580417321.48565,0.885023270008332,0.51880674448762,0.51880674448762
1580417321.48965,0.762951094834762,0.579842832074519,0.396734569314049
1580417321.49364,0.640878919661191,0.70191500724809,0.396734569314049
1580417321.49763,0.823987182421661,0.640878919661191,0.396734569314049
1580417321.50163,0.762951094834762,0.579842832074519,0.396734569314049
1580417321.50562,0.762951094834762,0.70191500724809,0.335698481727377
1580417321.50962,0.70191500724809,0.762951094834762,0.274662394140478
1580417321.51361,0.579842832074519,0.762951094834762,0.274662394140478
1580417321.5176,0.70191500724809,0.640878919661191,0.396734569314049
1580417321.5216,0.640878919661191,0.640878919661191,0.274662394140478
1580417321.52559,0.640878919661191,0.762951094834762,0.396734569314049
1580417321.52959,0.762951094834762,0.823987182421661,0.457770656900948
1580417321.53358,0.885023270008332,0.885023270008332,0.335698481727377
1580417321.53757,0.946059357595232,0.823987182421661,0.396734569314049
1580417321.54157,0.885023270008332,0.823987182421661,0.396734569314049
1580417321.54556,0.946059357595232,0.885023270008332,0.457770656900948
1580417321.54956,1.0070954451819,0.823987182421661,0.51880674448762
1580417321.55355,1.0681315327688,0.823987182421661,0.396734569314049
1580417321.55754,1.0070954451819,1.0070954451819,0.396734569314049
1580417321.56152,1.12916762035547,1.0681315327688,0.457770656900948
1580417321.56552,1.0681315327688,0.946059357595232,0.396734569314049
1580417321.56951,1.0070954451819,1.0070954451819,0.335698481727377
1580417321.5735,1.0681315327688,1.0681315327688,0.51880674448762
1580417321.5775,0.946059357595232,1.0681315327688,0.457770656900948
1580417321.58149,0.823987182421661,1.0070954451819,0.335698481727377
1580417321.58549,0.70191500724809,1.0070954451819,0.396734569314049
1580417321.58948,0.762951094834762,1.0681315327688,0.457770656900948
1580417321.59347,0.640878919661191,1.25123979552905,0.457770656900948
1580417321.59747,0.396734569314049,1.12916762035547,0.335698481727377
1580417321.60146,0.51880674448762,1.19020370794237,0.274662394140478
1580417321.60546,0.579842832074519,1.19020370794237,0.396734569314049
1580417321.60945,0.51880674448762,1.31227588311594,0.396734569314049
1580417321.61345,0.457770656900948,1.25123979552905,0.396734569314049
1580417321.61744,0.457770656900948,1.19020370794237,0.396734569314049
1580417321.62143,0.335698481727377,1.31227588311594,0.457770656900948
1580417321.62543,0.457770656900948,1.31227588311594,0.457770656900948
1580417321.62942,0.396734569314049,1.43434805828952,0.274662394140478
1580417321.63341,0.51880674448762,1.49538414587619,0.457770656900948
1580417321.63741,0.579842832074519,1.49538414587619,0.457770656900948
1580417321.64142,0.762951094834762,1.61745632104976,0.457770656900948
1580417321.64541,0.70191500724809,1.55642023346309,0.457770656900948
1580417321.64941,0.70191500724809,1.43434805828952,0.51880674448762
1580417321.6534,0.823987182421661,1.49538414587619,0.457770656900948
1580417321.65739,0.762951094834762,1.61745632104976,0.396734569314049
1580417321.66139,0.762951094834762,1.55642023346309,0.335698481727377
1580417321.66538,0.70191500724809,1.55642023346309,0.457770656900948
1580417321.66938,0.70191500724809,1.49538414587619,0.457770656900948
1580417321.67337,0.762951094834762,1.55642023346309,0.335698481727377
1580417321.67736,0.762951094834762,1.67849240863666,0.396734569314049
1580417321.68136,0.823987182421661,1.73952849622333,0.51880674448762
1580417321.68535,0.640878919661191,1.67849240863666,0.457770656900948
1580417321.68935,0.70191500724809,1.61745632104976,0.579842832074519
1580417321.69334,0.823987182421661,1.61745632104976,0.457770656900948
1580417321.69733,0.762951094834762,1.67849240863666,0.457770656900948
1580417321.70133,0.885023270008332,1.73952849622333,0.396734569314049
1580417321.70532,0.885023270008332,1.73952849622333,0.51880674448762
1580417321.70932,0.885023270008332,1.67849240863666,0.51880674448762
1580417321.71331,0.885023270008332,1.73952849622333,0.51880674448762
1580417321.7173,0.946059357595232,1.73952849622333,0.457770656900948
1580417321.72128,0.885023270008332,1.8616006713969,0.396734569314049
1580417321.72528,0.823987182421661,1.80056458381023,0.396734569314049
1580417321.72927,0.640878919661191,1.73952849622333,0.335698481727377
1580417321.73326,0.457770656900948,1.67849240863666,0.335698481727377
1580417321.73726,0.51880674448762,1.61745632104976,0.51880674448762
1580417321.74125,0.457770656900948,1.61745632104976,0.396734569314049
1580417321.74525,0.335698481727377,1.55642023346309,0.274662394140478
1580417321.74924,0.396734569314049,1.49538414587619,0.335698481727377
1580417321.75323,0.274662394140478,1.61745632104976,0.396734569314049
1580417321.75723,0.152590218966907,1.55642023346309,0.335698481727377
1580417321.76122,0.091554131380235,1.49538414587619,0.335698481727377
1580417321.76522,0.091554131380235,1.43434805828952,0.396734569314049
1580417321.76921,0.091554131380235,1.61745632104976,0.457770656900948
1580417321.7732,0.091554131380235,1.61745632104976,0.274662394140478
1580417321.7772,0.152590218966907,1.55642023346309,0.213626306553806
1580417321.78119,-0.0305180437933359,1.49538414587619,0.213626306553806
1580417321.78519,0.0305180437933359,1.49538414587619,0.152590218966907
1580417321.78918,0.091554131380235,1.61745632104976,0.213626306553806
1580417321.79317,0.152590218966907,1.49538414587619,0.274662394140478
1580417321.79717,0.274662394140478,1.31227588311594,0.457770656900948
1580417321.80118,0.396734569314049,1.43434805828952,0.396734569314049
1580417321.80517,0.396734569314049,1.43434805828952,0.457770656900948
1580417321.80917,0.396734569314049,1.31227588311594,0.51880674448762
1580417321.81316,0.457770656900948,1.37331197070262,0.335698481727377
1580417321.81715,0.457770656900948,1.31227588311594,0.396734569314049
1580417321.82115,0.51880674448762,1.25123979552905,0.335698481727377
1580417321.82514,0.457770656900948,1.25123979552905,0.274662394140478
1580417321.82914,0.335698481727377,1.12916762035547,0.335698481727377
1580417321.83313,0.396734569314049,1.25123979552905,0.396734569314049
1580417321.83712,0.396734569314049,1.37331197070262,0.396734569314049
1580417321.84112,0.335698481727377,1.19020370794237,0.396734569314049
1580417321.84511,0.335698481727377,1.31227588311594,0.51880674448762
1580417321.8491,0.51880674448762,1.25123979552905,0.457770656900948
1580417321.8531,0.457770656900948,1.25123979552905,0.457770656900948
1580417321.85709,0.457770656900948,1.31227588311594,0.457770656900948
1580417321.86109,0.457770656900948,1.25123979552905,0.396734569314049
1580417321.86508,0.457770656900948,1.37331197070262,0.457770656900948
1580417321.86907,0.396734569314049,1.43434805828952,0.457770656900948
1580417321.87307,0.457770656900948,1.49538414587619,0.335698481727377
1580417321.87706,0.51880674448762,1.31227588311594,0.396734569314049
1580417321.88104,0.396734569314049,1.49538414587619,0.396734569314049
1580417321.88504,0.51880674448762,1.31227588311594,0.396734569314049
1580417321.88903,0.579842832074519,1.25123979552905,0.335698481727377
1580417321.89302,0.51880674448762,1.31227588311594,0.457770656900948
1580417321.89702,0.457770656900948,1.43434805828952,0.457770656900948
1580417321.90101,0.396734569314049,1.31227588311594,0.396734569314049
1580417321.90501,0.335698481727377,1.31227588311594,0.274662394140478
1580417321.909,0.396734569314049,1.31227588311594,0.396734569314049
1580417321.91299,0.579842832074519,1.43434805828952,0.457770656900948
1580417321.91699,0.579842832074519,1.25123979552905,0.396734569314049
1580417321.92098,0.091554131380235,1.49538414587619,0.396734569314049
1580417321.92498,2.7161058976119,0.885023270008332,0.579842832074519
1580417321.92897,-0.579842832074519,1.49538414587619,0.396734569314049
1580417321.93296,0.274662394140478,1.0070954451819,0.51880674448762
1580417321.93696,2.53299763485165,1.43434805828952,0.579842832074519
1580417321.94095,1.0681315327688,1.37331197070262,0.51880674448762
1580417321.94495,0.51880674448762,1.19020370794237,0.579842832074519
1580417321.94894,1.19020370794237,1.19020370794237,0.51880674448762
1580417321.95293,1.43434805828952,1.31227588311594,0.51880674448762
1580417321.95693,1.0681315327688,1.43434805828952,0.640878919661191
1580417321.96094,0.885023270008332,1.37331197070262,0.457770656900948
1580417321.96493,0.762951094834762,1.31227588311594,0.396734569314049
1580417321.96892,0.70191500724809,1.37331197070262,0.335698481727377
1580417321.97292,0.579842832074519,1.37331197070262,0.396734569314049
1580417321.97691,0.457770656900948,1.43434805828952,0.396734569314049
1580417321.98091,0.274662394140478,1.49538414587619,0.335698481727377
1580417321.9849,0.091554131380235,1.49538414587619,0.396734569314049
1580417321.98889,0.152590218966907,1.37331197070262,0.274662394140478
1580417321.99289,-0.091554131380235,1.43434805828952,0.274662394140478
1580417321.99688,-0.152590218966907,1.31227588311594,0.152590218966907
1580417322.00088,-0.335698481727377,1.31227588311594,0.274662394140478
1580417322.00487,-0.396734569314049,1.37331197070262,0.274662394140478
1580417322.00886,-0.457770656900948,1.19020370794237,0.274662394140478
1580417322.01286,-0.396734569314049,1.19020370794237,0.396734569314049
1580417322.01685,-0.457770656900948,1.19020370794237,0.335698481727377
1580417322.02085,-0.274662394140478,1.12916762035547,0.335698481727377
1580417322.02484,-0.213626306553806,1.19020370794237,0.396734569314049
1580417322.02883,-0.091554131380235,1.0070954451819,0.396734569314049
1580417322.03283,-0.091554131380235,1.31227588311594,0.335698481727377
1580417322.03682,0.0305180437933359,1.12916762035547,0.335698481727377
1580417322.0408,0.091554131380235,1.19020370794237,0.396734569314049
1580417322.0448,0.274662394140478,1.19020370794237,0.51880674448762
1580417322.04879,0.274662394140478,1.31227588311594,0.51880674448762
1580417322.05278,0.274662394140478,1.19020370794237,0.51880674448762
1580417322.05678,0.335698481727377,1.19020370794237,0.396734569314049
1580417322.06077,0.335698481727377,1.19020370794237,0.457770656900948
1580417322.06477,0.335698481727377,1.25123979552905,0.396734569314049
1580417322.06876,0.274662394140478,0.946059357595232,0.396734569314049
1580417322.07275,0.274662394140478,0.762951094834762,0.213626306553806
1580417322.07675,0.274662394140478,1.0681315327688,0.457770656900948
1580417322.08074,0.213626306553806,1.25123979552905,0.640878919661191
1580417322.08473,0.152590218966907,0.335698481727377,0.335698481727377
1580417322.08873,-0.152590218966907,-0.091554131380235,0.457770656900948
1580417322.09272,0.091554131380235,0.335698481727377,0.457770656900948
1580417322.09672,-0.274662394140478,0.823987182421661,0.396734569314049
1580417322.10071,-0.640878919661191,1.0681315327688,0.335698481727377
1580417322.1047,-1.12916762035547,0.946059357595232,0.274662394140478
1580417322.1087,-1.49538414587619,0.396734569314049,0.335698481727377
1580417322.11269,-1.55642023346309,0.152590218966907,0.335698481727377
1580417322.11669,-1.49538414587619,0.396734569314049,0.335698481727377
1580417322.1207,-1.55642023346309,0.335698481727377,0.274662394140478
1580417322.12469,-1.67849240863666,0.213626306553806,0.152590218966907
1580417322.12868,-1.55642023346309,0.335698481727377,0.213626306553806
1580417322.13268,-1.43434805828952,0.152590218966907,0.213626306553806
1580417322.13667,-1.37331197070262,0.091554131380235,0.213626306553806
1580417322.14067,-1.43434805828952,-0.091554131380235,0.335698481727377
1580417322.14466,-1.43434805828952,0.0305180437933359,0.213626306553806
1580417322.14865,-1.55642023346309,0.0305180437933359,0.213626306553806
1580417322.15265,-1.49538414587619,-0.152590218966907,0.335698481727377
1580417322.15664,-1.49538414587619,-0.213626306553806,0.274662394140478
1580417322.16064,-1.49538414587619,-0.274662394140478,0.274662394140478
1580417322.16463,-1.31227588311594,-0.274662394140478,0.335698481727377
1580417322.16862,-1.12916762035547,-0.213626306553806,0.213626306553806
1580417322.17262,-1.19020370794237,-0.274662394140478,0.396734569314049
1580417322.17661,-1.0070954451819,-0.274662394140478,0.335698481727377
1580417322.18061,-0.823987182421661,-0.274662394140478,0.335698481727377
1580417322.1846,-0.823987182421661,-0.213626306553806,0.335698481727377
1580417322.18859,-0.762951094834762,-0.274662394140478,0.274662394140478
1580417322.19259,-0.640878919661191,-0.152590218966907,0.335698481727377
1580417322.19658,-0.579842832074519,-0.274662394140478,0.51880674448762
1580417322.20056,-0.457770656900948,-0.457770656900948,0.51880674448762
1580417322.20456,-0.274662394140478,-0.274662394140478,0.457770656900948
1580417322.20855,-0.396734569314049,-0.152590218966907,0.335698481727377
1580417322.21254,-0.335698481727377,-0.0305180437933359,0.396734569314049
1580417322.21654,-0.152590218966907,-0.0305180437933359,0.457770656900948
1580417322.22053,-0.091554131380235,0.0305180437933359,0.457770656900948
1580417322.22452,0.091554131380235,-0.091554131380235,0.335698481727377
1580417322.22852,0.0305180437933359,-0.091554131380235,0.51880674448762
1580417322.23251,0.213626306553806,0.091554131380235,0.579842832074519
1580417322.23651,0.457770656900948,0.0305180437933359,0.579842832074519
1580417322.2405,0.396734569314049,0.152590218966907,0.51880674448762
1580417322.24449,0.70191500724809,0.0305180437933359,0.51880674448762
1580417322.24849,0.823987182421661,-0.0305180437933359,0.51880674448762
1580417322.25248,0.946059357595232,0.152590218966907,0.579842832074519
1580417322.25648,1.0681315327688,0.213626306553806,0.640878919661191
1580417322.26047,1.19020370794237,0.213626306553806,0.51880674448762
1580417322.26446,1.25123979552905,0.213626306553806,0.640878919661191
1580417322.26846,1.43434805828952,0.335698481727377,0.51880674448762
1580417322.27245,1.37331197070262,0.335698481727377,0.579842832074519
1580417322.27645,1.43434805828952,0.213626306553806,0.51880674448762
1580417322.28046,1.49538414587619,0.274662394140478,0.579842832074519
1580417322.28445,1.61745632104976,0.274662394140478,0.51880674448762
1580417322.28844,1.67849240863666,0.396734569314049,0.457770656900948
1580417322.29244,1.61745632104976,0.457770656900948,0.51880674448762
1580417322.29643,1.55642023346309,0.457770656900948,0.579842832074519
1580417322.30043,1.61745632104976,0.396734569314049,0.51880674448762
1580417322.30442,1.49538414587619,0.335698481727377,0.51880674448762
1580417322.30841,1.43434805828952,0.396734569314049,0.51880674448762
1580417322.31241,1.43434805828952,0.579842832074519,0.579842832074519
1580417322.3164,1.43434805828952,0.640878919661191,0.579842832074519
1580417322.3204,1.37331197070262,0.579842832074519,0.51880674448762
1580417322.32439,1.37331197070262,0.51880674448762,0.51880674448762
1580417322.32838,1.37331197070262,0.51880674448762,0.396734569314049
1580417322.33238,1.37331197070262,0.457770656900948,0.51880674448762
1580417322.33637,1.43434805828952,0.51880674448762,0.579842832074519
1580417322.34037,1.31227588311594,0.51880674448762,0.51880674448762
1580417322.34436,1.37331197070262,0.274662394140478,0.51880674448762
1580417322.34835,1.49538414587619,0.213626306553806,0.579842832074519
1580417322.35235,1.43434805828952,0.213626306553806,0.51880674448762
1580417322.35634,1.37331197070262,0.213626306553806,0.579842832074519
1580417322.36032,1.43434805828952,0.152590218966907,0.579842832074519
1580417322.36432,1.55642023346309,0.0305180437933359,0.457770656900948
1580417322.36831,1.55642023346309,0.213626306553806,0.51880674448762
1580417322.3723,1.61745632104976,0.213626306553806,0.579842832074519
1580417322.3763,1.49538414587619,0.0305180437933359,0.51880674448762
1580417322.38029,1.61745632104976,-0.0305180437933359,0.457770656900948
1580417322.38428,1.61745632104976,-0.091554131380235,0.51880674448762
1580417322.38828,1.49538414587619,-0.213626306553806,0.457770656900948
1580417322.39227,1.55642023346309,-0.274662394140478,0.335698481727377
1580417322.39627,1.61745632104976,-0.213626306553806,0.396734569314049
1580417322.40026,1.55642023346309,-0.152590218966907,0.51880674448762
1580417322.40425,1.55642023346309,-0.152590218966907,0.396734569314049
1580417322.40825,1.31227588311594,-0.335698481727377,0.335698481727377
1580417322.41224,1.25123979552905,-0.213626306553806,0.396734569314049
1580417322.41624,1.19020370794237,-0.213626306553806,0.51880674448762
1580417322.42023,1.0070954451819,-0.152590218966907,0.457770656900948
1580417322.42422,0.823987182421661,-0.152590218966907,0.51880674448762
1580417322.42822,0.823987182421661,-0.274662394140478,0.396734569314049
1580417322.43221,0.640878919661191,-0.152590218966907,0.396734569314049
1580417322.43621,0.335698481727377,-0.091554131380235,0.335698481727377
1580417322.44022,0.274662394140478,-0.213626306553806,0.396734569314049
1580417322.44421,0.274662394140478,-0.152590218966907,0.335698481727377
1580417322.4482,0.0305180437933359,-0.0305180437933359,0.335698481727377
1580417322.4522,-0.0305180437933359,0.091554131380235,0.335698481727377
1580417322.45619,-0.091554131380235,-0.0305180437933359,0.457770656900948
1580417322.46019,0.0305180437933359,0.091554131380235,0.335698481727377
1580417322.46418,0.091554131380235,0.091554131380235,0.274662394140478
1580417322.46817,0.274662394140478,0.0305180437933359,0.457770656900948
1580417322.47217,0.335698481727377,0.0305180437933359,0.396734569314049
1580417322.47616,0.579842832074519,0.0305180437933359,0.396734569314049
1580417322.48016,0.823987182421661,-0.0305180437933359,0.457770656900948
1580417322.48415,0.946059357595232,0.0305180437933359,0.396734569314049
1580417322.48814,1.31227588311594,0.0305180437933359,0.396734569314049
1580417322.49214,1.43434805828952,-0.0305180437933359,0.396734569314049
1580417322.49613,1.73952849622333,0.091554131380235,0.457770656900948
1580417322.50013,1.67849240863666,0.0305180437933359,0.640878919661191
1580417322.50412,1.67849240863666,-0.0305180437933359,0.579842832074519
1580417322.50811,1.67849240863666,-0.0305180437933359,0.579842832074519
1580417322.51211,1.8616006713969,-0.152590218966907,0.579842832074519
1580417322.5161,1.8616006713969,-0.091554131380235,0.579842832074519
1580417322.52008,1.73952849622333,0.0305180437933359,0.579842832074519
1580417322.52407,1.55642023346309,-0.0305180437933359,0.579842832074519
1580417322.52807,1.49538414587619,-0.0305180437933359,0.640878919661191
1580417322.53206,1.43434805828952,0.0305180437933359,0.51880674448762
1580417322.53606,1.19020370794237,0.091554131380235,0.579842832074519
1580417322.54005,1.0070954451819,0.274662394140478,0.396734569314049
1580417322.54404,1.0070954451819,0.274662394140478,0.396734569314049
1580417322.54804,0.885023270008332,0.091554131380235,0.457770656900948
1580417322.55203,0.823987182421661,0.213626306553806,0.457770656900948
1580417322.55603,0.762951094834762,0.152590218966907,0.457770656900948
1580417322.56002,0.70191500724809,0.152590218966907,0.396734569314049
1580417322.56401,0.51880674448762,0.091554131380235,0.457770656900948
1580417322.56801,0.579842832074519,0.0305180437933359,0.396734569314049
1580417322.572,0.579842832074519,-0.091554131380235,0.457770656900948
1580417322.576,0.579842832074519,-0.0305180437933359,0.457770656900948
1580417322.57999,0.396734569314049,-0.0305180437933359,0.457770656900948
1580417322.58398,0.457770656900948,-0.091554131380235,0.396734569314049
1580417322.58798,0.579842832074519,-0.0305180437933359,0.335698481727377
1580417322.59197,0.579842832074519,-0.091554131380235,0.457770656900948
1580417322.59597,0.762951094834762,-0.152590218966907,0.51880674448762
1580417322.59997,0.823987182421661,-0.213626306553806,0.396734569314049
1580417322.60397,0.946059357595232,-0.274662394140478,0.457770656900948
1580417322.60796,0.946059357595232,-0.213626306553806,0.457770656900948
1580417322.61196,1.0681315327688,-0.152590218966907,0.457770656900948
1580417322.61595,1.0681315327688,-0.152590218966907,0.396734569314049
1580417322.61994,0.946059357595232,0.0305180437933359,0.457770656900948
1580417322.62394,0.885023270008332,-0.091554131380235,0.640878919661191
1580417322.62793,0.823987182421661,-0.152590218966907,0.640878919661191
1580417322.63193,0.762951094834762,-0.335698481727377,0.579842832074519
1580417322.63592,0.946059357595232,-0.274662394140478,0.579842832074519
1580417322.63991,0.823987182421661,-0.213626306553806,0.457770656900948
1580417322.64391,0.885023270008332,-0.213626306553806,0.51880674448762
1580417322.6479,0.823987182421661,-0.335698481727377,0.51880674448762
1580417322.6519,0.762951094834762,-0.335698481727377,0.70191500724809
1580417322.65589,0.885023270008332,-0.457770656900948,0.640878919661191
1580417322.65988,0.946059357595232,-0.396734569314049,0.640878919661191
1580417322.66388,1.0070954451819,-0.457770656900948,0.579842832074519
1580417322.66787,0.823987182421661,-0.51880674448762,0.579842832074519
1580417322.67187,0.946059357595232,-0.457770656900948,0.51880674448762
1580417322.67586,1.0070954451819,-0.457770656900948,0.579842832074519
1580417322.67984,0.762951094834762,-0.396734569314049,0.51880674448762
1580417322.68383,0.70191500724809,-0.51880674448762,0.396734569314049
1580417322.68783,0.457770656900948,-0.457770656900948,0.396734569314049
1580417322.69182,0.335698481727377,-0.274662394140478,0.396734569314049
1580417322.69582,0.335698481727377,-0.091554131380235,0.396734569314049
1580417322.69981,0.335698481727377,-0.091554131380235,0.396734569314049
1580417322.7038,0.152590218966907,-0.091554131380235,0.457770656900948
1580417322.7078,0.0305180437933359,-0.152590218966907,0.396734569314049
1580417322.71179,-0.152590218966907,-0.213626306553806,0.335698481727377
1580417322.71579,-0.274662394140478,-0.0305180437933359,0.335698481727377
1580417322.71978,-0.396734569314049,0.0305180437933359,0.213626306553806
1580417322.72377,-0.640878919661191,0.091554131380235,0.213626306553806
1580417322.72777,-0.640878919661191,0.152590218966907,0.335698481727377
1580417322.73176,-0.70191500724809,0.213626306553806,0.335698481727377
1580417322.73576,-0.579842832074519,0.152590218966907,0.274662394140478
1580417322.73975,-0.274662394140478,0.091554131380235,0.213626306553806
1580417322.74374,-0.152590218966907,-0.0305180437933359,0.274662394140478
1580417322.74774,-0.091554131380235,0.0305180437933359,0.274662394140478
1580417322.75173,0.0305180437933359,0.0305180437933359,0.335698481727377
1580417322.75572,0.335698481727377,0.0305180437933359,0.396734569314049
1580417322.75973,0.213626306553806,-0.152590218966907,0.396734569314049
1580417322.76373,0.152590218966907,-0.091554131380235,0.457770656900948
1580417322.76772,0.274662394140478,-0.0305180437933359,0.396734569314049
1580417322.77172,0.274662394140478,-0.0305180437933359,0.457770656900948
1580417322.77571,0.274662394140478,-0.0305180437933359,0.396734569314049
1580417322.77971,0.457770656900948,-0.091554131380235,0.51880674448762
1580417322.7837,0.335698481727377,-0.091554131380235,0.51880674448762
1580417322.78769,0.457770656900948,-0.152590218966907,0.396734569314049
1580417322.79169,0.457770656900948,0.0305180437933359,0.457770656900948
1580417322.79568,0.579842832074519,-0.091554131380235,0.457770656900948
1580417322.79967,0.885023270008332,-0.152590218966907,0.579842832074519
1580417322.80367,1.12916762035547,-0.152590218966907,0.579842832074519
1580417322.80766,1.43434805828952,-0.152590218966907,0.640878919661191
1580417322.81166,1.49538414587619,-0.091554131380235,0.579842832074519
1580417322.81565,1.73952849622333,-0.091554131380235,0.640878919661191
1580417322.81964,1.9226367589838,-0.213626306553806,0.640878919661191
1580417322.82364,1.9226367589838,-0.152590218966907,0.640878919661191
1580417322.82763,1.8616006713969,-0.213626306553806,0.70191500724809
1580417322.83163,1.9226367589838,-0.335698481727377,0.579842832074519
1580417322.83562,1.80056458381023,-0.274662394140478,0.579842832074519
1580417322.83963,1.73952849622333,-0.396734569314049,0.51880674448762
1580417322.84362,1.80056458381023,-0.396734569314049,0.70191500724809
1580417322.84762,1.80056458381023,-0.396734569314049,0.579842832074519
1580417322.85161,1.73952849622333,-0.335698481727377,0.640878919661191
1580417322.85561,1.67849240863666,-0.335698481727377,0.640878919661191
1580417322.8596,1.80056458381023,-0.335698481727377,0.579842832074519
1580417322.86359,1.98367284657047,-0.213626306553806,0.579842832074519
1580417322.86759,2.10574502174404,-0.274662394140478,0.579842832074519
1580417322.87158,2.10574502174404,-0.152590218966907,0.70191500724809
1580417322.87558,2.04470893415737,-0.152590218966907,0.70191500724809
1580417322.87957,2.16678110933094,0.0305180437933359,0.640878919661191
1580417322.88356,1.98367284657047,0.152590218966907,0.51880674448762
1580417322.88756,2.04470893415737,0.152590218966907,0.640878919661191
1580417322.89155,1.9226367589838,0.091554131380235,0.640878919661191
1580417322.89555,1.80056458381023,0.091554131380235,0.579842832074519
1580417322.89954,1.80056458381023,0.0305180437933359,0.51880674448762
1580417322.90353,1.8616006713969,-0.0305180437933359,0.51880674448762
1580417322.90753,1.8616006713969,-0.152590218966907,0.70191500724809
1580417322.91152,1.9226367589838,-0.152590218966907,0.579842832074519
1580417322.91552,1.98367284657047,-0.152590218966907,0.457770656900948
1580417322.91949,1.98367284657047,-0.274662394140478,0.457770656900948
1580417322.92349,2.16678110933094,-0.152590218966907,0.51880674448762
1580417322.92748,2.22781719691761,-0.213626306553806,0.51880674448762
1580417322.93148,2.22781719691761,-0.152590218966907,0.457770656900948
1580417322.93547,2.22781719691761,-0.152590218966907,0.396734569314049
1580417322.93946,2.16678110933094,-0.0305180437933359,0.579842832074519
1580417322.94346,2.16678110933094,-0.091554131380235,0.457770656900948
1580417322.94745,2.16678110933094,-0.091554131380235,0.457770656900948
1580417322.95145,2.10574502174404,-0.152590218966907,0.51880674448762
1580417322.95544,2.10574502174404,-0.152590218966907,0.579842832074519
1580417322.95943,1.8616006713969,-0.152590218966907,0.51880674448762
1580417322.96343,1.73952849622333,-0.091554131380235,0.457770656900948
1580417322.96742,1.43434805828952,-0.213626306553806,0.396734569314049
1580417322.97142,1.37331197070262,-0.152590218966907,0.396734569314049
1580417322.97541,1.25123979552905,0.091554131380235,0.457770656900948
1580417322.9794,1.25123979552905,0.213626306553806,0.457770656900948
1580417322.9834,1.31227588311594,0.213626306553806,0.457770656900948
1580417322.98739,1.31227588311594,0.213626306553806,0.579842832074519
1580417322.99139,1.31227588311594,0.335698481727377,0.51880674448762
1580417322.99538,1.31227588311594,0.396734569314049,0.457770656900948
1580417322.99939,1.31227588311594,0.457770656900948,0.335698481727377
1580417323.00338,1.43434805828952,0.51880674448762,0.335698481727377
1580417323.00738,1.31227588311594,0.51880674448762,0.274662394140478
1580417323.01137,1.19020370794237,0.579842832074519,0.335698481727377
1580417323.01536,1.19020370794237,0.457770656900948,0.457770656900948
1580417323.01936,0.946059357595232,0.396734569314049,0.335698481727377
1580417323.02335,0.823987182421661,0.396734569314049,0.396734569314049
1580417323.02735,0.457770656900948,0.457770656900948,0.457770656900948
1580417323.03134,0.091554131380235,0.579842832074519,0.457770656900948
1580417323.03533,-0.213626306553806,0.457770656900948,0.396734569314049
1580417323.03933,-0.457770656900948,0.51880674448762,0.274662394140478
1580417323.04332,-0.946059357595232,0.335698481727377,0.335698481727377
1580417323.04732,-1.0681315327688,0.091554131380235,0.274662394140478
1580417323.05131,-1.25123979552905,0.152590218966907,0.213626306553806
1580417323.05531,-1.37331197070262,0.091554131380235,0.274662394140478
1580417323.0593,-1.61745632104976,0.091554131380235,0.152590218966907
1580417323.06329,-1.61745632104976,-0.0305180437933359,0.274662394140478
1580417323.06729,-1.49538414587619,-0.274662394140478,0.213626306553806
1580417323.07128,-1.37331197070262,-0.213626306553806,0.274662394140478
1580417323.07527,-1.31227588311594,0.274662394140478,0.274662394140478
1580417323.07928,-1.67849240863666,-0.335698481727377,0.213626306553806
1580417323.08328,-1.49538414587619,-0.70191500724809,0.213626306553806
1580417323.08727,-1.31227588311594,-0.335698481727377,0.396734569314049
1580417323.09127,-1.67849240863666,-0.0305180437933359,0.213626306553806
1580417323.09526,-2.16678110933094,-0.70191500724809,0.152590218966907
1580417323.09925,-1.49538414587619,0.396734569314049,0.213626306553806
1580417323.10325,-2.22781719691761,-0.823987182421661,0.335698481727377
1580417323.10724,-1.80056458381023,-1.0070954451819,0.396734569314049
1580417323.11124,-1.55642023346309,-0.579842832074519,0.274662394140478
1580417323.11523,-1.73952849622333,-0.091554131380235,0.274662394140478
1580417323.11922,-2.34988937209118,-0.823987182421661,0.213626306553806
1580417323.12322,-1.61745632104976,0.213626306553806,0.213626306553806
1580417323.12721,-2.47196154726475,-1.25123979552905,0.274662394140478
1580417323.13121,-1.80056458381023,-1.19020370794237,0.274662394140478
1580417323.1352,-1.9226367589838,-0.70191500724809,0.152590218966907
1580417323.13919,-2.16678110933094,-0.51880674448762,0.213626306553806
1580417323.14319,-2.41092545967808,-0.274662394140478,0.213626306553806
1580417323.14718,-2.41092545967808,-0.335698481727377,0.335698481727377
1580417323.15118,-2.59403372243833,-0.335698481727377,0.335698481727377
1580417323.15517,-2.34988937209118,-0.0305180437933359,0.213626306553806
1580417323.15915,-2.59403372243833,-0.823987182421661,0.213626306553806
1580417323.16314,-2.22781719691761,-0.579842832074519,0.335698481727377
1580417323.16714,-2.53299763485165,0.152590218966907,0.335698481727377
1580417323.17113,-2.7771419851988,0.457770656900948,0.274662394140478
1580417323.17512,-2.65506981002522,0.335698481727377,0.457770656900948
1580417323.17912,-2.53299763485165,0.274662394140478,0.335698481727377
1580417323.18311,-2.47196154726475,0.091554131380235,0.213626306553806
1580417323.18711,-2.22781719691761,0.152590218966907,0.274662394140478
1580417323.1911,-2.22781719691761,0.0305180437933359,0.152590218966907
1580417323.19509,-2.22781719691761,0.091554131380235,0.274662394140478
1580417323.19909,-1.98367284657047,0.091554131380235,0.335698481727377
1580417323.20308,-1.67849240863666,0.091554131380235,0.396734569314049
1580417323.20708,-1.37331197070262,0.0305180437933359,0.396734569314049
1580417323.21107,-1.0681315327688,0.091554131380235,0.396734569314049
1580417323.21507,-0.70191500724809,0.0305180437933359,0.457770656900948
1580417323.21906,-0.396734569314049,0.091554131380235,0.396734569314049
1580417323.22305,-0.274662394140478,0.152590218966907,0.51880674448762
1580417323.22705,-0.091554131380235,0.152590218966907,0.457770656900948
1580417323.23104,0.091554131380235,0.152590218966907,0.396734569314049
1580417323.23503,0.213626306553806,0.091554131380235,0.640878919661191
1580417323.23904,0.091554131380235,0.091554131380235,0.51880674448762
1580417323.24304,0.152590218966907,0.274662394140478,0.51880674448762
1580417323.24703,0.152590218966907,0.335698481727377,0.51880674448762
1580417323.25103,0.274662394140478,0.457770656900948,0.457770656900948
1580417323.25502,0.51880674448762,0.51880674448762,0.457770656900948
1580417323.25901,0.51880674448762,0.51880674448762,0.457770656900948
1580417323.26301,0.640878919661191,0.640878919661191,0.579842832074519
1580417323.267,0.70191500724809,0.579842832074519,0.579842832074519
1580417323.271,0.823987182421661,0.457770656900948,0.579842832074519
1580417323.27499,0.885023270008332,0.396734569314049,0.640878919661191
1580417323.27898,0.885023270008332,0.213626306553806,0.457770656900948
1580417323.28298,0.823987182421661,0.213626306553806,0.457770656900948
1580417323.28697,0.51880674448762,0.0305180437933359,0.579842832074519
1580417323.29097,0.396734569314049,-0.091554131380235,0.579842832074519
1580417323.29496,0.335698481727377,-0.091554131380235,0.457770656900948
1580417323.29895,0.152590218966907,-0.091554131380235,0.457770656900948
1580417323.30295,-0.152590218966907,-0.0305180437933359,0.457770656900948
1580417323.30694,-0.274662394140478,0.0305180437933359,0.457770656900948
1580417323.31094,-0.274662394140478,0.0305180437933359,0.396734569314049
1580417323.31493,-0.213626306553806,-0.0305180437933359,0.396734569314049
1580417323.31891,-0.152590218966907,0.0305180437933359,0.396734569314049
1580417323.3229,-0.274662394140478,0.213626306553806,0.396734569314049
1580417323.3269,-0.274662394140478,0.213626306553806,0.396734569314049
1580417323.33089,-0.457770656900948,0.213626306553806,0.335698481727377
1580417323.33488,-0.51880674448762,0.213626306553806,0.335698481727377
1580417323.33888,-0.396734569314049,0.213626306553806,0.274662394140478
1580417323.34287,-0.335698481727377,0.152590218966907,0.335698481727377
1580417323.34687,-0.274662394140478,0.0305180437933359,0.396734569314049
1580417323.35086,-0.152590218966907,0.0305180437933359,0.396734569314049
1580417323.35485,-0.213626306553806,0.0305180437933359,0.457770656900948
1580417323.35885,-0.091554131380235,-0.091554131380235,0.274662394140478
1580417323.36284,-0.0305180437933359,-0.152590218966907,0.335698481727377
1580417323.36684,-0.152590218966907,-0.152590218966907,0.335698481727377
1580417323.37083,-0.0305180437933359,-0.274662394140478,0.396734569314049
1580417323.37482,-0.335698481727377,-0.274662394140478,0.274662394140478
1580417323.37882,-0.51880674448762,-0.335698481727377,0.274662394140478
1580417323.38281,-0.579842832074519,-0.335698481727377,0.213626306553806
1580417323.38681,-0.762951094834762,-0.274662394140478,0.213626306553806
1580417323.3908,-0.823987182421661,-0.274662394140478,0.274662394140478
1580417323.39479,-0.762951094834762,-0.274662394140478,0.213626306553806
1580417323.3988,-0.51880674448762,-0.274662394140478,0.274662394140478
1580417323.4028,-0.457770656900948,-0.091554131380235,0.274662394140478
1580417323.40679,-0.396734569314049,-0.213626306553806,0.274662394140478
1580417323.41078,-0.274662394140478,-0.213626306553806,0.152590218966907
1580417323.41478,-0.091554131380235,-0.091554131380235,0.274662394140478
1580417323.41877,-0.274662394140478,-0.0305180437933359,0.274662394140478
1580417323.42277,-0.274662394140478,-0.091554131380235,0.274662394140478
1580417323.42676,-0.457770656900948,-0.091554131380235,0.213626306553806
1580417323.43075,-0.640878919661191,0.0305180437933359,0.274662394140478
1580417323.43475,-0.70191500724809,0.152590218966907,0.213626306553806
1580417323.43874,-0.823987182421661,0.0305180437933359,0.213626306553806
1580417323.44274,-0.885023270008332,0.091554131380235,0.213626306553806
1580417323.44673,-1.0681315327688,0.152590218966907,0.335698481727377
1580417323.45072,-1.0681315327688,0.274662394140478,0.274662394140478
1580417323.45472,-1.0681315327688,0.335698481727377,0.274662394140478
1580417323.45871,-1.19020370794237,0.213626306553806,0.396734569314049
1580417323.46271,-1.25123979552905,0.213626306553806,0.274662394140478
1580417323.4667,-1.25123979552905,0.152590218966907,0.152590218966907
1580417323.4707,-1.25123979552905,0.152590218966907,0.213626306553806
1580417323.47469,-1.31227588311594,0.152590218966907,0.213626306553806
1580417323.47867,-1.37331197070262,0.091554131380235,0.274662394140478
1580417323.48266,-1.31227588311594,-0.0305180437933359,0.335698481727377
1580417323.48666,-1.19020370794237,-0.091554131380235,0.274662394140478
1580417323.49065,-1.19020370794237,-0.0305180437933359,0.213626306553806
1580417323.49464,-1.0070954451819,-0.213626306553806,0.335698481727377
1580417323.49864,-0.823987182421661,-0.274662394140478,0.274662394140478
1580417323.50263,-0.885023270008332,-0.396734569314049,0.274662394140478
1580417323.50663,-1.0070954451819,-0.457770656900948,0.213626306553806
1580417323.51062,-1.12916762035547,-0.51880674448762,0.274662394140478
1580417323.51461,-1.12916762035547,-0.335698481727377,0.152590218966907
1580417323.51861,-1.31227588311594,-0.335698481727377,0.213626306553806
1580417323.5226,-1.37331197070262,-0.457770656900948,0.091554131380235
1580417323.5266,-1.43434805828952,-0.396734569314049,0.213626306553806
1580417323.53059,-1.61745632104976,-0.51880674448762,0.274662394140478
1580417323.53458,-1.8616006713969,-0.457770656900948,0.213626306553806
1580417323.53858,-2.04470893415737,-0.51880674448762,0.213626306553806
1580417323.54257,-2.16678110933094,-0.51880674448762,0.213626306553806
1580417323.54657,-2.28885328450451,-0.457770656900948,0.152590218966907
1580417323.55056,-2.22781719691761,-0.457770656900948,0.213626306553806
1580417323.55455,-2.16678110933094,-0.579842832074519,0.213626306553806
1580417323.55856,-2.34988937209118,-0.51880674448762,0.152590218966907
1580417323.56256,-2.34988937209118,-0.51880674448762,0.152590218966907
1580417323.56655,-2.28885328450451,-0.70191500724809,0.274662394140478
1580417323.57054,-2.34988937209118,-0.640878919661191,0.152590218966907
1580417323.57454,-2.28885328450451,-0.640878919661191,0.091554131380235
1580417323.57853,-2.28885328450451,-0.51880674448762,0.091554131380235
1580417323.58253,-2.34988937209118,-0.579842832074519,0.152590218966907
1580417323.58652,-2.28885328450451,-0.51880674448762,0.274662394140478
1580417323.59051,-1.98367284657047,-0.396734569314049,0.213626306553806
1580417323.59451,-1.98367284657047,-0.335698481727377,0.335698481727377
1580417323.5985,-1.8616006713969,-0.274662394140478,0.274662394140478
1580417323.6025,-1.73952849622333,-0.396734569314049,0.335698481727377
1580417323.60649,-1.67849240863666,-0.335698481727377,0.335698481727377
1580417323.61048,-1.80056458381023,-0.213626306553806,0.335698481727377
1580417323.61448,-1.61745632104976,-0.335698481727377,0.335698481727377
1580417323.61847,-1.67849240863666,-0.335698481727377,0.213626306553806
1580417323.62247,-1.67849240863666,-0.335698481727377,0.274662394140478
1580417323.62646,-1.80056458381023,-0.396734569314049,0.274662394140478
1580417323.63046,-1.73952849622333,-0.51880674448762,0.274662394140478
1580417323.63445,-1.61745632104976,-0.579842832074519,0.213626306553806
1580417323.63843,-1.37331197070262,-0.640878919661191,0.274662394140478
1580417323.64242,-1.12916762035547,-0.70191500724809,0.274662394140478
1580417323.64641,-1.12916762035547,-0.946059357595232,0.213626306553806
1580417323.65041,-0.946059357595232,-0.946059357595232,0.213626306553806
1580417323.6544,-0.762951094834762,-1.0681315327688,0.213626306553806
1580417323.6584,-0.70191500724809,-1.19020370794237,0.274662394140478
1580417323.66239,-0.579842832074519,-1.0681315327688,0.335698481727377
1580417323.66638,-0.640878919661191,-0.946059357595232,0.335698481727377
1580417323.67038,-0.885023270008332,-0.946059357595232,0.396734569314049
1580417323.67437,-0.946059357595232,-0.885023270008332,0.457770656900948
1580417323.67837,-0.762951094834762,-0.823987182421661,0.457770656900948
1580417323.68236,-0.762951094834762,-0.762951094834762,0.335698481727377
1580417323.68635,-0.640878919661191,-0.885023270008332,0.335698481727377
1580417323.69035,-0.51880674448762,-0.762951094834762,0.335698481727377
1580417323.69434,-0.396734569314049,-1.0070954451819,0.396734569314049
1580417323.69834,-0.335698481727377,-1.12916762035547,0.335698481727377
1580417323.70233,-0.946059357595232,-0.762951094834762,0.457770656900948
1580417323.70632,-0.51880674448762,-0.762951094834762,0.335698481727377
1580417323.71032,-1.0681315327688,-0.457770656900948,0.274662394140478
1580417323.71431,-1.25123979552905,-0.823987182421661,0.396734569314049
1580417323.71832,-1.25123979552905,-0.579842832074519,0.274662394140478
1580417323.72232,-1.31227588311594,-0.274662394140478,0.274662394140478
1580417323.72631,-1.37331197070262,-0.213626306553806,0.274662394140478
1580417323.7303,-1.67849240863666,-0.335698481727377,0.213626306553806
1580417323.7343,-1.49538414587619,-0.396734569314049,0.274662394140478
1580417323.73829,-1.49538414587619,-0.396734569314049,0.274662394140478
1580417323.74229,-1.12916762035547,-0.396734569314049,0.274662394140478
1580417323.74628,-0.885023270008332,-0.51880674448762,0.152590218966907
1580417323.75027,-0.579842832074519,-0.579842832074519,0.274662394140478
1580417323.75427,-0.274662394140478,-0.51880674448762,0.213626306553806
1580417323.75826,-0.274662394140478,-0.579842832074519,0.213626306553806
1580417323.76226,-0.335698481727377,-0.640878919661191,0.213626306553806
1580417323.76625,-0.579842832074519,-0.579842832074519,0.274662394140478
1580417323.77024,-0.885023270008332,-0.396734569314049,0.335698481727377
1580417323.77424,-0.946059357595232,-0.335698481727377,0.335698481727377
1580417323.77823,-0.946059357595232,-0.335698481727377,0.274662394140478
1580417323.78223,-0.823987182421661,-0.274662394140478,0.213626306553806
1580417323.78622,-0.823987182421661,-0.396734569314049,0.335698481727377
1580417323.79021,-0.823987182421661,-0.396734569314049,0.213626306553806
1580417323.79421,-0.70191500724809,-0.396734569314049,0.274662394140478
1580417323.79819,-0.579842832074519,-0.640878919661191,0.335698481727377
1580417323.80218,-0.70191500724809,-0.70191500724809,0.274662394140478
1580417323.80617,-0.640878919661191,-0.823987182421661,0.396734569314049
1580417323.81017,-0.51880674448762,-0.70191500724809,0.213626306553806
1580417323.81416,-0.51880674448762,-0.946059357595232,0.213626306553806
1580417323.81816,-0.51880674448762,-0.885023270008332,0.152590218966907
1580417323.82215,-0.762951094834762,-0.946059357595232,0.274662394140478
1580417323.82614,-0.946059357595232,-0.885023270008332,0.274662394140478
1580417323.83014,-1.0681315327688,-1.0070954451819,0.213626306553806
1580417323.83413,-1.12916762035547,-1.0070954451819,0.213626306553806
1580417323.83813,-1.12916762035547,-1.19020370794237,0.274662394140478
1580417323.84212,-1.12916762035547,-1.0070954451819,0.213626306553806
1580417323.84611,-1.0681315327688,-1.0681315327688,0.335698481727377
1580417323.85011,-1.0070954451819,-1.12916762035547,0.274662394140478
1580417323.8541,-1.12916762035547,-1.25123979552905,0.274662394140478
1580417323.8581,-1.25123979552905,-1.31227588311594,0.274662394140478
1580417323.86209,-1.37331197070262,-1.37331197070262,0.274662394140478
1580417323.86608,-1.49538414587619,-1.31227588311594,0.213626306553806
1580417323.87008,-1.67849240863666,-1.31227588311594,0.091554131380235
1580417323.87407,-1.61745632104976,-1.12916762035547,0.152590218966907
1580417323.87808,-1.61745632104976,-1.0681315327688,0.152590218966907
1580417323.88208,-1.55642023346309,-1.12916762035547,0.091554131380235
1580417323.88607,-1.49538414587619,-1.12916762035547,0.091554131380235
1580417323.89006,-1.37331197070262,-1.12916762035547,0.274662394140478
1580417323.89406,-1.25123979552905,-1.12916762035547,0.152590218966907
1580417323.89805,-1.12916762035547,-1.25123979552905,0.335698481727377
1580417323.90205,-1.0681315327688,-1.31227588311594,0.335698481727377
1580417323.90604,-1.19020370794237,-1.37331197070262,0.335698481727377
1580417323.91003,-1.0070954451819,-1.49538414587619,0.213626306553806
1580417323.91403,-0.885023270008332,-1.43434805828952,0.335698481727377
1580417323.91802,-0.885023270008332,-1.49538414587619,0.335698481727377
1580417323.92202,-0.885023270008332,-1.61745632104976,0.274662394140478
1580417323.92601,-0.823987182421661,-2.16678110933094,0.274662394140478
1580417323.93,-0.946059357595232,-1.55642023346309,0.274662394140478
1580417323.934,-0.762951094834762,-1.61745632104976,0.274662394140478
1580417323.93799,-0.274662394140478,-1.37331197070262,0.213626306553806
1580417323.94199,-0.885023270008332,-1.37331197070262,0.274662394140478
1580417323.94598,-0.091554131380235,-1.55642023346309,0.335698481727377
1580417323.94997,0.0305180437933359,-1.49538414587619,0.274662394140478
1580417323.95397,0.152590218966907,-1.55642023346309,0.213626306553806
1580417323.95795,-0.0305180437933359,-1.61745632104976,0.274662394140478
1580417323.96194,-0.091554131380235,-1.55642023346309,0.213626306553806
1580417323.96593,-0.0305180437933359,-1.55642023346309,0.335698481727377
1580417323.96993,-0.335698481727377,-1.43434805828952,0.457770656900948
1580417323.97392,-0.091554131380235,-1.49538414587619,0.335698481727377
1580417323.97792,-0.152590218966907,-1.43434805828952,0.396734569314049
1580417323.98191,-0.0305180437933359,-1.49538414587619,0.274662394140478
1580417323.9859,-0.091554131380235,-1.43434805828952,0.396734569314049
1580417323.9899,0.0305180437933359,-1.37331197070262,0.396734569314049
1580417323.99389,0.091554131380235,-1.55642023346309,0.457770656900948
1580417323.99789,-0.091554131380235,-1.49538414587619,0.457770656900948
1580417324.00188,0.091554131380235,-1.43434805828952,0.51880674448762
1580417324.00587,0.091554131380235,-1.19020370794237,0.396734569314049
1580417324.00987,0.0305180437933359,-1.19020370794237,0.274662394140478
1580417324.01386,-0.0305180437933359,-1.25123979552905,0.457770656900948
1580417324.01786,0.213626306553806,-1.25123979552905,0.396734569314049
1580417324.02185,0.274662394140478,-1.25123979552905,0.335698481727377
1580417324.02584,0.457770656900948,-1.37331197070262,0.457770656900948
1580417324.02984,0.51880674448762,-1.25123979552905,0.396734569314049
1580417324.03383,0.579842832074519,-1.12916762035547,0.396734569314049
1580417324.03784,0.762951094834762,-1.0681315327688,0.457770656900948
1580417324.04183,0.946059357595232,-1.25123979552905,0.335698481727377
1580417324.04583,0.946059357595232,-1.19020370794237,0.335698481727377
1580417324.04982,0.51880674448762,-1.0681315327688,0.213626306553806
1580417324.05382,0.396734569314049,-1.0681315327688,0.274662394140478
1580417324.05781,0.335698481727377,-1.0681315327688,0.213626306553806
1580417324.06181,0.396734569314049,-1.12916762035547,0.335698481727377
1580417324.0658,0.0305180437933359,-1.19020370794237,0.396734569314049
1580417324.06979,-0.213626306553806,-1.12916762035547,0.335698481727377
1580417324.07379,-0.274662394140478,-1.12916762035547,0.274662394140478
1580417324.07778,-0.396734569314049,-1.12916762035547,0.152590218966907
1580417324.08177,-0.885023270008332,-1.12916762035547,0.091554131380235
1580417324.08577,-1.0070954451819,-1.0681315327688,0.274662394140478
1580417324.08976,-1.0681315327688,-1.25123979552905,0.152590218966907
1580417324.09376,-1.37331197070262,-1.12916762035547,0.152590218966907
1580417324.09775,-1.19020370794237,-1.19020370794237,0.213626306553806
1580417324.10174,-0.946059357595232,-1.31227588311594,0.091554131380235
1580417324.10574,-1.12916762035547,-1.43434805828952,0.0305180437933359
1580417324.10973,-1.25123979552905,-1.0681315327688,0.213626306553806
1580417324.11373,-0.579842832074519,-1.25123979552905,0.213626306553806
1580417324.11771,-1.25123979552905,-0.885023270008332,0.091554131380235
1580417324.1217,-0.946059357595232,-1.37331197070262,0.213626306553806
1580417324.12569,-0.70191500724809,-1.12916762035547,0.274662394140478
1580417324.12969,-0.823987182421661,-1.25123979552905,0.213626306553806
1580417324.13368,-0.946059357595232,-1.12916762035547,0.335698481727377
1580417324.13768,-0.885023270008332,-0.885023270008332,0.213626306553806
1580417324.14167,-0.762951094834762,-1.0070954451819,0.091554131380235
1580417324.14566,-0.823987182421661,-0.762951094834762,0.213626306553806
1580417324.14966,-0.823987182421661,-1.0070954451819,0.213626306553806
1580417324.15365,-0.762951094834762,-0.885023270008332,0.274662394140478
1580417324.15765,-0.885023270008332,-0.946059357595232,0.274662394140478
1580417324.16164,-0.885023270008332,-0.51880674448762,0.335698481727377
1580417324.16563,-0.762951094834762,-0.823987182421661,0.335698481727377
1580417324.16963,-0.70191500724809,-1.0681315327688,0.213626306553806
1580417324.17362,-0.640878919661191,-1.0681315327688,0.274662394140478
1580417324.17762,-0.51880674448762,-0.885023270008332,0.274662394140478
1580417324.18161,-0.640878919661191,-1.0681315327688,0.274662394140478
1580417324.1856,-0.70191500724809,-1.37331197070262,0.213626306553806
1580417324.1896,-0.946059357595232,-1.43434805828952,0.335698481727377
1580417324.19359,-0.946059357595232,-1.67849240863666,0.335698481727377
1580417324.1976,-0.823987182421661,-1.9226367589838,0.213626306553806
1580417324.20159,-1.0070954451819,-1.73952849622333,0.152590218966907
1580417324.20559,-0.885023270008332,-1.61745632104976,0.152590218966907
1580417324.20958,-0.51880674448762,-1.49538414587619,0.274662394140478
1580417324.21358,-1.0070954451819,-1.67849240863666,0.213626306553806
1580417324.21757,-0.579842832074519,-2.04470893415737,0.335698481727377
1580417324.22157,-0.51880674448762,-1.8616006713969,0.274662394140478
1580417324.22556,-0.396734569314049,-1.9226367589838,0.274662394140478
1580417324.22955,-0.457770656900948,-1.9226367589838,0.274662394140478
1580417324.23355,-0.213626306553806,-1.98367284657047,0.152590218966907
1580417324.23754,-0.213626306553806,-2.04470893415737,0.213626306553806
1580417324.24153,-0.457770656900948,-2.04470893415737,0.274662394140478
1580417324.24553,-0.457770656900948,-2.10574502174404,0.335698481727377
1580417324.24952,-0.396734569314049,-2.10574502174404,0.274662394140478
1580417324.25352,-0.51880674448762,-2.04470893415737,0.213626306553806
1580417324.25751,-0.396734569314049,-2.10574502174404,0.335698481727377
1580417324.2615,-0.457770656900948,-2.10574502174404,0.335698481727377
1580417324.2655,-0.396734569314049,-2.16678110933094,0.274662394140478
1580417324.26949,-0.396734569314049,-2.22781719691761,0.274662394140478
1580417324.27349,-0.579842832074519,-1.8616006713969,0.213626306553806
1580417324.27746,-0.274662394140478,-1.8616006713969,0.274662394140478
1580417324.28146,-0.640878919661191,-1.55642023346309,0.213626306553806
1580417324.28545,-0.579842832074519,-1.80056458381023,0.335698481727377
1580417324.28945,-0.51880674448762,-1.61745632104976,0.213626306553806
1580417324.29344,-0.885023270008332,-1.73952849622333,0.274662394140478
1580417324.29744,-0.946059357595232,-1.61745632104976,0.274662394140478
1580417324.30143,-1.0070954451819,-1.55642023346309,0.213626306553806
1580417324.30542,-0.885023270008332,-1.43434805828952,0.213626306553806
1580417324.30942,-1.0070954451819,-1.37331197070262,0.213626306553806
1580417324.31341,-1.0681315327688,-1.37331197070262,0.213626306553806
1580417324.3174,-1.0070954451819,-1.25123979552905,0.274662394140478
1580417324.3214,-0.946059357595232,-1.0681315327688,0.335698481727377
1580417324.32539,-0.640878919661191,-0.885023270008332,0.335698481727377
1580417324.32939,-0.579842832074519,-0.762951094834762,0.335698481727377
1580417324.33338,-0.51880674448762,-0.579842832074519,0.457770656900948
1580417324.33737,-0.640878919661191,-0.51880674448762,0.396734569314049
1580417324.34137,-0.51880674448762,-0.579842832074519,0.396734569314049
1580417324.34536,-0.51880674448762,-0.70191500724809,0.274662394140478
1580417324.34936,-0.762951094834762,-0.51880674448762,0.457770656900948
1580417324.35335,-0.457770656900948,-0.51880674448762,0.51880674448762
1580417324.35736,-0.70191500724809,-0.396734569314049,0.396734569314049
1580417324.36135,-0.457770656900948,-0.640878919661191,0.335698481727377
1580417324.36535,-0.51880674448762,-0.579842832074519,0.274662394140478
1580417324.36934,-0.51880674448762,-0.823987182421661,0.335698481727377
1580417324.37334,-0.51880674448762,-0.823987182421661,0.335698481727377
1580417324.37733,-0.457770656900948,-0.762951094834762,0.335698481727377
1580417324.38132,-0.274662394140478,-1.0681315327688,0.213626306553806
1580417324.38532,-0.152590218966907,-1.19020370794237,0.396734569314049
1580417324.38931,0.213626306553806,-1.43434805828952,0.274662394140478
1580417324.39331,0.457770656900948,-1.73952849622333,0.152590218966907
1580417324.3973,0.579842832074519,-1.55642023346309,0.152590218966907
1580417324.40129,1.12916762035547,-1.73952849622333,0.274662394140478
1580417324.40529,1.0681315327688,-1.49538414587619,0.335698481727377
1580417324.40928,1.0681315327688,-1.55642023346309,0.335698481727377
1580417324.41328,1.37331197070262,-1.43434805828952,0.335698481727377
1580417324.41727,1.37331197070262,-1.55642023346309,0.51880674448762
1580417324.42126,1.37331197070262,-1.67849240863666,0.51880674448762
1580417324.42526,1.25123979552905,-1.73952849622333,0.457770656900948
1580417324.42925,1.0070954451819,-1.73952849622333,0.396734569314049
1580417324.43325,0.762951094834762,-1.80056458381023,0.335698481727377
1580417324.43722,0.51880674448762,-1.61745632104976,0.335698481727377
1580417324.44122,0.457770656900948,-1.61745632104976,0.335698481727377
1580417324.44521,0.152590218966907,-1.25123979552905,0.396734569314049
1580417324.44921,0.0305180437933359,-1.31227588311594,0.457770656900948
1580417324.4532,0.213626306553806,-1.25123979552905,0.213626306553806
1580417324.4572,0.152590218966907,-1.37331197070262,0.335698481727377
1580417324.46119,0.152590218966907,-1.55642023346309,0.335698481727377
1580417324.46518,0.335698481727377,-1.37331197070262,0.274662394140478
1580417324.46918,0.274662394140478,-1.43434805828952,0.335698481727377
1580417324.47317,0.335698481727377,-1.37331197070262,0.335698481727377
1580417324.47716,0.274662394140478,-1.19020370794237,0.457770656900948
1580417324.48116,0.152590218966907,-1.12916762035547,0.335698481727377
1580417324.48515,0.091554131380235,-1.0681315327688,0.335698481727377
1580417324.48915,-0.091554131380235,-1.0681315327688,0.335698481727377
1580417324.49314,0.0305180437933359,-1.19020370794237,0.335698481727377
1580417324.49713,-0.0305180437933359,-1.37331197070262,0.213626306553806
1580417324.50113,-0.335698481727377,-1.25123979552905,0.213626306553806
1580417324.50512,-0.335698481727377,-1.31227588311594,0.213626306553806
1580417324.50912,-0.51880674448762,-1.25123979552905,0.213626306553806
1580417324.51311,-0.396734569314049,-1.49538414587619,0.213626306553806
1580417324.51712,-0.091554131380235,-1.61745632104976,0.335698481727377
1580417324.52111,-0.396734569314049,-1.67849240863666,0.335698481727377
1580417324.52511,-0.335698481727377,-1.73952849622333,0.152590218966907
1580417324.5291,-0.396734569314049,-1.61745632104976,0.213626306553806
1580417324.5331,-0.457770656900948,-1.80056458381023,0.152590218966907
1580417324.53709,-0.396734569314049,-1.8616006713969,0.152590218966907
1580417324.54108,-0.152590218966907,-1.98367284657047,0.152590218966907
1580417324.54508,0.152590218966907,-1.8616006713969,0.274662394140478
1580417324.54907,0.213626306553806,-1.8616006713969,0.213626306553806
1580417324.55307,0.213626306553806,-1.80056458381023,0.274662394140478
1580417324.55706,0.152590218966907,-1.9226367589838,0.213626306553806
1580417324.56105,0.274662394140478,-1.9226367589838,0.213626306553806
1580417324.56505,0.396734569314049,-1.73952849622333,0.274662394140478
1580417324.56904,0.51880674448762,-1.61745632104976,0.274662394140478
1580417324.57304,0.51880674448762,-1.61745632104976,0.396734569314049
1580417324.57703,0.579842832074519,-1.73952849622333,0.335698481727377
1580417324.58102,0.640878919661191,-1.73952849622333,0.213626306553806
1580417324.58502,0.70191500724809,-1.8616006713969,0.335698481727377
1580417324.58901,1.0681315327688,-1.73952849622333,0.396734569314049
1580417324.59301,0.762951094834762,-1.67849240863666,0.396734569314049
1580417324.59698,0.762951094834762,-1.80056458381023,0.335698481727377
1580417324.60098,0.70191500724809,-1.73952849622333,0.152590218966907
1580417324.60497,0.762951094834762,-1.61745632104976,0.274662394140478
1580417324.60897,0.946059357595232,-1.55642023346309,0.396734569314049
1580417324.61296,0.823987182421661,-1.31227588311594,0.396734569314049
1580417324.61695,0.762951094834762,-1.37331197070262,0.396734569314049
1580417324.62095,0.762951094834762,-1.37331197070262,0.396734569314049
1580417324.62494,0.823987182421661,-1.19020370794237,0.396734569314049
1580417324.62894,0.823987182421661,-1.12916762035547,0.396734569314049
1580417324.63293,0.885023270008332,-1.0681315327688,0.396734569314049
1580417324.63692,0.823987182421661,-1.12916762035547,0.457770656900948
1580417324.64092,1.0070954451819,-0.946059357595232,0.579842832074519
1580417324.64491,1.19020370794237,-0.885023270008332,0.457770656900948
1580417324.64891,1.0070954451819,-0.946059357595232,0.457770656900948
1580417324.6529,1.0070954451819,-0.762951094834762,0.457770656900948
1580417324.65689,0.946059357595232,-0.762951094834762,0.335698481727377
1580417324.66089,0.946059357595232,-0.640878919661191,0.51880674448762
1580417324.66488,0.640878919661191,-0.70191500724809,0.457770656900948
1580417324.66888,0.640878919661191,-0.70191500724809,0.335698481727377
1580417324.67287,0.70191500724809,-0.762951094834762,0.335698481727377
1580417324.67688,0.457770656900948,-0.823987182421661,0.335698481727377
1580417324.68087,0.51880674448762,-0.823987182421661,0.335698481727377
1580417324.68487,0.579842832074519,-0.946059357595232,0.396734569314049
1580417324.68886,0.70191500724809,-1.0070954451819,0.274662394140478
1580417324.69285,0.823987182421661,-1.0681315327688,0.396734569314049
1580417324.69685,0.762951094834762,-0.946059357595232,0.457770656900948
1580417324.70084,0.70191500724809,-1.0681315327688,0.457770656900948
1580417324.70484,0.579842832074519,-1.12916762035547,0.335698481727377
1580417324.70883,0.579842832074519,-0.946059357595232,0.396734569314049
1580417324.71282,0.70191500724809,-0.946059357595232,0.457770656900948
1580417324.71682,0.885023270008332,-1.19020370794237,0.51880674448762
1580417324.72081,1.12916762035547,-1.12916762035547,0.335698481727377
1580417324.72481,1.0681315327688,-1.19020370794237,0.335698481727377
1580417324.7288,0.762951094834762,-1.25123979552905,0.457770656900948
1580417324.7328,0.640878919661191,-1.25123979552905,0.51880674448762
1580417324.73679,0.457770656900948,-1.25123979552905,0.396734569314049
1580417324.74078,0.457770656900948,-1.25123979552905,0.396734569314049
1580417324.74478,0.51880674448762,-1.37331197070262,0.274662394140478
1580417324.74877,0.762951094834762,-1.31227588311594,0.51880674448762
1580417324.75276,0.823987182421661,-1.19020370794237,0.51880674448762
1580417324.75674,0.823987182421661,-1.12916762035547,0.396734569314049
1580417324.76074,1.0681315327688,-1.19020370794237,0.396734569314049
1580417324.76473,1.25123979552905,-1.25123979552905,0.457770656900948
1580417324.76873,1.19020370794237,-1.25123979552905,0.51880674448762
1580417324.77272,1.25123979552905,-1.0681315327688,0.396734569314049
1580417324.77671,1.19020370794237,-0.885023270008332,0.51880674448762
1580417324.78071,1.0681315327688,-0.823987182421661,0.51880674448762
1580417324.7847,1.12916762035547,-0.823987182421661,0.51880674448762
1580417324.7887,0.946059357595232,-0.885023270008332,0.396734569314049
1580417324.79269,0.762951094834762,-0.823987182421661,0.396734569314049
1580417324.79668,0.396734569314049,-0.823987182421661,0.335698481727377
1580417324.80068,0.335698481727377,-0.885023270008332,0.396734569314049
1580417324.80467,0.152590218966907,-1.0070954451819,0.396734569314049
1580417324.80867,0.0305180437933359,-0.946059357595232,0.396734569314049
1580417324.81266,-0.396734569314049,-1.0681315327688,0.274662394140478
1580417324.81665,-0.457770656900948,-1.0681315327688,0.335698481727377
1580417324.82065,-0.457770656900948,-0.946059357595232,0.335698481727377
1580417324.82464,-0.396734569314049,-1.0681315327688,0.274662394140478
1580417324.82864,-0.213626306553806,-1.0070954451819,0.457770656900948
1580417324.83263,-0.152590218966907,-1.12916762035547,0.274662394140478
1580417324.83664,-0.152590218966907,-1.12916762035547,0.335698481727377
1580417324.84063,-0.152590218966907,-1.19020370794237,0.274662394140478
1580417324.84463,-0.152590218966907,-1.25123979552905,0.335698481727377
1580417324.84862,0.0305180437933359,-1.0681315327688,0.396734569314049
1580417324.85261,0.152590218966907,-1.0681315327688,0.457770656900948
1580417324.85661,0.0305180437933359,-0.823987182421661,0.335698481727377
1580417324.8606,0.091554131380235,-0.946059357595232,0.335698481727377
1580417324.8646,0.0305180437933359,-1.0681315327688,0.396734569314049
1580417324.86859,0.152590218966907,-1.0070954451819,0.457770656900948
1580417324.87258,0.152590218966907,-1.12916762035547,0.396734569314049
1580417324.87658,0.213626306553806,-1.0681315327688,0.396734569314049
1580417324.88057,0.335698481727377,-1.0681315327688,0.396734569314049
1580417324.88457,0.579842832074519,-0.946059357595232,0.396734569314049
1580417324.88856,0.579842832074519,-1.0070954451819,0.396734569314049
1580417324.89255,0.640878919661191,-0.823987182421661,0.396734569314049
1580417324.89655,0.823987182421661,-0.946059357595232,0.396734569314049
1580417324.90054,0.946059357595232,-0.946059357595232,0.457770656900948
1580417324.90454,1.0070954451819,-0.885023270008332,0.457770656900948
1580417324.90853,0.946059357595232,-0.823987182421661,0.335698481727377
1580417324.91252,0.885023270008332,-0.762951094834762,0.457770656900948
1580417324.9165,0.823987182421661,-0.762951094834762,0.457770656900948
1580417324.9205,0.823987182421661,-0.51880674448762,0.396734569314049
1580417324.92449,0.823987182421661,-0.457770656900948,0.457770656900948
1580417324.92848,0.885023270008332,-0.51880674448762,0.396734569314049
1580417324.93248,0.762951094834762,-0.457770656900948,0.396734569314049
1580417324.93647,0.51880674448762,-0.457770656900948,0.335698481727377
1580417324.94047,0.335698481727377,-0.457770656900948,0.396734569314049
1580417324.94446,-0.0305180437933359,-0.457770656900948,0.396734569314049
1580417324.94845,-0.152590218966907,-0.396734569314049,0.396734569314049
1580417324.95245,-0.213626306553806,-0.457770656900948,0.396734569314049
1580417324.95644,0.0305180437933359,-0.51880674448762,0.457770656900948
1580417324.96044,-0.091554131380235,-0.396734569314049,0.396734569314049
1580417324.96443,0.152590218966907,-0.396734569314049,0.396734569314049
1580417324.96843,0.274662394140478,-0.335698481727377,0.396734569314049
1580417324.97242,0.51880674448762,-0.396734569314049,0.335698481727377
1580417324.97641,0.579842832074519,-0.457770656900948,0.457770656900948
1580417324.98041,0.70191500724809,-0.396734569314049,0.335698481727377
1580417324.9844,0.885023270008332,-0.396734569314049,0.457770656900948
1580417324.98839,1.12916762035547,-0.51880674448762,0.335698481727377
1580417324.99239,1.19020370794237,-0.579842832074519,0.457770656900948
1580417324.9964,1.37331197070262,-0.640878919661191,0.457770656900948
1580417325.00039,1.37331197070262,-0.640878919661191,0.457770656900948
1580417325.00439,1.49538414587619,-0.51880674448762,0.457770656900948
1580417325.00838,1.19020370794237,-0.70191500724809,0.51880674448762
1580417325.01237,1.0681315327688,-0.640878919661191,0.457770656900948
1580417325.01637,1.12916762035547,-0.70191500724809,0.457770656900948
1580417325.02036,1.12916762035547,-0.70191500724809,0.457770656900948
1580417325.02436,0.762951094834762,-0.579842832074519,0.51880674448762
1580417325.02835,0.640878919661191,-0.762951094834762,0.457770656900948
1580417325.03234,0.457770656900948,-0.885023270008332,0.457770656900948
1580417325.03634,0.51880674448762,-0.70191500724809,0.396734569314049
1580417325.04033,0.457770656900948,-0.823987182421661,0.396734569314049
1580417325.04433,0.70191500724809,-0.762951094834762,0.396734569314049
1580417325.04832,0.885023270008332,-0.762951094834762,0.396734569314049
1580417325.05231,1.0070954451819,-0.762951094834762,0.396734569314049
1580417325.05631,0.762951094834762,-0.885023270008332,0.335698481727377
1580417325.0603,0.946059357595232,-0.823987182421661,0.274662394140478
1580417325.0643,0.885023270008332,-0.823987182421661,0.274662394140478
1580417325.06829,0.885023270008332,-0.70191500724809,0.457770656900948
1580417325.07228,1.0070954451819,-0.640878919661191,0.457770656900948
1580417325.07626,0.885023270008332,-0.70191500724809,0.396734569314049
1580417325.08026,0.823987182421661,-0.762951094834762,0.457770656900948
1580417325.08425,0.762951094834762,-0.762951094834762,0.457770656900948
1580417325.08824,0.762951094834762,-0.823987182421661,0.457770656900948
1580417325.09224,0.70191500724809,-0.70191500724809,0.457770656900948
1580417325.09623,0.640878919661191,-0.640878919661191,0.457770656900948
1580417325.10023,0.70191500724809,-0.640878919661191,0.51880674448762
1580417325.10422,0.70191500724809,-0.51880674448762,0.396734569314049
1580417325.10821,0.70191500724809,-0.457770656900948,0.396734569314049
1580417325.11221,0.885023270008332,-0.335698481727377,0.457770656900948
1580417325.1162,1.0070954451819,-0.396734569314049,0.335698481727377
1580417325.1202,1.12916762035547,-0.51880674448762,0.457770656900948
1580417325.12419,1.12916762035547,-0.457770656900948,0.579842832074519
1580417325.12819,1.12916762035547,-0.335698481727377,0.457770656900948
1580417325.13218,1.19020370794237,-0.396734569314049,0.396734569314049
1580417325.13617,1.25123979552905,-0.213626306553806,0.457770656900948
1580417325.14017,1.25123979552905,-0.274662394140478,0.396734569314049
1580417325.14416,1.19020370794237,-0.274662394140478,0.396734569314049
1580417325.14815,1.25123979552905,-0.274662394140478,0.51880674448762
1580417325.15215,1.19020370794237,-0.213626306553806,0.396734569314049
1580417325.15616,0.885023270008332,-0.213626306553806,0.335698481727377
1580417325.16015,0.885023270008332,-0.213626306553806,0.457770656900948
1580417325.16415,0.823987182421661,-0.274662394140478,0.579842832074519
1580417325.16814,0.762951094834762,-0.335698481727377,0.51880674448762
1580417325.17213,0.823987182421661,-0.274662394140478,0.51880674448762
1580417325.17613,0.946059357595232,-0.274662394140478,0.51880674448762
1580417325.18012,0.885023270008332,-0.152590218966907,0.51880674448762
1580417325.18412,0.823987182421661,-0.091554131380235,0.396734569314049
1580417325.18811,0.762951094834762,0.0305180437933359,0.396734569314049
1580417325.1921,0.762951094834762,0.091554131380235,0.51880674448762
1580417325.1961,1.0070954451819,-0.0305180437933359,0.51880674448762
1580417325.20009,0.946059357595232,0.091554131380235,0.640878919661191
1580417325.20409,0.946059357595232,0.152590218966907,0.640878919661191
1580417325.20808,0.762951094834762,0.0305180437933359,0.51880674448762
1580417325.21207,0.885023270008332,0.152590218966907,0.396734569314049
1580417325.21607,0.946059357595232,0.091554131380235,0.51880674448762
1580417325.22006,0.70191500724809,-0.0305180437933359,0.51880674448762
1580417325.22406,0.762951094834762,-0.091554131380235,0.457770656900948
1580417325.22805,0.70191500724809,-0.213626306553806,0.396734569314049
1580417325.23204,0.70191500724809,-0.274662394140478,0.579842832074519
1580417325.23602,0.579842832074519,-0.274662394140478,0.457770656900948
1580417325.24002,0.640878919661191,-0.396734569314049,0.640878919661191
1580417325.24401,0.762951094834762,-0.396734569314049,0.51880674448762
1580417325.248,0.762951094834762,-0.396734569314049,0.457770656900948
1580417325.252,0.762951094834762,-0.274662394140478,0.396734569314049
1580417325.25599,0.885023270008332,-0.213626306553806,0.457770656900948
1580417325.25999,0.885023270008332,-0.213626306553806,0.396734569314049
1580417325.26398,1.0681315327688,-0.396734569314049,0.457770656900948
1580417325.26797,0.946059357595232,-0.335698481727377,0.457770656900948
1580417325.27197,1.0070954451819,-0.396734569314049,0.51880674448762
1580417325.27596,1.0681315327688,-0.457770656900948,0.457770656900948
1580417325.27996,1.12916762035547,-0.457770656900948,0.51880674448762
1580417325.28395,1.19020370794237,-0.640878919661191,0.579842832074519
1580417325.28794,1.0681315327688,-0.640878919661191,0.457770656900948
1580417325.29194,0.946059357595232,-0.762951094834762,0.51880674448762
1580417325.29593,1.0070954451819,-0.640878919661191,0.51880674448762
1580417325.29993,1.25123979552905,-0.762951094834762,0.457770656900948
1580417325.30392,1.37331197070262,-0.823987182421661,0.396734569314049
1580417325.30791,1.31227588311594,-0.762951094834762,0.457770656900948
1580417325.31191,1.31227588311594,-0.762951094834762,0.457770656900948
1580417325.31592,1.25123979552905,-0.823987182421661,0.51880674448762
1580417325.31991,1.31227588311594,-0.640878919661191,0.640878919661191
1580417325.32391,1.31227588311594,-0.457770656900948,0.51880674448762
1580417325.3279,1.37331197070262,-0.274662394140478,0.51880674448762
1580417325.33189,1.19020370794237,-0.335698481727377,0.51880674448762
1580417325.33589,1.19020370794237,-0.335698481727377,0.579842832074519
1580417325.33988,1.12916762035547,-0.274662394140478,0.457770656900948
1580417325.34388,1.12916762035547,-0.274662394140478,0.457770656900948
1580417325.34787,1.0070954451819,-0.213626306553806,0.457770656900948
1580417325.35186,0.885023270008332,-0.213626306553806,0.579842832074519
1580417325.35586,0.823987182421661,-0.091554131380235,0.396734569314049
1580417325.35985,0.762951094834762,-0.152590218966907,0.457770656900948
1580417325.36384,0.885023270008332,-0.274662394140478,0.51880674448762
1580417325.36784,1.12916762035547,-0.213626306553806,0.457770656900948
1580417325.37183,1.19020370794237,-0.213626306553806,0.51880674448762
1580417325.37583,1.19020370794237,-0.335698481727377,0.457770656900948
1580417325.37982,1.25123979552905,-0.274662394140478,0.51880674448762
1580417325.38381,1.49538414587619,-0.274662394140478,0.396734569314049
1580417325.38781,1.55642023346309,-0.396734569314049,0.51880674448762
1580417325.3918,1.67849240863666,-0.51880674448762,0.51880674448762
1580417325.39581,1.67849240863666,-0.70191500724809,0.579842832074519
1580417325.39981,1.67849240863666,-0.70191500724809,0.579842832074519
1580417325.4038,1.67849240863666,-0.823987182421661,0.579842832074519
1580417325.40779,1.73952849622333,-0.640878919661191,0.457770656900948
1580417325.41179,1.43434805828952,-0.762951094834762,0.457770656900948
1580417325.41578,1.37331197070262,-0.823987182421661,0.396734569314049
1580417325.41978,1.37331197070262,-0.823987182421661,0.51880674448762
1580417325.42377,1.61745632104976,-0.946059357595232,0.51880674448762
1580417325.42776,1.49538414587619,-1.0070954451819,0.51880674448762
1580417325.43176,1.43434805828952,-0.946059357595232,0.51880674448762
1580417325.43575,1.61745632104976,-0.885023270008332,0.51880674448762
1580417325.43975,1.43434805828952,-0.823987182421661,0.457770656900948
1580417325.44374,1.31227588311594,-0.762951094834762,0.457770656900948
1580417325.44773,1.31227588311594,-0.70191500724809,0.396734569314049
1580417325.45173,1.43434805828952,-0.70191500724809,0.51880674448762
1580417325.45572,1.49538414587619,-0.70191500724809,0.396734569314049
1580417325.45972,1.43434805828952,-0.579842832074519,0.51880674448762
1580417325.46371,1.49538414587619,-0.579842832074519,0.396734569314049
1580417325.4677,1.55642023346309,-0.823987182421661,0.457770656900948
1580417325.4717,1.55642023346309,-0.70191500724809,0.51880674448762
1580417325.47568,1.49538414587619,-0.579842832074519,0.579842832074519
1580417325.47967,1.19020370794237,-0.70191500724809,0.457770656900948
1580417325.48366,1.19020370794237,-0.70191500724809,0.457770656900948
1580417325.48766,1.25123979552905,-0.70191500724809,0.457770656900948
1580417325.49165,1.19020370794237,-0.762951094834762,0.457770656900948
1580417325.49565,1.19020370794237,-0.823987182421661,0.396734569314049
1580417325.49964,1.0681315327688,-0.946059357595232,0.274662394140478
1580417325.50363,1.19020370794237,-0.946059357595232,0.335698481727377
1580417325.50763,1.0681315327688,-0.946059357595232,0.51880674448762
1580417325.51162,0.946059357595232,-1.0070954451819,0.396734569314049
1580417325.51562,1.0681315327688,-1.12916762035547,0.396734569314049
1580417325.51961,1.0681315327688,-1.0070954451819,0.457770656900948
1580417325.5236,1.31227588311594,-1.0070954451819,0.51880674448762
1580417325.5276,1.31227588311594,-0.885023270008332,0.457770656900948
1580417325.53159,1.37331197070262,-0.640878919661191,0.457770656900948
1580417325.53559,1.49538414587619,-0.457770656900948,0.579842832074519
1580417325.53958,1.55642023346309,-0.51880674448762,0.51880674448762
1580417325.54357,1.67849240863666,-0.274662394140478,0.51880674448762
1580417325.54757,1.73952849622333,-0.457770656900948,0.457770656900948
1580417325.55156,1.73952849622333,-0.640878919661191,0.457770656900948
1580417325.55557,1.55642023346309,-0.579842832074519,0.579842832074519
1580417325.55957,1.49538414587619,-0.579842832074519,0.457770656900948
1580417325.56356,1.61745632104976,-0.762951094834762,0.457770656900948
1580417325.56755,1.25123979552905,-0.640878919661191,0.457770656900948
1580417325.57155,1.31227588311594,-0.823987182421661,0.51880674448762
1580417325.57554,1.0070954451819,-0.640878919661191,0.579842832074519
1580417325.57954,0.946059357595232,-0.885023270008332,0.335698481727377
1580417325.58353,1.12916762035547,-0.885023270008332,0.335698481727377
1580417325.58752,1.0681315327688,-1.0070954451819,0.51880674448762
1580417325.59152,1.25123979552905,-0.762951094834762,0.457770656900948
1580417325.59551,1.12916762035547,-1.0070954451819,0.457770656900948
1580417325.59951,1.0681315327688,-1.0681315327688,0.396734569314049
1580417325.6035,1.0681315327688,-1.25123979552905,0.457770656900948
1580417325.60749,0.946059357595232,-1.0681315327688,0.335698481727377
1580417325.61149,0.823987182421661,-1.12916762035547,0.457770656900948
1580417325.61548,0.70191500724809,-1.19020370794237,0.51880674448762
1580417325.61948,0.51880674448762,-1.0681315327688,0.396734569314049
1580417325.62347,0.579842832074519,-1.12916762035547,0.396734569314049
1580417325.62746,0.335698481727377,-1.0681315327688,0.51880674448762
1580417325.63146,0.152590218966907,-0.823987182421661,0.457770656900948
1580417325.63544,0.152590218966907,-0.640878919661191,0.274662394140478
1580417325.63943,0.274662394140478,-0.457770656900948,0.335698481727377
1580417325.64342,0.274662394140478,-0.457770656900948,0.274662394140478
1580417325.64742,-0.0305180437933359,-0.70191500724809,0.51880674448762
1580417325.65141,0.152590218966907,-0.70191500724809,0.457770656900948
1580417325.65541,0.274662394140478,-0.51880674448762,0.274662394140478
1580417325.6594,0.51880674448762,-0.579842832074519,0.457770656900948
1580417325.66339,0.579842832074519,-0.579842832074519,0.579842832074519
1580417325.66739,0.885023270008332,-0.579842832074519,0.457770656900948
1580417325.67138,0.885023270008332,-0.640878919661191,0.579842832074519
1580417325.67538,0.946059357595232,-0.51880674448762,0.457770656900948
1580417325.67937,1.0681315327688,-0.396734569314049,0.457770656900948
1580417325.68336,0.885023270008332,-0.335698481727377,0.51880674448762
1580417325.68736,0.762951094834762,-0.335698481727377,0.579842832074519
1580417325.69135,0.946059357595232,-0.152590218966907,0.457770656900948
1580417325.69535,1.12916762035547,-0.091554131380235,0.457770656900948
1580417325.69934,1.19020370794237,-0.152590218966907,0.396734569314049
1580417325.70333,1.0681315327688,-0.274662394140478,0.579842832074519
1580417325.70733,1.12916762035547,-0.396734569314049,0.457770656900948
1580417325.71132,1.0070954451819,-0.51880674448762,0.335698481727377
1580417325.71533,1.12916762035547,-0.457770656900948,0.457770656900948
1580417325.71933,1.25123979552905,-0.457770656900948,0.457770656900948
1580417325.72332,1.55642023346309,-0.396734569314049,0.51880674448762
1580417325.72731,2.04470893415737,-0.396734569314049,0.51880674448762
1580417325.73131,2.22781719691761,-0.396734569314049,0.51880674448762
1580417325.7353,2.47196154726475,-0.396734569314049,0.457770656900948
1580417325.7393,2.65506981002522,-0.335698481727377,0.579842832074519
1580417325.74329,2.59403372243833,-0.457770656900948,0.579842832074519
1580417325.74728,2.59403372243833,-0.70191500724809,0.640878919661191
1580417325.75128,2.34988937209118,-0.823987182421661,0.51880674448762
1580417325.75527,2.22781719691761,-0.70191500724809,0.579842832074519
1580417325.75927,2.28885328450451,-0.51880674448762,0.579842832074519
1580417325.76326,2.10574502174404,-0.51880674448762,0.579842832074519
1580417325.76725,2.10574502174404,-0.579842832074519,0.457770656900948
1580417325.77125,1.98367284657047,-0.579842832074519,0.457770656900948
1580417325.77524,2.04470893415737,-0.640878919661191,0.51880674448762
1580417325.77923,2.04470893415737,-0.640878919661191,0.51880674448762
1580417325.78323,2.10574502174404,-0.579842832074519,0.51880674448762
1580417325.78722,1.98367284657047,-0.70191500724809,0.457770656900948
1580417325.79122,1.73952849622333,-0.823987182421661,0.51880674448762
1580417325.79523,1.49538414587619,-0.762951094834762,0.51880674448762
1580417325.79922,1.31227588311594,-0.946059357595232,0.457770656900948
1580417325.80322,1.43434805828952,-0.946059357595232,0.335698481727377
1580417325.80721,1.31227588311594,-0.885023270008332,0.396734569314049
1580417325.8112,1.43434805828952,-0.946059357595232,0.457770656900948
1580417325.8152,1.12916762035547,-0.946059357595232,0.396734569314049
1580417325.81919,1.19020370794237,-0.823987182421661,0.396734569314049
1580417325.82318,0.946059357595232,-0.762951094834762,0.335698481727377
1580417325.82718,0.823987182421661,-0.640878919661191,0.335698481727377
1580417325.83117,1.0070954451819,-0.579842832074519,0.396734569314049
1580417325.83517,0.946059357595232,-0.70191500724809,0.396734569314049
1580417325.83916,0.946059357595232,-0.579842832074519,0.457770656900948
1580417325.84315,1.0681315327688,-0.640878919661191,0.457770656900948
1580417325.84715,1.0681315327688,-0.51880674448762,0.396734569314049
1580417325.85114,0.946059357595232,-0.579842832074519,0.51880674448762
1580417325.85514,1.0070954451819,-0.51880674448762,0.457770656900948
1580417325.85913,1.12916762035547,-0.457770656900948,0.396734569314049
1580417325.86312,1.12916762035547,-0.457770656900948,0.51880674448762
1580417325.86712,1.25123979552905,-0.457770656900948,0.457770656900948
1580417325.87111,1.0681315327688,-0.457770656900948,0.457770656900948
1580417325.87509,1.0681315327688,-0.579842832074519,0.579842832074519
1580417325.87908,1.12916762035547,-0.51880674448762,0.51880674448762
1580417325.88308,0.946059357595232,-0.640878919661191,0.457770656900948
1580417325.88707,0.946059357595232,-0.70191500724809,0.457770656900948
1580417325.89107,0.946059357595232,-0.579842832074519,0.335698481727377
1580417325.89506,0.946059357595232,-0.640878919661191,0.457770656900948
1580417325.89906,0.885023270008332,-0.70191500724809,0.457770656900948
1580417325.90305,0.946059357595232,-0.579842832074519,0.51880674448762
1580417325.90704,1.0681315327688,-0.51880674448762,0.457770656900948
1580417325.91104,0.885023270008332,-0.640878919661191,0.51880674448762
1580417325.91503,1.0681315327688,-0.51880674448762,0.396734569314049
1580417325.91902,1.43434805828952,-0.51880674448762,0.51880674448762
1580417325.92302,1.61745632104976,-0.274662394140478,0.579842832074519
1580417325.92701,1.67849240863666,-0.396734569314049,0.51880674448762
1580417325.93101,2.04470893415737,-0.457770656900948,0.51880674448762
1580417325.935,1.9226367589838,-0.396734569314049,0.640878919661191
1580417325.93899,1.8616006713969,-0.396734569314049,0.640878919661191
1580417325.94299,1.8616006713969,-0.51880674448762,0.579842832074519
1580417325.94698,1.80056458381023,-0.457770656900948,0.51880674448762
1580417325.95098,1.80056458381023,-0.70191500724809,0.51880674448762
1580417325.95499,1.67849240863666,-0.51880674448762,0.640878919661191
1580417325.95898,1.73952849622333,-0.396734569314049,0.579842832074519
1580417325.96297,1.80056458381023,-0.396734569314049,0.579842832074519
1580417325.96697,1.9226367589838,-0.396734569314049,0.579842832074519
1580417325.97096,2.10574502174404,-0.457770656900948,0.640878919661191
1580417325.97496,2.22781719691761,-0.335698481727377,0.640878919661191
1580417325.97895,2.34988937209118,-0.335698481727377,0.579842832074519
1580417325.98294,2.34988937209118,-0.213626306553806,0.579842832074519
1580417325.98694,2.34988937209118,-0.213626306553806,0.640878919661191
1580417325.99093,2.41092545967808,-0.213626306553806,0.640878919661191
1580417325.99493,2.34988937209118,-0.091554131380235,0.579842832074519
1580417325.99892,2.47196154726475,-0.213626306553806,0.640878919661191
1580417326.00291,2.47196154726475,-0.335698481727377,0.579842832074519
1580417326.00691,2.22781719691761,-0.457770656900948,0.640878919661191
1580417326.0109,2.28885328450451,-0.274662394140478,0.579842832074519
1580417326.0149,2.10574502174404,-0.213626306553806,0.51880674448762
1580417326.01889,1.73952849622333,-0.274662394140478,0.579842832074519
1580417326.02288,1.55642023346309,-0.396734569314049,0.579842832074519
1580417326.02688,1.25123979552905,-0.335698481727377,0.640878919661191
1580417326.03087,1.0681315327688,-0.457770656900948,0.396734569314049
1580417326.03485,1.0681315327688,-0.51880674448762,0.396734569314049
1580417326.03884,0.946059357595232,-0.51880674448762,0.274662394140478
1580417326.04284,1.0070954451819,-0.579842832074519,0.457770656900948
1580417326.04683,1.12916762035547,-0.640878919661191,0.457770656900948
1580417326.05083,1.19020370794237,-0.640878919661191,0.335698481727377
1580417326.05482,0.885023270008332,-0.640878919661191,0.396734569314049
1580417326.05882,0.762951094834762,-0.579842832074519,0.51880674448762
1580417326.06281,0.70191500724809,-0.457770656900948,0.457770656900948
1580417326.0668,0.579842832074519,-0.396734569314049,0.457770656900948
1580417326.0708,0.762951094834762,-0.274662394140478,0.396734569314049
1580417326.07479,0.885023270008332,-0.396734569314049,0.396734569314049
1580417326.07878,0.70191500724809,-0.335698481727377,0.51880674448762
1580417326.08278,0.457770656900948,-0.457770656900948,0.51880674448762
1580417326.08677,0.396734569314049,-0.396734569314049,0.579842832074519
1580417326.09077,0.579842832074519,-0.457770656900948,0.579842832074519
1580417326.09476,0.70191500724809,-0.335698481727377,0.457770656900948
1580417326.09875,0.51880674448762,-0.396734569314049,0.51880674448762
1580417326.10275,0.640878919661191,-0.457770656900948,0.640878919661191
1580417326.10674,0.640878919661191,-0.396734569314049,0.51880674448762
1580417326.11074,0.579842832074519,-0.274662394140478,0.51880674448762
1580417326.11475,0.457770656900948,-0.274662394140478,0.457770656900948
1580417326.11874,0.396734569314049,-0.213626306553806,0.457770656900948
1580417326.12273,0.274662394140478,-0.274662394140478,0.457770656900948
1580417326.12673,0.396734569314049,-0.274662394140478,0.396734569314049
1580417326.13072,0.640878919661191,-0.152590218966907,0.396734569314049
1580417326.13472,0.762951094834762,0.0305180437933359,0.457770656900948
1580417326.13871,0.579842832074519,0.0305180437933359,0.51880674448762
1580417326.1427,0.51880674448762,-0.0305180437933359,0.335698481727377
1580417326.1467,0.457770656900948,-0.0305180437933359,0.335698481727377
1580417326.15069,0.335698481727377,-0.0305180437933359,0.457770656900948
1580417326.15469,0.335698481727377,0.0305180437933359,0.51880674448762
1580417326.15868,0.335698481727377,0.0305180437933359,0.457770656900948
1580417326.16267,0.396734569314049,-0.0305180437933359,0.396734569314049
1580417326.16667,0.213626306553806,0.0305180437933359,0.457770656900948
1580417326.17066,0.274662394140478,-0.0305180437933359,0.396734569314049
1580417326.17466,0.396734569314049,-0.091554131380235,0.396734569314049
1580417326.17865,0.579842832074519,-0.091554131380235,0.457770656900948
1580417326.18264,0.885023270008332,-0.091554131380235,0.457770656900948
1580417326.18664,1.0070954451819,-0.091554131380235,0.579842832074519
1580417326.19063,1.31227588311594,-0.0305180437933359,0.51880674448762
1580417326.19461,1.49538414587619,-0.152590218966907,0.51880674448762
1580417326.1986,1.73952849622333,-0.152590218966907,0.457770656900948
1580417326.2026,1.9226367589838,-0.091554131380235,0.579842832074519
1580417326.20659,2.04470893415737,-0.213626306553806,0.579842832074519
1580417326.21059,2.16678110933094,-0.274662394140478,0.762951094834762
1580417326.21458,2.04470893415737,-0.335698481727377,0.640878919661191
1580417326.21857,1.9226367589838,-0.396734569314049,0.457770656900948
1580417326.22257,2.22781719691761,-0.457770656900948,0.396734569314049
1580417326.22656,1.80056458381023,-0.457770656900948,0.335698481727377
1580417326.23056,1.67849240863666,-0.579842832074519,0.274662394140478
1580417326.23455,1.49538414587619,-0.640878919661191,0.579842832074519
1580417326.23854,1.31227588311594,-0.823987182421661,0.51880674448762
1580417326.24254,1.55642023346309,-0.579842832074519,0.457770656900948
1580417326.24653,1.31227588311594,-0.51880674448762,0.396734569314049
1580417326.25053,1.49538414587619,-0.640878919661191,0.457770656900948
1580417326.25452,1.49538414587619,-0.51880674448762,0.396734569314049
1580417326.25851,1.73952849622333,-0.51880674448762,0.457770656900948
1580417326.26251,1.98367284657047,-0.579842832074519,0.457770656900948
1580417326.2665,1.9226367589838,-0.457770656900948,0.457770656900948
1580417326.2705,1.98367284657047,-0.579842832074519,0.396734569314049
1580417326.2745,2.10574502174404,-0.579842832074519,0.457770656900948
1580417326.2785,2.04470893415737,-0.640878919661191,0.579842832074519
1580417326.28249,2.16678110933094,-0.457770656900948,0.457770656900948
1580417326.28649,2.10574502174404,-0.579842832074519,0.51880674448762
1580417326.29048,2.22781719691761,-0.640878919661191,0.579842832074519
1580417326.29447,2.04470893415737,-0.70191500724809,0.579842832074519
1580417326.29847,2.04470893415737,-0.579842832074519,0.579842832074519
1580417326.30246,2.10574502174404,-0.640878919661191,0.579842832074519
1580417326.30646,1.8616006713969,-0.51880674448762,0.51880674448762
1580417326.31045,1.9226367589838,-0.396734569314049,0.51880674448762
1580417326.31445,1.98367284657047,-0.274662394140478,0.457770656900948
1580417326.31844,1.73952849622333,-0.213626306553806,0.640878919661191
1580417326.32243,1.73952849622333,-0.274662394140478,0.579842832074519
1580417326.32643,1.61745632104976,-0.274662394140478,0.457770656900948
1580417326.33042,1.37331197070262,-0.213626306553806,0.51880674448762
1580417326.33441,1.25123979552905,-0.213626306553806,0.457770656900948
1580417326.33841,1.19020370794237,-0.213626306553806,0.51880674448762
1580417326.3424,1.19020370794237,0.0305180437933359,0.396734569314049
1580417326.3464,1.0681315327688,0.152590218966907,0.396734569314049
1580417326.35039,1.0070954451819,0.335698481727377,0.457770656900948
1580417326.35437,0.946059357595232,0.213626306553806,0.51880674448762
1580417326.35836,0.762951094834762,0.396734569314049,0.457770656900948
1580417326.36236,0.823987182421661,0.51880674448762,0.51880674448762
1580417326.36635,0.823987182421661,0.51880674448762,0.51880674448762
1580417326.37035,0.823987182421661,0.457770656900948,0.457770656900948
1580417326.37434,0.70191500724809,0.579842832074519,0.51880674448762
1580417326.37833,0.70191500724809,0.457770656900948,0.396734569314049
1580417326.38233,0.640878919661191,0.152590218966907,0.335698481727377
1580417326.38632,0.640878919661191,0.213626306553806,0.396734569314049
1580417326.39032,0.579842832074519,0.152590218966907,0.51880674448762
1580417326.39431,0.762951094834762,0.152590218966907,0.579842832074519
1580417326.3983,0.885023270008332,0.091554131380235,0.51880674448762
1580417326.4023,0.70191500724809,0.0305180437933359,0.457770656900948
1580417326.40629,0.885023270008332,-0.0305180437933359,0.51880674448762
1580417326.41029,1.0681315327688,0.152590218966907,0.51880674448762
1580417326.41428,1.19020370794237,0.213626306553806,0.579842832074519
1580417326.41827,1.37331197070262,0.091554131380235,0.51880674448762
1580417326.42227,1.31227588311594,0.091554131380235,0.70191500724809
1580417326.42626,1.49538414587619,0.152590218966907,0.640878919661191
1580417326.43026,1.49538414587619,0.152590218966907,0.640878919661191
1580417326.43426,1.55642023346309,0.0305180437933359,0.457770656900948
1580417326.43826,1.31227588311594,-0.0305180437933359,0.457770656900948
1580417326.44225,1.12916762035547,-0.213626306553806,0.457770656900948
1580417326.44625,1.12916762035547,-0.274662394140478,0.51880674448762
1580417326.45024,1.0070954451819,-0.213626306553806,0.51880674448762
1580417326.45423,1.12916762035547,-0.335698481727377,0.579842832074519
1580417326.45823,1.0070954451819,-0.457770656900948,0.579842832074519
1580417326.46222,0.885023270008332,-0.335698481727377,0.396734569314049
1580417326.46622,0.823987182421661,-0.335698481727377,0.396734569314049
1580417326.47021,0.885023270008332,-0.213626306553806,0.335698481727377
1580417326.47421,1.0070954451819,-0.152590218966907,0.457770656900948
1580417326.4782,1.12916762035547,-0.152590218966907,0.396734569314049
1580417326.48219,1.0070954451819,-0.213626306553806,0.579842832074519
1580417326.48619,0.946059357595232,-0.091554131380235,0.51880674448762
1580417326.49018,0.946059357595232,0.0305180437933359,0.51880674448762
1580417326.49417,0.762951094834762,0.0305180437933359,0.51880674448762
1580417326.49817,0.823987182421661,0.091554131380235,0.457770656900948
1580417326.50216,0.762951094834762,0.0305180437933359,0.457770656900948
1580417326.50616,0.762951094834762,0.091554131380235,0.335698481727377
1580417326.51015,0.70191500724809,-0.0305180437933359,0.396734569314049
1580417326.51413,0.823987182421661,-0.0305180437933359,0.51880674448762
1580417326.51812,0.823987182421661,-0.091554131380235,0.396734569314049
1580417326.52212,0.885023270008332,-0.152590218966907,0.396734569314049
1580417326.52611,1.0681315327688,-0.0305180437933359,0.396734569314049
1580417326.5301,1.0681315327688,0.0305180437933359,0.457770656900948
1580417326.5341,1.25123979552905,-0.0305180437933359,0.51880674448762
1580417326.53809,1.25123979552905,-0.0305180437933359,0.396734569314049
1580417326.54209,1.31227588311594,-0.0305180437933359,0.457770656900948
1580417326.54608,1.55642023346309,0.0305180437933359,0.579842832074519
1580417326.55007,1.61745632104976,-0.0305180437933359,0.51880674448762
1580417326.55407,1.49538414587619,-0.0305180437933359,0.579842832074519
1580417326.55806,1.61745632104976,-0.0305180437933359,0.51880674448762
1580417326.56206,1.67849240863666,0.152590218966907,0.457770656900948
1580417326.56605,1.67849240863666,-0.091554131380235,0.457770656900948
1580417326.57004,1.43434805828952,-0.213626306553806,0.335698481727377
1580417326.57404,1.19020370794237,-0.091554131380235,0.396734569314049
1580417326.57803,1.25123979552905,-0.213626306553806,0.396734569314049
1580417326.58203,1.19020370794237,-0.274662394140478,0.396734569314049
1580417326.58602,1.31227588311594,-0.457770656900948,0.396734569314049
1580417326.59001,1.25123979552905,-0.335698481727377,0.396734569314049
1580417326.59402,1.19020370794237,-0.396734569314049,0.335698481727377
1580417326.59802,1.49538414587619,-0.51880674448762,0.396734569314049
1580417326.60201,1.55642023346309,-0.335698481727377,0.457770656900948
1580417326.60601,1.49538414587619,-0.396734569314049,0.457770656900948
1580417326.61,1.37331197070262,-0.335698481727377,0.457770656900948
1580417326.61399,1.31227588311594,-0.335698481727377,0.457770656900948
1580417326.61799,1.19020370794237,-0.335698481727377,0.457770656900948
1580417326.62198,1.12916762035547,-0.274662394140478,0.51880674448762
1580417326.62598,1.25123979552905,-0.213626306553806,0.51880674448762
1580417326.62997,1.19020370794237,-0.213626306553806,0.579842832074519
1580417326.63396,1.0681315327688,-0.152590218966907,0.457770656900948
1580417326.63796,1.19020370794237,0.0305180437933359,0.51880674448762
1580417326.64195,1.12916762035547,0.152590218966907,0.579842832074519
1580417326.64595,0.946059357595232,0.152590218966907,0.579842832074519
1580417326.64994,0.946059357595232,0.0305180437933359,0.457770656900948
1580417326.65393,1.0070954451819,0.0305180437933359,0.457770656900948
1580417326.65793,0.885023270008332,-0.152590218966907,0.396734569314049
1580417326.66192,0.762951094834762,-0.213626306553806,0.457770656900948
1580417326.66592,0.762951094834762,-0.152590218966907,0.396734569314049
1580417326.66991,0.823987182421661,-0.213626306553806,0.51880674448762
1580417326.67389,0.823987182421661,-0.274662394140478,0.457770656900948
1580417326.67788,0.885023270008332,-0.213626306553806,0.396734569314049
1580417326.68188,0.823987182421661,-0.091554131380235,0.457770656900948
1580417326.68587,0.823987182421661,-0.0305180437933359,0.51880674448762
1580417326.68986,0.762951094834762,-0.091554131380235,0.457770656900948
1580417326.69386,0.885023270008332,-0.152590218966907,0.396734569314049
1580417326.69785,0.70191500724809,-0.152590218966907,0.335698481727377
1580417326.70185,0.70191500724809,-0.091554131380235,0.457770656900948
1580417326.70584,0.640878919661191,-0.152590218966907,0.457770656900948
1580417326.70983,0.762951094834762,-0.152590218966907,0.396734569314049
1580417326.71383,0.70191500724809,-0.213626306553806,0.396734569314049
1580417326.71782,0.946059357595232,-0.091554131380235,0.335698481727377
1580417326.72182,1.0070954451819,-0.0305180437933359,0.51880674448762
1580417326.72581,1.0070954451819,-0.0305180437933359,0.457770656900948
1580417326.7298,1.25123979552905,-0.091554131380235,0.457770656900948
1580417326.7338,1.37331197070262,-0.0305180437933359,0.51880674448762
1580417326.73779,1.49538414587619,-0.152590218966907,0.640878919661191
1580417326.74179,1.49538414587619,-0.152590218966907,0.457770656900948
1580417326.74578,1.61745632104976,-0.152590218966907,0.457770656900948
1580417326.74977,1.73952849622333,0.0305180437933359,0.579842832074519
1580417326.75378,1.55642023346309,-0.091554131380235,0.51880674448762
1580417326.75778,1.55642023346309,-0.152590218966907,0.51880674448762
1580417326.76177,1.43434805828952,-0.091554131380235,0.51880674448762
1580417326.76577,1.37331197070262,-0.0305180437933359,0.51880674448762
1580417326.76976,1.31227588311594,-0.091554131380235,0.457770656900948
1580417326.77375,1.12916762035547,-0.152590218966907,0.457770656900948
1580417326.77775,0.946059357595232,-0.213626306553806,0.396734569314049
1580417326.78174,0.946059357595232,-0.213626306553806,0.51880674448762
1580417326.78574,0.885023270008332,-0.335698481727377,0.457770656900948
1580417326.78973,0.885023270008332,-0.335698481727377,0.457770656900948
1580417326.79372,0.885023270008332,-0.335698481727377,0.396734569314049
1580417326.79772,0.946059357595232,-0.335698481727377,0.457770656900948
1580417326.80171,1.12916762035547,-0.274662394140478,0.51880674448762
1580417326.80571,1.25123979552905,-0.274662394140478,0.51880674448762
1580417326.8097,1.25123979552905,-0.274662394140478,0.579842832074519
1580417326.81369,1.43434805828952,-0.274662394140478,0.579842832074519
1580417326.81769,1.49538414587619,-0.213626306553806,0.51880674448762
1580417326.82168,1.67849240863666,-0.274662394140478,0.457770656900948
1580417326.82568,1.49538414587619,-0.335698481727377,0.457770656900948
1580417326.82967,1.37331197070262,-0.335698481727377,0.396734569314049
1580417326.83365,1.31227588311594,-0.335698481727377,0.457770656900948
1580417326.83764,1.0681315327688,-0.396734569314049,0.51880674448762
1580417326.84164,0.823987182421661,-0.457770656900948,0.396734569314049
1580417326.84563,0.762951094834762,-0.335698481727377,0.457770656900948
1580417326.84962,0.762951094834762,-0.579842832074519,0.396734569314049
1580417326.85362,0.762951094834762,-0.70191500724809,0.335698481727377
1580417326.85761,0.579842832074519,-0.762951094834762,0.335698481727377
1580417326.86161,0.457770656900948,-0.640878919661191,0.274662394140478
1580417326.8656,0.70191500724809,-0.640878919661191,0.213626306553806
1580417326.86959,0.823987182421661,-0.579842832074519,0.335698481727377
1580417326.87359,0.946059357595232,-0.640878919661191,0.335698481727377
1580417326.87758,0.885023270008332,-0.579842832074519,0.335698481727377
1580417326.88158,1.0681315327688,-0.579842832074519,0.396734569314049
1580417326.88557,1.0681315327688,-0.51880674448762,0.396734569314049
1580417326.88956,1.19020370794237,-0.335698481727377,0.457770656900948
1580417326.89356,1.25123979552905,-0.274662394140478,0.457770656900948
1580417326.89755,1.0681315327688,-0.274662394140478,0.396734569314049
1580417326.90155,0.946059357595232,-0.335698481727377,0.396734569314049
1580417326.90554,0.823987182421661,-0.396734569314049,0.396734569314049
1580417326.90953,0.70191500724809,-0.213626306553806,0.457770656900948
1580417326.91354,0.946059357595232,-0.213626306553806,0.396734569314049
1580417326.91754,0.885023270008332,-0.152590218966907,0.457770656900948
1580417326.92153,0.885023270008332,-0.091554131380235,0.396734569314049
1580417326.92552,1.12916762035547,-0.091554131380235,0.396734569314049
1580417326.92952,1.37331197070262,0.0305180437933359,0.579842832074519
1580417326.93351,1.67849240863666,-0.0305180437933359,0.51880674448762
1580417326.93751,1.73952849622333,-0.152590218966907,0.579842832074519
1580417326.9415,1.61745632104976,-0.0305180437933359,0.640878919661191
1580417326.94549,1.73952849622333,0.152590218966907,0.70191500724809
1580417326.94949,1.49538414587619,0.0305180437933359,0.579842832074519
1580417326.95348,1.31227588311594,-0.091554131380235,0.51880674448762
1580417326.95748,1.12916762035547,-0.0305180437933359,0.51880674448762
1580417326.96147,1.0070954451819,-0.0305180437933359,0.579842832074519
1580417326.96546,0.762951094834762,-0.091554131380235,0.396734569314049
1580417326.96946,0.640878919661191,-0.213626306553806,0.335698481727377
1580417326.97345,0.152590218966907,-0.213626306553806,0.335698481727377
1580417326.97745,0.0305180437933359,-0.396734569314049,0.335698481727377
1580417326.98144,-0.0305180437933359,-0.579842832074519,0.274662394140478
1580417326.98544,-0.152590218966907,-0.457770656900948,0.335698481727377
1580417326.98943,-0.091554131380235,-0.457770656900948,0.213626306553806
1580417326.99341,-0.091554131380235,-0.579842832074519,0.335698481727377
1580417326.9974,0.0305180437933359,-0.51880674448762,0.335698481727377
1580417327.0014,0.152590218966907,-0.457770656900948,0.335698481727377
1580417327.00539,0.0305180437933359,-0.457770656900948,0.335698481727377
1580417327.00938,0.274662394140478,-0.51880674448762,0.335698481727377
1580417327.01338,0.335698481727377,-0.457770656900948,0.274662394140478
1580417327.01737,0.51880674448762,-0.396734569314049,0.396734569314049
1580417327.02137,0.51880674448762,-0.152590218966907,0.457770656900948
1580417327.02536,0.457770656900948,-0.274662394140478,0.396734569314049
1580417327.02935,0.51880674448762,-0.274662394140478,0.457770656900948
1580417327.03335,0.579842832074519,-0.335698481727377,0.457770656900948
1580417327.03734,0.51880674448762,-0.396734569314049,0.335698481727377
1580417327.04134,0.579842832074519,-0.396734569314049,0.51880674448762
1580417327.04533,0.823987182421661,-0.457770656900948,0.457770656900948
1580417327.04932,1.0070954451819,-0.396734569314049,0.396734569314049
1580417327.05332,1.19020370794237,-0.457770656900948,0.51880674448762
1580417327.05731,1.31227588311594,-0.51880674448762,0.457770656900948
1580417327.06131,1.49538414587619,-0.457770656900948,0.457770656900948
1580417327.0653,1.67849240863666,-0.457770656900948,0.51880674448762
1580417327.06929,1.80056458381023,-0.335698481727377,0.51880674448762
1580417327.0733,2.16678110933094,-0.213626306553806,0.640878919661191
1580417327.0773,2.04470893415737,-0.213626306553806,0.51880674448762
1580417327.08129,2.10574502174404,-0.335698481727377,0.579842832074519
1580417327.08528,2.10574502174404,-0.396734569314049,0.457770656900948
1580417327.08928,2.10574502174404,-0.579842832074519,0.51880674448762
1580417327.09327,2.04470893415737,-0.579842832074519,0.51880674448762
1580417327.09727,2.04470893415737,-0.579842832074519,0.640878919661191
1580417327.10126,1.9226367589838,-0.640878919661191,0.51880674448762
1580417327.10525,2.04470893415737,-0.51880674448762,0.579842832074519
1580417327.10925,1.98367284657047,-0.457770656900948,0.640878919661191
1580417327.11324,2.10574502174404,-0.396734569314049,0.51880674448762
1580417327.11724,2.22781719691761,-0.274662394140478,0.457770656900948
1580417327.12123,2.04470893415737,-0.335698481727377,0.51880674448762
1580417327.12522,1.80056458381023,-0.396734569314049,0.51880674448762
1580417327.12922,1.67849240863666,-0.335698481727377,0.579842832074519
1580417327.13321,1.43434805828952,-0.457770656900948,0.579842832074519
1580417327.13721,1.37331197070262,-0.457770656900948,0.579842832074519
1580417327.1412,1.12916762035547,-0.579842832074519,0.579842832074519
1580417327.1452,0.823987182421661,-0.640878919661191,0.579842832074519
1580417327.14919,0.640878919661191,-0.579842832074519,0.457770656900948
1580417327.15317,0.51880674448762,-0.579842832074519,0.457770656900948
1580417327.15716,0.335698481727377,-0.51880674448762,0.335698481727377
1580417327.16115,-0.091554131380235,-0.396734569314049,0.335698481727377
1580417327.16515,-0.152590218966907,-0.457770656900948,0.274662394140478
1580417327.16914,-0.274662394140478,-0.457770656900948,0.274662394140478
1580417327.17314,-0.335698481727377,-0.457770656900948,0.274662394140478
1580417327.17713,-0.152590218966907,-0.51880674448762,0.213626306553806
1580417327.18112,-0.274662394140478,-0.51880674448762,0.213626306553806
1580417327.18512,-0.457770656900948,-0.335698481727377,0.213626306553806
1580417327.18911,-0.457770656900948,-0.274662394140478,0.213626306553806
1580417327.19311,-0.396734569314049,-0.396734569314049,0.274662394140478
1580417327.1971,-0.396734569314049,-0.335698481727377,0.274662394140478
1580417327.20109,-0.274662394140478,-0.152590218966907,0.335698481727377
1580417327.20509,-0.0305180437933359,0.0305180437933359,0.396734569314049
1580417327.20908,0.335698481727377,0.0305180437933359,0.335698481727377
1580417327.21308,0.70191500724809,0.213626306553806,0.457770656900948
1580417327.21707,1.19020370794237,0.396734569314049,0.51880674448762
1580417327.22107,1.25123979552905,0.457770656900948,0.579842832074519
1580417327.22506,1.43434805828952,0.579842832074519,0.51880674448762
1580417327.22905,1.9226367589838,0.946059357595232,0.457770656900948
1580417327.23306,2.16678110933094,1.12916762035547,0.51880674448762
1580417327.23706,2.7161058976119,1.19020370794237,0.51880674448762
1580417327.24105,2.7771419851988,1.37331197070262,0.640878919661191
1580417327.24504,2.83817807278547,1.31227588311594,0.640878919661191
1580417327.24904,2.89921416037237,1.19020370794237,0.579842832074519
1580417327.25303,2.7161058976119,1.0681315327688,0.640878919661191
1580417327.25703,2.7161058976119,1.0681315327688,0.70191500724809
1580417327.26102,2.83817807278547,1.12916762035547,0.70191500724809
1580417327.26501,3.14335851071951,1.12916762035547,0.762951094834762
1580417327.26901,3.50957503624022,1.25123979552905,0.762951094834762
1580417327.273,3.87579156176093,1.37331197070262,0.762951094834762
1580417327.277,4.05889982452118,1.43434805828952,0.823987182421661
1580417327.28099,4.30304417486832,1.55642023346309,0.762951094834762
1580417327.28498,4.66926070038903,1.9226367589838,0.946059357595232
1580417327.28898,4.91340505073617,1.98367284657047,0.823987182421661
1580417327.29297,5.21858548867021,2.41092545967808,0.885023270008332
1580417327.29697,5.40169375143046,2.83817807278547,1.12916762035547
1580417327.30096,5.7068741893645,3.02128633554594,1.12916762035547
1580417327.30495,5.95101853971164,3.50957503624022,1.0681315327688
1580417327.30895,5.82894636453807,3.87579156176093,1.0070954451819
1580417327.31293,5.76791027695117,4.11993591210808,1.0681315327688
1580417327.31692,5.21858548867021,4.05889982452118,1.19020370794237
1580417327.32091,4.24200808728165,3.87579156176093,1.0681315327688
1580417327.32491,3.14335851071951,3.69268329900046,1.0070954451819
