Timestamp_seconds,Accel_X_g,Accel_Y_g,Accel_Z_g
1580417320.55905,0.0432135500114441,0.00170901045242999,-0.992446784161135
1580417320.56304,0.0397955291065841,0.0046387426565957,-0.995376516365301
1580417320.56703,0.0427252613107498,0.00219729915312428,-0.992446784161135
1580417320.57103,0.0432135500114441,0.000244144350347142,-0.990981918059052
1580417320.57502,0.0407721065079727,0.00122072175173571,-0.989028763256275
1580417320.57902,0.0432135500114441,0.00268558785381856,-0.989028763256275
1580417320.58301,0.0427252613107498,0.00366216525520713,-0.99293507286183
1580417320.587,0.041260395208667,0.00415045395590141,-0.992446784161135
1580417320.591,0.0417486839093613,0.00415045395590141,-0.994399938963912
1580417320.59499,0.041260395208667,0.00512703135728998,-0.990493629358358
1580417320.59899,0.0402838178072784,0.00268558785381856,-0.990981918059052
1580417320.60297,0.0422369726100555,0.00415045395590141,-0.991470206759747
1580417320.60696,0.041260395208667,0.00122072175173571,-0.988052185854887
1580417320.61095,0.044678416113527,-0.00122072175173571,-0.99293507286183
1580417320.61495,0.0437018387121384,0.00366216525520713,-0.99293507286183
1580417320.61894,0.0441901274128327,0.00122072175173571,-0.990493629358358
1580417320.62294,0.0427252613107498,0.00268558785381856,-0.990981918059052
1580417320.62693,0.0441901274128327,0.0046387426565957,-0.99293507286183
1580417320.63092,0.0432135500114441,0.00317387655451284,-0.990493629358358
1580417320.63492,0.0402838178072784,0.00415045395590141,-0.992446784161135
1580417320.63891,0.0427252613107498,0.00317387655451284,-0.993911650263218
1580417320.64291,0.041260395208667,0.00561532005798426,-0.989028763256275
1580417320.6469,0.0422369726100555,0.00170901045242999,-0.993423361562524
1580417320.65089,0.0407721065079727,0.00317387655451284,-0.993911650263218
1580417320.65489,0.041260395208667,0.0046387426565957,-0.993911650263218
1580417320.65888,0.0422369726100555,0.00366216525520713,-0.994399938963912
1580417320.66288,0.0417486839093613,0.00170901045242999,-0.993911650263218
1580417320.66687,0.0417486839093613,0.00268558785381856,-0.998794537270161
1580417320.67086,0.041260395208667,0.00317387655451284,-0.987075608453498
1580417320.67486,0.0427252613107498,0.000244144350347142,-0.993423361562524
1580417320.67885,0.0427252613107498,0.00170901045242999,-0.989028763256275
1580417320.68286,0.0437018387121384,0.00317387655451284,-0.990493629358358
1580417320.68685,0.044678416113527,0.00366216525520713,-0.991958495460441
1580417320.69085,0.0422369726100555,0.00561532005798426,-0.990981918059052
1580417320.69484,0.0422369726100555,0.00219729915312428,-0.994399938963912
1580417320.69884,0.0456549935149155,0.00268558785381856,-0.990005340657664
1580417320.70283,0.0417486839093613,0.00170901045242999,-0.990005340657664
1580417320.70683,0.0393072404058898,0.00122072175173571,-0.993423361562524
1580417320.71082,0.0437018387121384,0.00170901045242999,-0.987563897154192
1580417320.71481,0.0407721065079727,-0.00122072175173571,-0.99293507286183
1580417320.71881,0.0461432822156098,0.0046387426565957,-0.987075608453498
1580417320.7228,0.0422369726100555,0.000244144350347142,-0.985122453650721
1580417320.72679,0.0437018387121384,0.00122072175173571,-0.98951705195697
1580417320.73079,0.041260395208667,-0.000732433051041426,-0.988540474555581
1580417320.73478,0.0422369726100555,0.00122072175173571,-0.993911650263218
1580417320.73878,0.0437018387121384,0.0046387426565957,-0.994399938963912
1580417320.74277,0.044678416113527,0.00268558785381856,-0.990493629358358
1580417320.74676,0.0437018387121384,0.00366216525520713,-0.993423361562524
1580417320.75076,0.0427252613107498,0.000244144350347142,-0.99293507286183
1580417320.75475,0.0417486839093613,0.000732433051041426,-0.990493629358358
1580417320.75875,0.0407721065079727,0.00512703135728998,-0.993911650263218
1580417320.76272,0.0437018387121384,0.00415045395590141,-0.99635309376669
1580417320.76672,0.0432135500114441,0.00366216525520713,-0.993911650263218
1580417320.77071,0.0393072404058898,0.00219729915312428,-0.990493629358358
1580417320.77471,0.0427252613107498,0.00122072175173571,-0.990493629358358
1580417320.7787,0.0451667048142212,0.00170901045242999,-0.99293507286183
1580417320.78269,0.0402838178072784,0.00219729915312428,-0.990493629358358
1580417320.78669,0.0441901274128327,0.00170901045242999,-0.993911650263218
1580417320.79068,0.0432135500114441,0.00170901045242999,-0.990493629358358
1580417320.79468,0.0441901274128327,0.000244144350347142,-0.990981918059052
1580417320.79867,0.044678416113527,0.00170901045242999,-0.990005340657664
1580417320.80266,0.0437018387121384,0.00268558785381856,-0.994399938963912
1580417320.80666,0.0437018387121384,0.00268558785381856,-0.99293507286183
1580417320.81065,0.0456549935149155,0.00170901045242999,-0.992446784161135
1580417320.81465,0.0422369726100555,0.00317387655451284,-0.995376516365301
1580417320.81864,0.0427252613107498,0.00170901045242999,-0.994888227664607
1580417320.82263,0.0422369726100555,0.00219729915312428,-0.994888227664607
1580417320.82663,0.0427252613107498,0.0046387426565957,-0.994888227664607
1580417320.83062,0.0432135500114441,0.00268558785381856,-0.990981918059052
1580417320.83462,0.0407721065079727,0.00366216525520713,-0.992446784161135
1580417320.83861,0.041260395208667,0.00219729915312428,-0.994888227664607
1580417320.84262,0.0417486839093613,0.00170901045242999,-0.990005340657664
1580417320.84661,0.041260395208667,0.00268558785381856,-0.988540474555581
1580417320.85061,0.0422369726100555,0.00366216525520713,-0.990005340657664
1580417320.8546,0.0422369726100555,0.00170901045242999,-0.99293507286183
1580417320.8586,0.0407721065079727,0.00317387655451284,-0.990981918059052
1580417320.86259,0.0432135500114441,0.000732433051041426,-0.990005340657664
1580417320.86658,0.0402838178072784,0.00268558785381856,-0.991470206759747
1580417320.87058,0.041260395208667,0.00366216525520713,-0.992446784161135
1580417320.87457,0.0407721065079727,0.00512703135728998,-0.987563897154192
1580417320.87857,0.0432135500114441,0.00219729915312428,-0.991958495460441
1580417320.88256,0.0456549935149155,0.00366216525520713,-0.991470206759747
1580417320.88655,0.0451667048142212,0.00219729915312428,-0.991958495460441
1580417320.89055,0.0451667048142212,-0.000244144350347142,-0.994888227664607
1580417320.89454,0.0437018387121384,0.00219729915312428,-0.991470206759747
1580417320.89854,0.0427252613107498,0.00268558785381856,-0.993911650263218
1580417320.90253,0.0441901274128327,0.00219729915312428,-0.98951705195697
1580417320.90652,0.0437018387121384,0.00122072175173571,-0.993423361562524
1580417320.91052,0.044678416113527,0.00170901045242999,-0.991958495460441
1580417320.91451,0.0397955291065841,0.00268558785381856,-0.989028763256275
1580417320.91851,0.0388189517051956,0.0046387426565957,-0.993423361562524
1580417320.92248,0.0432135500114441,0.00317387655451284,-0.991470206759747
1580417320.92648,0.0402838178072784,0.00219729915312428,-0.992446784161135
1580417320.93047,0.0432135500114441,0.00317387655451284,-0.992446784161135
1580417320.93447,0.0417486839093613,0.00268558785381856,-0.994399938963912
1580417320.93846,0.041260395208667,0.00219729915312428,-0.99293507286183
1580417320.94245,0.0427252613107498,0.0046387426565957,-0.99293507286183
1580417320.94645,0.0402838178072784,0.000244144350347142,-0.99293507286183
1580417320.95044,0.0417486839093613,0.0046387426565957,-0.993423361562524
1580417320.95444,0.0422369726100555,0.00268558785381856,-0.993423361562524
1580417320.95843,0.0427252613107498,0.00415045395590141,-0.990005340657664
1580417320.96242,0.0407721065079727,0.00268558785381856,-0.993423361562524
1580417320.96642,0.0451667048142212,0.00268558785381856,-0.990493629358358
1580417320.97041,0.0441901274128327,0.000732433051041426,-0.988540474555581
1580417320.97441,0.0388189517051956,0.00219729915312428,-0.992446784161135
1580417320.9784,0.0422369726100555,0.00170901045242999,-0.993911650263218
1580417320.98239,0.0422369726100555,0.00366216525520713,-0.990493629358358
1580417320.98639,0.0441901274128327,0.00415045395590141,-0.995864805065995
1580417320.99038,0.0402838178072784,0.00317387655451284,-0.993423361562524
1580417320.99438,0.0422369726100555,0.00561532005798426,-0.990005340657664
1580417320.99837,0.0441901274128327,0.00415045395590141,-0.99293507286183
1580417321.00238,0.0432135500114441,0.00366216525520713,-0.995864805065995
1580417321.00637,0.0417486839093613,0.00366216525520713,-0.998306248569467
1580417321.01037,0.0437018387121384,0.00317387655451284,-0.990981918059052
1580417321.01436,0.0451667048142212,0.00219729915312428,-0.988540474555581
1580417321.01836,0.044678416113527,0.00170901045242999,-0.991470206759747
1580417321.02235,0.0422369726100555,0.0046387426565957,-0.994888227664607
1580417321.02634,0.0417486839093613,0.00415045395590141,-0.991470206759747
1580417321.03034,0.0441901274128327,0.00366216525520713,-0.992446784161135
1580417321.03433,0.0427252613107498,0.00122072175173571,-0.992446784161135
1580417321.03833,0.0407721065079727,0.00317387655451284,-0.990493629358358
1580417321.04232,0.044678416113527,0.00268558785381856,-0.992446784161135
1580417321.04631,0.0451667048142212,0.00219729915312428,-0.99293507286183
1580417321.05031,0.0432135500114441,0.000244144350347142,-0.991470206759747
1580417321.0543,0.0441901274128327,0.000732433051041426,-0.99293507286183
1580417321.0583,0.0427252613107498,0.00317387655451284,-0.990981918059052
1580417321.06229,0.0407721065079727,0.000732433051041426,-0.990493629358358
1580417321.06628,0.0407721065079727,0.0046387426565957,-0.989028763256275
1580417321.07028,0.0407721065079727,0.00170901045242999,-0.992446784161135
1580417321.07427,0.044678416113527,0.00317387655451284,-0.99293507286183
1580417321.07827,0.0451667048142212,0.00366216525520713,-0.995376516365301
1580417321.08224,0.041260395208667,0.00122072175173571,-0.990981918059052
1580417321.08624,0.0427252613107498,0.000244144350347142,-0.993423361562524
1580417321.09023,0.0422369726100555,0.00366216525520713,-0.993911650263218
1580417321.09423,0.0456549935149155,0.00219729915312428,-0.992446784161135
1580417321.09822,0.0432135500114441,0.000732433051041426,-0.992446784161135
1580417321.10221,0.0427252613107498,0.00268558785381856,-0.996841382467384
1580417321.10621,0.0437018387121384,0.000244144350347142,-0.989028763256275
1580417321.1102,0.0422369726100555,0.00317387655451284,-0.99293507286183
1580417321.1142,0.0441901274128327,0.00268558785381856,-0.993423361562524
1580417321.11819,0.0427252613107498,0.00415045395590141,-0.988540474555581
1580417321.12218,0.044678416113527,0.00317387655451284,-0.98951705195697
1580417321.12618,0.0432135500114441,0.0046387426565957,-0.993911650263218
1580417321.13017,0.0427252613107498,0.00512703135728998,-0.99293507286183
1580417321.13417,0.0417486839093613,0.00122072175173571,-0.990493629358358
1580417321.13816,0.0437018387121384,0.00268558785381856,-0.988540474555581
1580417321.14215,0.0441901274128327,0.00219729915312428,-0.99293507286183
1580417321.14615,0.0432135500114441,0.00317387655451284,-0.989028763256275
1580417321.15014,0.0393072404058898,0.00219729915312428,-0.991958495460441
1580417321.15414,0.0427252613107498,0.000732433051041426,-0.994399938963912
1580417321.15813,0.041260395208667,0.0046387426565957,-0.991958495460441
1580417321.16214,0.0417486839093613,0.00512703135728998,-0.993423361562524
1580417321.16613,0.0432135500114441,0.00415045395590141,-0.993423361562524
1580417321.17013,0.0441901274128327,0.00561532005798426,-0.990981918059052
1580417321.17412,0.044678416113527,0.0046387426565957,-0.98951705195697
1580417321.17811,0.0427252613107498,0.00366216525520713,-0.991958495460441
1580417321.18211,0.0422369726100555,0.00268558785381856,-0.994399938963912
1580417321.1861,0.0432135500114441,0.00219729915312428,-0.991470206759747
1580417321.1901,0.0432135500114441,0.00219729915312428,-0.98951705195697
1580417321.19409,0.0437018387121384,0.00317387655451284,-0.990005340657664
1580417321.19808,0.0402838178072784,0.00170901045242999,-0.997329671168078
1580417321.20208,0.0427252613107498,0.00170901045242999,-0.991958495460441
1580417321.20607,0.0451667048142212,0.00659189745937283,-0.991958495460441
1580417321.21007,0.0432135500114441,0.00170901045242999,-0.987563897154192
1580417321.21406,0.0427252613107498,0.00366216525520713,-0.988540474555581
1580417321.21806,0.0432135500114441,0.00366216525520713,-0.992446784161135
1580417321.22205,0.0461432822156098,0.00366216525520713,-0.990493629358358
1580417321.22604,0.0422369726100555,0.00268558785381856,-0.990493629358358
1580417321.23004,0.0407721065079727,0.00610360875867855,-0.995864805065995
1580417321.23403,0.0437018387121384,0.00366216525520713,-0.994399938963912
1580417321.23802,0.0422369726100555,0.00268558785381856,-0.990981918059052
1580417321.242,0.0417486839093613,0.00512703135728998,-0.992446784161135
1580417321.246,0.0407721065079727,0.0046387426565957,-0.994399938963912
1580417321.24999,0.044678416113527,0.00415045395590141,-0.99293507286183
1580417321.25399,0.0422369726100555,0.0046387426565957,-0.991958495460441
1580417321.25798,0.0461432822156098,0.000244144350347142,-0.98609903105211
1580417321.26197,0.0422369726100555,0.00268558785381856,-0.992446784161135
1580417321.26597,0.0441901274128327,0.00610360875867855,-0.991470206759747
1580417321.26996,0.0417486839093613,0.00219729915312428,-0.990493629358358
1580417321.27396,0.0407721065079727,0.0046387426565957,-0.991470206759747
1580417321.27795,0.0437018387121384,0.00170901045242999,-0.985610742351415
1580417321.28194,0.044678416113527,0.00561532005798426,-0.993423361562524
1580417321.28594,0.0432135500114441,0.00415045395590141,-0.99635309376669
1580417321.28993,0.0456549935149155,0.000244144350347142,-0.994399938963912
1580417321.29393,0.0437018387121384,0.00317387655451284,-0.990981918059052
1580417321.29792,0.0432135500114441,0.00561532005798426,-0.996841382467384
1580417321.30191,0.0422369726100555,0.00170901045242999,-0.988540474555581
1580417321.30591,0.0422369726100555,0.00219729915312428,-0.989028763256275
1580417321.3099,0.0417486839093613,0.00317387655451284,-0.986587319752804
1580417321.3139,0.0417486839093613,0.00415045395590141,-0.993423361562524
1580417321.31789,0.0417486839093613,0.00366216525520713,-0.99293507286183
1580417321.3219,0.0437018387121384,0.0046387426565957,-0.991470206759747
1580417321.32589,0.041260395208667,0.00366216525520713,-0.990005340657664
1580417321.32989,0.0397955291065841,0.00122072175173571,-0.991958495460441
1580417321.33388,0.0437018387121384,0.00366216525520713,-0.994399938963912
1580417321.33787,0.0407721065079727,0.00366216525520713,-0.994888227664607
1580417321.34187,0.0451667048142212,0.00317387655451284,-0.994888227664607
1580417321.34586,0.0441901274128327,0.0046387426565957,-0.988540474555581
1580417321.34986,0.0417486839093613,0.00512703135728998,-0.990493629358358
1580417321.35385,0.0417486839093613,0.00366216525520713,-0.991470206759747
1580417321.35784,0.041260395208667,0.0046387426565957,-0.98951705195697
1580417321.36184,0.0427252613107498,0.00122072175173571,-0.989028763256275
1580417321.36583,0.0432135500114441,0.00170901045242999,-0.990493629358358
1580417321.36983,0.044678416113527,0.00366216525520713,-0.990005340657664
1580417321.37382,0.0451667048142212,0.00415045395590141,-0.98609903105211
1580417321.37782,0.0451667048142212,0.00219729915312428,-0.987075608453498
1580417321.38181,0.044678416113527,0.00317387655451284,-0.990493629358358
1580417321.3858,0.0432135500114441,0.000244144350347142,-0.993911650263218
1580417321.3898,0.0437018387121384,0.000244144350347142,-0.98951705195697
1580417321.39379,0.0427252613107498,0.00366216525520713,-0.986587319752804
1580417321.39778,0.0456549935149155,0.00268558785381856,-0.993423361562524
1580417321.40176,0.044678416113527,0.00610360875867855,-0.990005340657664
1580417321.40576,0.0451667048142212,0.00317387655451284,-0.99293507286183
1580417321.40975,0.044678416113527,0.00415045395590141,-0.990005340657664
1580417321.41375,0.044678416113527,0.00268558785381856,-0.990493629358358
1580417321.41774,0.0417486839093613,0.00219729915312428,-0.994888227664607
1580417321.42173,0.0427252613107498,0.00415045395590141,-0.993423361562524
1580417321.42573,0.0461432822156098,0.0046387426565957,-0.99293507286183
1580417321.42972,0.0417486839093613,0.00415045395590141,-0.993423361562524
1580417321.43371,0.044678416113527,0.00854505226214997,-0.992446784161135
1580417321.43771,0.0437018387121384,0.00512703135728998,-0.992446784161135
1580417321.4417,0.0451667048142212,0.00317387655451284,-0.99293507286183
1580417321.4457,0.0427252613107498,0.000732433051041426,-0.991958495460441
1580417321.44969,0.0422369726100555,0.00415045395590141,-0.991470206759747
1580417321.45369,0.0441901274128327,0.00561532005798426,-0.988540474555581
1580417321.45768,0.0441901274128327,0.0046387426565957,-0.990493629358358
1580417321.46167,0.0437018387121384,0.00610360875867855,-0.990981918059052
1580417321.46567,0.0451667048142212,0.00708018616006711,-0.990005340657664
1580417321.46966,0.041260395208667,0.00561532005798426,-0.991470206759747
1580417321.47365,0.0422369726100555,0.0046387426565957,-0.988052185854887
1580417321.47765,0.0441901274128327,0.00415045395590141,-0.987563897154192
1580417321.48166,0.041260395208667,0.00268558785381856,-0.99293507286183
1580417321.48565,0.0432135500114441,0.00561532005798426,-0.991470206759747
1580417321.48965,0.044678416113527,0.00561532005798426,-0.990493629358358
1580417321.49364,0.0437018387121384,0.00219729915312428,-0.990005340657664
1580417321.49763,0.0422369726100555,0.00561532005798426,-0.985610742351415
1580417321.50163,0.0427252613107498,0.0046387426565957,-0.994399938963912
1580417321.50562,0.0422369726100555,0.00317387655451284,-0.994399938963912
1580417321.50962,0.0441901274128327,0.00366216525520713,-0.993911650263218
1580417321.51361,0.044678416113527,0.00415045395590141,-0.992446784161135
1580417321.5176,0.0466315709163041,0.00366216525520713,-0.99293507286183
1580417321.5216,0.0485847257190812,0.00659189745937283,-0.990493629358358
1580417321.52559,0.0451667048142212,0.00512703135728998,-0.991470206759747
1580417321.52959,0.0432135500114441,0.00561532005798426,-0.997329671168078
1580417321.53358,0.0456549935149155,0.00512703135728998,-0.993423361562524
1580417321.53757,0.0485847257190812,0.00512703135728998,-0.99293507286183
1580417321.54157,0.0471198596169984,0.00610360875867855,-0.999282825970855
1580417321.54556,0.0437018387121384,0.00415045395590141,-0.994888227664607
1580417321.54956,0.0466315709163041,0.00268558785381856,-0.995864805065995
1580417321.55355,0.0456549935149155,0.00317387655451284,-0.993911650263218
1580417321.55754,0.0471198596169984,0.0046387426565957,-0.991470206759747
1580417321.56152,0.044678416113527,0.00415045395590141,-0.990005340657664
1580417321.56552,0.044678416113527,0.00512703135728998,-0.990493629358358
1580417321.56951,0.0451667048142212,0.0075684748607614,-0.990493629358358
1580417321.5735,0.044678416113527,0.00561532005798426,-0.991470206759747
1580417321.5775,0.0441901274128327,0.00610360875867855,-0.990493629358358
1580417321.58149,0.0441901274128327,0.00415045395590141,-0.985610742351415
1580417321.58549,0.0441901274128327,0.0046387426565957,-0.988052185854887
1580417321.58948,0.0471198596169984,0.00610360875867855,-0.988052185854887
1580417321.59347,0.0432135500114441,0.00561532005798426,-0.987075608453498
1580417321.59747,0.0441901274128327,0.00610360875867855,-0.98951705195697
1580417321.60146,0.044678416113527,0.00610360875867855,-0.991958495460441
1580417321.60546,0.0432135500114441,0.00366216525520713,-0.988540474555581
1580417321.60945,0.0476081483176927,0.00415045395590141,-0.990493629358358
1580417321.61345,0.0451667048142212,0.00659189745937283,-0.986587319752804
1580417321.61744,0.0466315709163041,0.00708018616006711,-0.990005340657664
1580417321.62143,0.0461432822156098,0.00561532005798426,-0.991958495460441
1580417321.62543,0.0466315709163041,0.00415045395590141,-0.994888227664607
1580417321.62942,0.044678416113527,0.00708018616006711,-0.995864805065995
1580417321.63341,0.0437018387121384,0.00659189745937283,-0.989028763256275
1580417321.63741,0.0471198596169984,0.00561532005798426,-0.998306248569467
1580417321.64142,0.0471198596169984,0.00610360875867855,-0.992446784161135
1580417321.64541,0.044678416113527,0.00512703135728998,-0.991958495460441
1580417321.64941,0.0441901274128327,0.0046387426565957,-0.988540474555581
1580417321.6534,0.0495613031204698,0.00708018616006711,-0.991958495460441
1580417321.65739,0.0451667048142212,0.00610360875867855,-0.992446784161135
1580417321.66139,0.0466315709163041,0.00805676356145568,-0.991958495460441
1580417321.66538,0.0456549935149155,0.00805676356145568,-0.990493629358358
1580417321.66938,0.0471198596169984,0.00610360875867855,-0.98951705195697
1580417321.67337,0.0466315709163041,0.00659189745937283,-0.993911650263218
1580417321.67736,0.0476081483176927,0.00610360875867855,-0.993423361562524
1580417321.68136,0.048096437018387,0.0075684748607614,-0.99635309376669
1580417321.68535,0.0466315709163041,0.00854505226214997,-0.991958495460441
1580417321.68935,0.0485847257190812,0.00610360875867855,-0.991470206759747
1580417321.69334,0.0500495918211641,0.00659189745937283,-0.99293507286183
1580417321.69733,0.0456549935149155,0.00903334096284425,-0.990005340657664
1580417321.70133,0.0500495918211641,0.00805676356145568,-0.992446784161135
1580417321.70532,0.0476081483176927,0.00610360875867855,-0.994888227664607
1580417321.70932,0.0495613031204698,0.00708018616006711,-0.991958495460441
1580417321.71331,0.048096437018387,0.00415045395590141,-0.99293507286183
1580417321.7173,0.0476081483176927,0.00610360875867855,-0.995864805065995
1580417321.72128,0.0495613031204698,0.0046387426565957,-0.99635309376669
1580417321.72528,0.0485847257190812,0.00854505226214997,-0.994399938963912
1580417321.72927,0.0471198596169984,0.00512703135728998,-0.993911650263218
1580417321.73326,0.0505378805218584,0.00708018616006711,-0.989028763256275
1580417321.73726,0.0471198596169984,0.00708018616006711,-0.993423361562524
1580417321.74125,0.048096437018387,0.00610360875867855,-0.98951705195697
1580417321.74525,0.0466315709163041,0.00708018616006711,-0.98951705195697
1580417321.74924,0.0515144579232469,0.0075684748607614,-0.987563897154192
1580417321.75323,0.0485847257190812,0.00366216525520713,-0.988052185854887
1580417321.75723,0.048096437018387,0.00512703135728998,-0.988540474555581
1580417321.76122,0.0471198596169984,0.00805676356145568,-0.98951705195697
1580417321.76522,0.0500495918211641,0.00610360875867855,-0.990493629358358
1580417321.76921,0.0495613031204698,0.0075684748607614,-0.990005340657664
1580417321.7732,0.048096437018387,0.00805676356145568,-0.98951705195697
1580417321.7772,0.0505378805218584,0.0075684748607614,-0.990005340657664
1580417321.78119,0.0490730144197755,0.00708018616006711,-0.990981918059052
1580417321.78519,0.0505378805218584,0.0114747844663157,-0.992446784161135
1580417321.78918,0.0505378805218584,0.0075684748607614,-0.993911650263218
1580417321.79317,0.0461432822156098,0.00952162966353853,-0.991958495460441
1580417321.79717,0.0510261692225527,0.0109864957656214,-0.991958495460441
1580417321.80118,0.0515144579232469,0.00805676356145568,-0.99293507286183
1580417321.80517,0.0495613031204698,0.00952162966353853,-0.990981918059052
1580417321.80917,0.0500495918211641,0.00903334096284425,-0.991470206759747
1580417321.81316,0.0505378805218584,0.00903334096284425,-0.99293507286183
1580417321.81715,0.0549324788281069,0.00952162966353853,-0.994888227664607
1580417321.82115,0.0510261692225527,0.0100099183642328,-0.992446784161135
1580417321.82514,0.0515144579232469,0.00903334096284425,-0.990981918059052
1580417321.82914,0.0534676127260241,0.01196307316701,-0.995376516365301
1580417321.83313,0.0510261692225527,0.0104982070649271,-0.990981918059052
1580417321.83712,0.0515144579232469,0.00659189745937283,-0.99293507286183
1580417321.84112,0.0539559014267184,0.0104982070649271,-0.990981918059052
1580417321.84511,0.0524910353246355,0.00903334096284425,-0.991470206759747
1580417321.8491,0.0529793240253298,0.00903334096284425,-0.993423361562524
1580417321.8531,0.0534676127260241,0.00903334096284425,-0.986587319752804
1580417321.85709,0.0549324788281069,0.0104982070649271,-0.987075608453498
1580417321.86109,0.0578622110322726,0.0124513618677042,-0.98609903105211
1580417321.86508,0.0534676127260241,0.0109864957656214,-0.993911650263218
1580417321.86907,0.0505378805218584,0.00805676356145568,-0.987075608453498
1580417321.87307,0.0534676127260241,0.0100099183642328,-0.988540474555581
1580417321.87706,0.0539559014267184,0.0129396505683985,-0.993423361562524
1580417321.88104,0.0520027466239412,0.00805676356145568,-0.990493629358358
1580417321.88504,0.0529793240253298,0.0109864957656214,-0.990493629358358
1580417321.88903,0.0529793240253298,0.0075684748607614,-0.98609903105211
1580417321.89302,0.0515144579232469,0.0100099183642328,-0.989028763256275
1580417321.89702,0.0544441901274126,0.0100099183642328,-0.984634164950027
1580417321.90101,0.0529793240253298,0.0100099183642328,-0.991470206759747
1580417321.90501,0.0539559014267184,0.0104982070649271,-0.991470206759747
1580417321.909,0.0539559014267184,0.01196307316701,-0.99635309376669
1580417321.91299,0.0563973449301898,0.0114747844663157,-0.994399938963912
1580417321.91699,0.0563973449301898,0.0114747844663157,-0.995864805065995
1580417321.92098,0.0632333867399097,-0.0168459601739528,-0.974380102235447
1580417321.92498,0.0588387884336612,-0.00415045395590141,-1.00709544518196
1580417321.92897,0.0485847257190812,0.0187991149767299,-0.967055771725033
1580417321.93296,0.0539559014267184,0.0153810940718699,-1.00807202258335
1580417321.93696,0.0524910353246355,0.00903334096284425,-1.0041657129778
1580417321.94095,0.0534676127260241,0.00708018616006711,-0.987075608453498
1580417321.94495,0.0500495918211641,0.0114747844663157,-0.984634164950027
1580417321.94894,0.0515144579232469,0.00805676356145568,-0.990981918059052
1580417321.95293,0.0524910353246355,0.00903334096284425,-0.995376516365301
1580417321.95693,0.0544441901274126,0.0109864957656214,-0.985610742351415
1580417321.96094,0.0534676127260241,0.01196307316701,-0.987075608453498
1580417321.96493,0.0573739223315783,0.00708018616006711,-0.98951705195697
1580417321.96892,0.0554207675288012,0.00854505226214997,-0.987563897154192
1580417321.97292,0.0549324788281069,0.0114747844663157,-0.98609903105211
1580417321.97691,0.0534676127260241,0.00805676356145568,-0.987563897154192
1580417321.98091,0.0607919432364383,0.0134279392690928,-0.990981918059052
1580417321.9849,0.0588387884336612,0.0109864957656214,-0.989028763256275
1580417321.98889,0.0544441901274126,0.00854505226214997,-0.991470206759747
1580417321.99289,0.0568856336308841,0.01196307316701,-0.993911650263218
1580417321.99688,0.0559090562294955,0.00854505226214997,-0.99293507286183
1580417322.00088,0.0588387884336612,0.0134279392690928,-0.991470206759747
1580417322.00487,0.0573739223315783,0.0139162279697871,-0.994399938963912
1580417322.00886,0.0563973449301898,0.0109864957656214,-0.991470206759747
1580417322.01286,0.0563973449301898,0.01196307316701,-0.988540474555581
1580417322.01685,0.0568856336308841,0.01196307316701,-0.989028763256275
1580417322.02085,0.0549324788281069,0.0104982070649271,-0.995864805065995
1580417322.02484,0.0505378805218584,0.00561532005798426,-0.997329671168078
1580417322.02883,0.0588387884336612,0.0178225375753414,-0.999282825970855
1580417322.03283,0.0534676127260241,0.0124513618677042,-0.990981918059052
1580417322.03682,0.0534676127260241,0.0124513618677042,-0.99635309376669
1580417322.0408,0.0593270771343555,0.0124513618677042,-0.995376516365301
1580417322.0448,0.0568856336308841,0.0100099183642328,-0.99635309376669
1580417322.04879,0.0573739223315783,0.0134279392690928,-0.99293507286183
1580417322.05278,0.0539559014267184,0.0114747844663157,-0.990981918059052
1580417322.05678,0.0583504997329669,0.0129396505683985,-0.99293507286183
1580417322.06077,0.0593270771343555,0.0124513618677042,-0.990005340657664
1580417322.06477,0.0559090562294955,0.0109864957656214,-0.997329671168078
1580417322.06876,0.0578622110322726,0.0100099183642328,-0.995864805065995
1580417322.07275,0.0583504997329669,0.0217288471808956,-0.997817959868772
1580417322.07675,0.060303654535744,0.0144045166704814,-0.991958495460441
1580417322.08074,0.060303654535744,0.0046387426565957,-0.990005340657664
1580417322.08473,0.0642099641412983,0.0251468680857556,-0.98951705195697
1580417322.08873,0.0568856336308841,0.00805676356145568,-0.993423361562524
1580417322.09272,0.0578622110322726,0.0100099183642328,-0.995376516365301
1580417322.09672,0.0559090562294955,0.0109864957656214,-0.991470206759747
1580417322.10071,0.0549324788281069,0.0124513618677042,-0.986587319752804
1580417322.1047,0.0563973449301898,0.0104982070649271,-0.987075608453498
1580417322.1087,0.0534676127260241,0.0109864957656214,-0.990493629358358
1580417322.11269,0.0559090562294955,0.01196307316701,-0.990493629358358
1580417322.11669,0.0588387884336612,0.01196307316701,-0.988540474555581
1580417322.1207,0.0583504997329669,0.0104982070649271,-0.98609903105211
1580417322.12469,0.0588387884336612,0.0104982070649271,-0.990493629358358
1580417322.12868,0.0607919432364383,0.0134279392690928,-0.990005340657664
1580417322.13268,0.0573739223315783,0.0153810940718699,-0.986587319752804
1580417322.13667,0.0568856336308841,0.0153810940718699,-0.990005340657664
1580417322.14067,0.0578622110322726,0.0134279392690928,-0.997817959868772
1580417322.14466,0.0593270771343555,0.0100099183642328,-0.992446784161135
1580417322.14865,0.0563973449301898,0.0144045166704814,-0.992446784161135
1580417322.15265,0.0588387884336612,0.0134279392690928,-0.994399938963912
1580417322.15664,0.0607919432364383,0.0168459601739528,-0.993423361562524
1580417322.16064,0.0607919432364383,0.0158693827725642,-0.990493629358358
1580417322.16463,0.0598153658350498,0.0144045166704814,-0.994399938963912
1580417322.16862,0.0559090562294955,0.0187991149767299,-0.991470206759747
1580417322.17262,0.0593270771343555,0.0163576714732585,-0.990493629358358
1580417322.17661,0.0563973449301898,0.0148928053711757,-0.988052185854887
1580417322.18061,0.0588387884336612,0.0163576714732585,-0.988540474555581
1580417322.1846,0.0539559014267184,0.0173342488746471,-0.990005340657664
1580417322.18859,0.0568856336308841,0.0163576714732585,-0.993911650263218
1580417322.19259,0.0583504997329669,0.0192874036774242,-0.992446784161135
1580417322.19658,0.0573739223315783,0.0144045166704814,-0.987075608453498
1580417322.20056,0.0583504997329669,0.0173342488746471,-0.98951705195697
1580417322.20456,0.0598153658350498,0.0173342488746471,-0.992446784161135
1580417322.20855,0.060303654535744,0.0178225375753414,-0.990493629358358
1580417322.21254,0.0588387884336612,0.0192874036774242,-0.991958495460441
1580417322.21654,0.0578622110322726,0.0158693827725642,-0.988052185854887
1580417322.22053,0.0554207675288012,0.0197756923781185,-0.989028763256275
1580417322.22452,0.0559090562294955,0.0173342488746471,-0.989028763256275
1580417322.22852,0.0588387884336612,0.0207522697795071,-0.987075608453498
1580417322.23251,0.0578622110322726,0.0192874036774242,-0.991958495460441
1580417322.23651,0.0573739223315783,0.0192874036774242,-0.988540474555581
1580417322.2405,0.0578622110322726,0.0173342488746471,-0.987563897154192
1580417322.24449,0.0583504997329669,0.0183108262760356,-0.989028763256275
1580417322.24849,0.0554207675288012,0.0187991149767299,-0.993423361562524
1580417322.25248,0.0563973449301898,0.0163576714732585,-0.987563897154192
1580417322.25648,0.0563973449301898,0.0178225375753414,-0.990005340657664
1580417322.26047,0.0554207675288012,0.0158693827725642,-0.987075608453498
1580417322.26446,0.0588387884336612,0.0148928053711757,-0.990981918059052
1580417322.26846,0.0578622110322726,0.0168459601739528,-0.988052185854887
1580417322.27245,0.0578622110322726,0.0192874036774242,-0.98951705195697
1580417322.27645,0.0573739223315783,0.0197756923781185,-0.990493629358358
1580417322.28046,0.0563973449301898,0.0197756923781185,-0.990493629358358
1580417322.28445,0.0563973449301898,0.0197756923781185,-0.98951705195697
1580417322.28844,0.0573739223315783,0.0202639810788128,-0.988540474555581
1580417322.29244,0.0578622110322726,0.0217288471808956,-0.989028763256275
1580417322.29643,0.0563973449301898,0.0202639810788128,-0.989028763256275
1580417322.30043,0.0573739223315783,0.0173342488746471,-0.993911650263218
1580417322.30442,0.0573739223315783,0.0178225375753414,-0.984145876249332
1580417322.30841,0.0559090562294955,0.0134279392690928,-0.985610742351415
1580417322.31241,0.0588387884336612,0.0187991149767299,-0.988052185854887
1580417322.3164,0.0583504997329669,0.0192874036774242,-0.991958495460441
1580417322.3204,0.0583504997329669,0.0197756923781185,-0.991470206759747
1580417322.32439,0.0578622110322726,0.0178225375753414,-0.988052185854887
1580417322.32838,0.0588387884336612,0.0187991149767299,-0.991958495460441
1580417322.33238,0.0578622110322726,0.0192874036774242,-0.990981918059052
1580417322.33637,0.0568856336308841,0.0192874036774242,-0.990005340657664
1580417322.34037,0.0568856336308841,0.0197756923781185,-0.994399938963912
1580417322.34436,0.0588387884336612,0.0173342488746471,-0.991470206759747
1580417322.34835,0.0573739223315783,0.0173342488746471,-0.993911650263218
1580417322.35235,0.0583504997329669,0.0183108262760356,-0.995864805065995
1580417322.35634,0.0583504997329669,0.0192874036774242,-0.990493629358358
1580417322.36032,0.0568856336308841,0.0183108262760356,-0.993911650263218
1580417322.36432,0.0588387884336612,0.0212405584802013,-0.98951705195697
1580417322.36831,0.0544441901274126,0.0197756923781185,-0.99293507286183
1580417322.3723,0.0598153658350498,0.0173342488746471,-0.994399938963912
1580417322.3763,0.0563973449301898,0.0183108262760356,-0.990981918059052
1580417322.38029,0.0568856336308841,0.0168459601739528,-0.98951705195697
1580417322.38428,0.0593270771343555,0.0153810940718699,-0.989028763256275
1580417322.38828,0.0593270771343555,0.0168459601739528,-0.993423361562524
1580417322.39227,0.0554207675288012,0.0178225375753414,-0.992446784161135
1580417322.39627,0.0588387884336612,0.0173342488746471,-0.98951705195697
1580417322.40026,0.0593270771343555,0.0163576714732585,-0.990493629358358
1580417322.40425,0.0598153658350498,0.0163576714732585,-0.99293507286183
1580417322.40825,0.0588387884336612,0.0207522697795071,-0.989028763256275
1580417322.41224,0.0568856336308841,0.0168459601739528,-0.987075608453498
1580417322.41624,0.0578622110322726,0.0158693827725642,-0.988540474555581
1580417322.42023,0.0568856336308841,0.0178225375753414,-0.983169298847944
1580417322.42422,0.0578622110322726,0.0178225375753414,-0.985610742351415
1580417322.42822,0.0588387884336612,0.0144045166704814,-0.987563897154192
1580417322.43221,0.0607919432364383,0.0148928053711757,-0.990005340657664
1580417322.43621,0.0578622110322726,0.0153810940718699,-0.98609903105211
1580417322.44022,0.0563973449301898,0.0183108262760356,-0.985122453650721
1580417322.44421,0.0598153658350498,0.0183108262760356,-0.989028763256275
1580417322.4482,0.0593270771343555,0.0207522697795071,-0.987075608453498
1580417322.4522,0.0583504997329669,0.0163576714732585,-0.987563897154192
1580417322.45619,0.0593270771343555,0.0178225375753414,-0.992446784161135
1580417322.46019,0.0612802319371326,0.0183108262760356,-0.98951705195697
1580417322.46418,0.0563973449301898,0.0187991149767299,-0.993911650263218
1580417322.46817,0.0563973449301898,0.0197756923781185,-0.995376516365301
1580417322.47217,0.0593270771343555,0.0231937132829785,-0.993423361562524
1580417322.47616,0.0559090562294955,0.0202639810788128,-0.993911650263218
1580417322.48016,0.0593270771343555,0.0197756923781185,-0.995864805065995
1580417322.48415,0.0568856336308841,0.0217288471808956,-0.992446784161135
1580417322.48814,0.0578622110322726,0.0207522697795071,-0.995864805065995
1580417322.49214,0.0573739223315783,0.0197756923781185,-0.99293507286183
1580417322.49613,0.0544441901274126,0.0207522697795071,-0.99635309376669
1580417322.50013,0.0549324788281069,0.0187991149767299,-0.994399938963912
1580417322.50412,0.0588387884336612,0.0207522697795071,-0.990981918059052
1580417322.50811,0.0563973449301898,0.0173342488746471,-0.993423361562524
1580417322.51211,0.0568856336308841,0.0212405584802013,-0.98951705195697
1580417322.5161,0.0583504997329669,0.0192874036774242,-0.98951705195697
1580417322.52008,0.0598153658350498,0.0192874036774242,-0.98609903105211
1580417322.52407,0.0554207675288012,0.0173342488746471,-0.985122453650721
1580417322.52807,0.0578622110322726,0.0183108262760356,-0.988052185854887
1580417322.53206,0.0554207675288012,0.0217288471808956,-0.986587319752804
1580417322.53606,0.0568856336308841,0.0202639810788128,-0.983657587548638
1580417322.54005,0.0573739223315783,0.0197756923781185,-0.985610742351415
1580417322.54404,0.0598153658350498,0.0197756923781185,-0.988052185854887
1580417322.54804,0.0598153658350498,0.0168459601739528,-0.987563897154192
1580417322.55203,0.0578622110322726,0.0178225375753414,-0.98268101014725
1580417322.55603,0.060303654535744,0.0197756923781185,-0.987563897154192
1580417322.56002,0.0568856336308841,0.0207522697795071,-0.98951705195697
1580417322.56401,0.0583504997329669,0.0207522697795071,-0.991958495460441
1580417322.56801,0.0544441901274126,0.0197756923781185,-0.986587319752804
1580417322.572,0.0593270771343555,0.0217288471808956,-0.98951705195697
1580417322.576,0.0549324788281069,0.0192874036774242,-0.986587319752804
1580417322.57999,0.0573739223315783,0.0158693827725642,-0.988540474555581
1580417322.58398,0.0583504997329669,0.0197756923781185,-0.989028763256275
1580417322.58798,0.0568856336308841,0.0207522697795071,-0.988540474555581
1580417322.59197,0.0573739223315783,0.0197756923781185,-0.997817959868772
1580417322.59597,0.0563973449301898,0.0207522697795071,-0.992446784161135
1580417322.59997,0.060303654535744,0.0178225375753414,-0.997329671168078
1580417322.60397,0.0598153658350498,0.0192874036774242,-0.99977111467155
1580417322.60796,0.0593270771343555,0.0222171358815899,-0.997329671168078
1580417322.61196,0.0593270771343555,0.0212405584802013,-0.990981918059052
1580417322.61595,0.0583504997329669,0.0207522697795071,-0.995376516365301
1580417322.61994,0.0568856336308841,0.0187991149767299,-0.991470206759747
1580417322.62394,0.0568856336308841,0.0183108262760356,-0.993423361562524
1580417322.62793,0.060303654535744,0.0178225375753414,-0.994888227664607
1580417322.63193,0.0568856336308841,0.0197756923781185,-0.993911650263218
1580417322.63592,0.0593270771343555,0.0192874036774242,-0.994399938963912
1580417322.63991,0.0573739223315783,0.0207522697795071,-0.990005340657664
1580417322.64391,0.0568856336308841,0.0192874036774242,-0.993423361562524
1580417322.6479,0.0583504997329669,0.0217288471808956,-0.99293507286183
1580417322.6519,0.0593270771343555,0.0187991149767299,-0.989028763256275
1580417322.65589,0.0583504997329669,0.0212405584802013,-0.993911650263218
1580417322.65988,0.0583504997329669,0.0212405584802013,-0.990981918059052
1580417322.66388,0.0559090562294955,0.0183108262760356,-0.987563897154192
1580417322.66787,0.0588387884336612,0.0183108262760356,-0.987075608453498
1580417322.67187,0.0578622110322726,0.0212405584802013,-0.990005340657664
1580417322.67586,0.0568856336308841,0.0217288471808956,-0.985610742351415
1580417322.67984,0.0568856336308841,0.0217288471808956,-0.987075608453498
1580417322.68383,0.0544441901274126,0.0192874036774242,-0.988052185854887
1580417322.68783,0.0573739223315783,0.0197756923781185,-0.984145876249332
1580417322.69182,0.0588387884336612,0.0163576714732585,-0.985122453650721
1580417322.69582,0.0583504997329669,0.0183108262760356,-0.987563897154192
1580417322.69981,0.0583504997329669,0.0207522697795071,-0.987075608453498
1580417322.7038,0.0588387884336612,0.0207522697795071,-0.987563897154192
1580417322.7078,0.0573739223315783,0.0197756923781185,-0.986587319752804
1580417322.71179,0.0588387884336612,0.0168459601739528,-0.987075608453498
1580417322.71579,0.0578622110322726,0.0207522697795071,-0.98609903105211
1580417322.71978,0.0583504997329669,0.0227054245822842,-0.990005340657664
1580417322.72377,0.0598153658350498,0.0212405584802013,-0.992446784161135
1580417322.72777,0.0593270771343555,0.024170290684367,-0.99293507286183
1580417322.73176,0.0588387884336612,0.0251468680857556,-0.994399938963912
1580417322.73576,0.0583504997329669,0.0236820019836728,-0.994888227664607
1580417322.73975,0.0578622110322726,0.0236820019836728,-0.998306248569467
1580417322.74374,0.0578622110322726,0.0236820019836728,-0.994399938963912
1580417322.74774,0.0563973449301898,0.0217288471808956,-0.993423361562524
1580417322.75173,0.0534676127260241,0.0207522697795071,-0.994399938963912
1580417322.75572,0.0578622110322726,0.0202639810788128,-0.995864805065995
1580417322.75973,0.0588387884336612,0.0227054245822842,-0.992446784161135
1580417322.76373,0.0563973449301898,0.0231937132829785,-0.992446784161135
1580417322.76772,0.060303654535744,0.0217288471808956,-0.98951705195697
1580417322.77172,0.0578622110322726,0.0222171358815899,-0.988540474555581
1580417322.77571,0.0559090562294955,0.0202639810788128,-0.984634164950027
1580417322.77971,0.0568856336308841,0.0246585793850613,-0.990981918059052
1580417322.7837,0.0583504997329669,0.0202639810788128,-0.991958495460441
1580417322.78769,0.0583504997329669,0.0217288471808956,-0.98951705195697
1580417322.79169,0.0583504997329669,0.0217288471808956,-0.994399938963912
1580417322.79568,0.0573739223315783,0.0222171358815899,-0.987075608453498
1580417322.79967,0.0578622110322726,0.024170290684367,-0.991958495460441
1580417322.80367,0.0583504997329669,0.0207522697795071,-0.991470206759747
1580417322.80766,0.0578622110322726,0.0231937132829785,-0.990493629358358
1580417322.81166,0.0578622110322726,0.0231937132829785,-0.992446784161135
1580417322.81565,0.0549324788281069,0.0256351567864499,-0.990981918059052
1580417322.81964,0.0559090562294955,0.0212405584802013,-0.98609903105211
1580417322.82364,0.0544441901274126,0.0207522697795071,-0.990981918059052
1580417322.82763,0.0544441901274126,0.0231937132829785,-0.987075608453498
1580417322.83163,0.0559090562294955,0.024170290684367,-0.992446784161135
1580417322.83562,0.0568856336308841,0.0217288471808956,-0.992446784161135
1580417322.83963,0.0573739223315783,0.0212405584802013,-0.98609903105211
1580417322.84362,0.0583504997329669,0.0251468680857556,-0.99293507286183
1580417322.84762,0.0559090562294955,0.0231937132829785,-0.990981918059052
1580417322.85161,0.0568856336308841,0.0207522697795071,-0.990005340657664
1580417322.85561,0.0549324788281069,0.0212405584802013,-0.988052185854887
1580417322.8596,0.0573739223315783,0.0212405584802013,-0.989028763256275
1580417322.86359,0.0544441901274126,0.0212405584802013,-0.990981918059052
1580417322.86759,0.0568856336308841,0.0236820019836728,-0.990005340657664
1580417322.87158,0.0573739223315783,0.024170290684367,-0.990493629358358
1580417322.87558,0.0554207675288012,0.0227054245822842,-0.987075608453498
1580417322.87957,0.0573739223315783,0.0231937132829785,-0.990981918059052
1580417322.88356,0.0568856336308841,0.0222171358815899,-0.990493629358358
1580417322.88756,0.0598153658350498,0.0217288471808956,-0.992446784161135
1580417322.89155,0.0563973449301898,0.0222171358815899,-0.988052185854887
1580417322.89555,0.0573739223315783,0.0222171358815899,-0.98951705195697
1580417322.89954,0.0563973449301898,0.0207522697795071,-0.994888227664607
1580417322.90353,0.0563973449301898,0.0192874036774242,-0.991470206759747
1580417322.90753,0.0583504997329669,0.0202639810788128,-0.991958495460441
1580417322.91152,0.0573739223315783,0.0227054245822842,-0.992446784161135
1580417322.91552,0.0563973449301898,0.0183108262760356,-0.994399938963912
1580417322.91949,0.0559090562294955,0.0202639810788128,-0.994399938963912
1580417322.92349,0.0559090562294955,0.0183108262760356,-0.990005340657664
1580417322.92748,0.0583504997329669,0.0222171358815899,-0.989028763256275
1580417322.93148,0.0583504997329669,0.0217288471808956,-0.990981918059052
1580417322.93547,0.0568856336308841,0.0222171358815899,-0.991470206759747
1580417322.93946,0.0563973449301898,0.0183108262760356,-0.98951705195697
1580417322.94346,0.0568856336308841,0.0217288471808956,-0.990493629358358
1580417322.94745,0.0559090562294955,0.0222171358815899,-0.98268101014725
1580417322.95145,0.0568856336308841,0.0207522697795071,-0.981704432745861
1580417322.95544,0.0554207675288012,0.0202639810788128,-0.992446784161135
1580417322.95943,0.0583504997329669,0.0197756923781185,-0.988540474555581
1580417322.96343,0.0568856336308841,0.0192874036774242,-0.987075608453498
1580417322.96742,0.0539559014267184,0.0202639810788128,-0.991958495460441
1580417322.97142,0.0544441901274126,0.0212405584802013,-0.991470206759747
1580417322.97541,0.0563973449301898,0.0202639810788128,-0.991470206759747
1580417322.9794,0.0539559014267184,0.0197756923781185,-0.987075608453498
1580417322.9834,0.0568856336308841,0.0212405584802013,-0.987075608453498
1580417322.98739,0.0588387884336612,0.0207522697795071,-0.993423361562524
1580417322.99139,0.0612802319371326,0.024170290684367,-0.993423361562524
1580417322.99538,0.0554207675288012,0.0227054245822842,-0.990981918059052
1580417322.99939,0.0563973449301898,0.0197756923781185,-0.99293507286183
1580417323.00338,0.0583504997329669,0.0236820019836728,-0.996841382467384
1580417323.00738,0.0573739223315783,0.0207522697795071,-0.993911650263218
1580417323.01137,0.0578622110322726,0.0173342488746471,-0.995376516365301
1580417323.01536,0.0554207675288012,0.0231937132829785,-0.990493629358358
1580417323.01936,0.0617685206378269,0.0207522697795071,-0.994888227664607
1580417323.02335,0.0583504997329669,0.0227054245822842,-0.990005340657664
1580417323.02735,0.0588387884336612,0.0187991149767299,-0.990005340657664
1580417323.03134,0.0578622110322726,0.0212405584802013,-0.98951705195697
1580417323.03533,0.0593270771343555,0.0192874036774242,-0.99293507286183
1580417323.03933,0.0617685206378269,0.0207522697795071,-0.988052185854887
1580417323.04332,0.0544441901274126,0.0197756923781185,-0.980727855344472
1580417323.04732,0.0559090562294955,0.0178225375753414,-0.988540474555581
1580417323.05131,0.0549324788281069,0.0202639810788128,-0.990981918059052
1580417323.05531,0.0578622110322726,0.0231937132829785,-0.991470206759747
1580417323.0593,0.0598153658350498,0.0231937132829785,-0.997329671168078
1580417323.06329,0.060303654535744,0.0266117341878385,-0.983657587548638
1580417323.06729,0.0598153658350498,0.0231937132829785,-0.99293507286183
1580417323.07128,0.0607919432364383,0.027588311589227,-1.00025940337224
1580417323.07527,0.0583504997329669,0.024170290684367,-0.987563897154192
1580417323.07928,0.0534676127260241,0.0207522697795071,-0.981216144045167
1580417323.08328,0.0607919432364383,0.0285648889906156,-0.997329671168078
1580417323.08727,0.070557717250324,0.0280766002899213,-1.00025940337224
1580417323.09127,0.0549324788281069,0.0236820019836728,-0.97926298924239
1580417323.09526,0.060303654535744,0.0251468680857556,-1.01100175478752
1580417323.09925,0.0573739223315783,0.0231937132829785,-0.990493629358358
1580417323.10325,0.0563973449301898,0.0236820019836728,-0.980239566643778
1580417323.10724,0.0559090562294955,0.0207522697795071,-0.994888227664607
1580417323.11124,0.0681162737468526,0.0246585793850613,-0.999282825970855
1580417323.11523,0.0524910353246355,0.0222171358815899,-0.985122453650721
1580417323.11922,0.0593270771343555,0.0295414663920042,-1.00709544518196
1580417323.12322,0.0563973449301898,0.0251468680857556,-0.984634164950027
1580417323.12721,0.0534676127260241,0.0246585793850613,-0.975356679636835
1580417323.13121,0.0583504997329669,0.0251468680857556,-0.993423361562524
1580417323.1352,0.0568856336308841,0.0271000228885327,-0.98951705195697
1580417323.13919,0.0607919432364383,0.0319829098954756,-0.988052185854887
1580417323.14319,0.0578622110322726,0.0349126420996413,-0.985122453650721
1580417323.14718,0.0466315709163041,0.0109864957656214,-0.980239566643778
1580417323.15118,0.0578622110322726,0.027588311589227,-0.988540474555581
1580417323.15517,0.0559090562294955,0.0280766002899213,-0.980727855344472
1580417323.15915,0.0563973449301898,0.0251468680857556,-0.978774700541695
1580417323.16314,0.0593270771343555,0.0280766002899213,-0.991470206759747
1580417323.16714,0.0563973449301898,0.0266117341878385,-0.983657587548638
1580417323.17113,0.0578622110322726,0.0300297550926985,-0.989028763256275
1580417323.17512,0.0573739223315783,0.031006332494087,-0.989028763256275
1580417323.17912,0.0578622110322726,0.0295414663920042,-0.988052185854887
1580417323.18311,0.0563973449301898,0.0280766002899213,-0.993423361562524
1580417323.18711,0.063721675440604,0.0300297550926985,-0.991470206759747
1580417323.1911,0.0598153658350498,0.0305180437933927,-0.98951705195697
1580417323.19509,0.0573739223315783,0.0324711985961699,-0.990005340657664
1580417323.19909,0.0573739223315783,0.0324711985961699,-0.990981918059052
1580417323.20308,0.0583504997329669,0.0314946211947813,-0.994888227664607
1580417323.20708,0.0573739223315783,0.0319829098954756,-0.992446784161135
1580417323.21107,0.0593270771343555,0.0334477759975584,-0.986587319752804
1580417323.21507,0.0578622110322726,0.0334477759975584,-0.98951705195697
1580417323.21906,0.0559090562294955,0.0319829098954756,-0.988052185854887
1580417323.22305,0.0598153658350498,0.0305180437933927,-0.991958495460441
1580417323.22705,0.0578622110322726,0.0324711985961699,-0.98951705195697
1580417323.23104,0.0549324788281069,0.0319829098954756,-0.990981918059052
1580417323.23503,0.0549324788281069,0.0300297550926985,-0.990005340657664
1580417323.23904,0.0583504997329669,0.0329594872968642,-0.987075608453498
1580417323.24304,0.0563973449301898,0.0314946211947813,-0.985122453650721
1580417323.24703,0.0568856336308841,0.0334477759975584,-0.987075608453498
1580417323.25103,0.0593270771343555,0.0334477759975584,-0.987563897154192
1580417323.25502,0.0563973449301898,0.031006332494087,-0.98951705195697
1580417323.25901,0.0563973449301898,0.0300297550926985,-0.992446784161135
1580417323.26301,0.0573739223315783,0.0319829098954756,-0.988052185854887
1580417323.267,0.0573739223315783,0.0314946211947813,-0.99293507286183
1580417323.271,0.0573739223315783,0.031006332494087,-0.995864805065995
1580417323.27499,0.0573739223315783,0.034424353398947,-0.995376516365301
1580417323.27898,0.0583504997329669,0.0334477759975584,-0.997329671168078
1580417323.28298,0.0554207675288012,0.0339360646982527,-0.993911650263218
1580417323.28697,0.0563973449301898,0.031006332494087,-0.994399938963912
1580417323.29097,0.0554207675288012,0.031006332494087,-0.994399938963912
1580417323.29496,0.0539559014267184,0.0324711985961699,-0.991470206759747
1580417323.29895,0.0578622110322726,0.0314946211947813,-0.989028763256275
1580417323.30295,0.0593270771343555,0.0319829098954756,-0.987075608453498
1580417323.30694,0.0573739223315783,0.0300297550926985,-0.984634164950027
1580417323.31094,0.0544441901274126,0.0334477759975584,-0.988540474555581
1580417323.31493,0.0559090562294955,0.0319829098954756,-0.993911650263218
1580417323.31891,0.0554207675288012,0.0314946211947813,-0.989028763256275
1580417323.3229,0.0573739223315783,0.031006332494087,-0.98951705195697
1580417323.3269,0.0578622110322726,0.0339360646982527,-0.991958495460441
1580417323.33089,0.0549324788281069,0.0324711985961699,-0.990493629358358
1580417323.33488,0.0583504997329669,0.0324711985961699,-0.98951705195697
1580417323.33888,0.0578622110322726,0.0334477759975584,-0.990005340657664
1580417323.34287,0.0573739223315783,0.0334477759975584,-0.99635309376669
1580417323.34687,0.060303654535744,0.0334477759975584,-0.990981918059052
1580417323.35086,0.0559090562294955,0.0354009308003356,-0.995376516365301
1580417323.35485,0.0554207675288012,0.0300297550926985,-0.995864805065995
1580417323.35885,0.0588387884336612,0.0319829098954756,-0.98951705195697
1580417323.36284,0.0573739223315783,0.0319829098954756,-0.98951705195697
1580417323.36684,0.0544441901274126,0.0354009308003356,-0.990493629358358
1580417323.37083,0.0573739223315783,0.0324711985961699,-0.990005340657664
1580417323.37482,0.0583504997329669,0.0324711985961699,-0.98609903105211
1580417323.37882,0.0559090562294955,0.0324711985961699,-0.98609903105211
1580417323.38281,0.0559090562294955,0.0349126420996413,-0.988540474555581
1580417323.38681,0.0559090562294955,0.0334477759975584,-0.986587319752804
1580417323.3908,0.0568856336308841,0.0349126420996413,-0.987563897154192
1580417323.39479,0.0573739223315783,0.0339360646982527,-0.991958495460441
1580417323.3988,0.0568856336308841,0.0402838178072784,-0.991470206759747
1580417323.4028,0.0549324788281069,0.0354009308003356,-0.991958495460441
1580417323.40679,0.0568856336308841,0.0363775082017241,-0.989028763256275
1580417323.41078,0.0568856336308841,0.0358892195010299,-0.989028763256275
1580417323.41478,0.0554207675288012,0.0354009308003356,-0.990981918059052
1580417323.41877,0.0583504997329669,0.0358892195010299,-0.991958495460441
1580417323.42277,0.0534676127260241,0.0368657969024184,-0.990981918059052
1580417323.42676,0.0568856336308841,0.0349126420996413,-0.98951705195697
1580417323.43075,0.0583504997329669,0.0363775082017241,-0.992446784161135
1580417323.43475,0.0593270771343555,0.034424353398947,-0.990005340657664
1580417323.43874,0.0563973449301898,0.034424353398947,-0.994399938963912
1580417323.44274,0.0563973449301898,0.0354009308003356,-0.990981918059052
1580417323.44673,0.0583504997329669,0.0329594872968642,-0.991470206759747
1580417323.45072,0.0588387884336612,0.0354009308003356,-0.99293507286183
1580417323.45472,0.0544441901274126,0.037842374303807,-0.990981918059052
1580417323.45871,0.0573739223315783,0.0354009308003356,-0.990493629358358
1580417323.46271,0.0554207675288012,0.0339360646982527,-0.987563897154192
1580417323.4667,0.0583504997329669,0.0349126420996413,-0.98951705195697
1580417323.4707,0.0559090562294955,0.0383306630045013,-0.986587319752804
1580417323.47469,0.0554207675288012,0.0388189517051956,-0.981704432745861
1580417323.47867,0.0573739223315783,0.0402838178072784,-0.98268101014725
1580417323.48266,0.0573739223315783,0.037842374303807,-0.99293507286183
1580417323.48666,0.0607919432364383,0.0363775082017241,-0.999282825970855
1580417323.49065,0.0578622110322726,0.037842374303807,-0.99293507286183
1580417323.49464,0.0568856336308841,0.0402838178072784,-0.997329671168078
1580417323.49864,0.0559090562294955,0.0388189517051956,-0.994399938963912
1580417323.50263,0.0578622110322726,0.0397955291065841,-0.988052185854887
1580417323.50663,0.0563973449301898,0.0417486839093613,-0.990005340657664
1580417323.51062,0.0568856336308841,0.0393072404058898,-0.988540474555581
1580417323.51461,0.0534676127260241,0.0388189517051956,-0.986587319752804
1580417323.51861,0.0573739223315783,0.0393072404058898,-0.985610742351415
1580417323.5226,0.0563973449301898,0.0402838178072784,-0.983657587548638
1580417323.5266,0.0588387884336612,0.0393072404058898,-0.988052185854887
1580417323.53059,0.0593270771343555,0.0397955291065841,-0.987075608453498
1580417323.53458,0.0563973449301898,0.0383306630045013,-0.990493629358358
1580417323.53858,0.0578622110322726,0.0407721065079727,-0.988052185854887
1580417323.54257,0.0578622110322726,0.0407721065079727,-0.990981918059052
1580417323.54657,0.0573739223315783,0.041260395208667,-0.990493629358358
1580417323.55056,0.0563973449301898,0.0456549935149155,-0.988052185854887
1580417323.55455,0.0539559014267184,0.0422369726100555,-0.991470206759747
1580417323.55856,0.0544441901274126,0.0422369726100555,-0.988052185854887
1580417323.56256,0.0622568093385212,0.0427252613107498,-0.987563897154192
1580417323.56655,0.0568856336308841,0.0407721065079727,-0.98268101014725
1580417323.57054,0.0568856336308841,0.0441901274128327,-0.99293507286183
1580417323.57454,0.0583504997329669,0.044678416113527,-0.99293507286183
1580417323.57853,0.0544441901274126,0.044678416113527,-0.993423361562524
1580417323.58253,0.0583504997329669,0.0432135500114441,-0.98951705195697
1580417323.58652,0.0583504997329669,0.0432135500114441,-0.989028763256275
1580417323.59051,0.0588387884336612,0.0456549935149155,-0.990005340657664
1580417323.59451,0.0583504997329669,0.0471198596169984,-0.988052185854887
1580417323.5985,0.0563973449301898,0.0441901274128327,-0.987075608453498
1580417323.6025,0.0573739223315783,0.0495613031204698,-0.988540474555581
1580417323.60649,0.0539559014267184,0.0466315709163041,-0.990005340657664
1580417323.61048,0.0588387884336612,0.044678416113527,-0.987563897154192
1580417323.61448,0.0563973449301898,0.0461432822156098,-0.986587319752804
1580417323.61847,0.0539559014267184,0.0461432822156098,-0.99293507286183
1580417323.62247,0.0563973449301898,0.0432135500114441,-0.987563897154192
1580417323.62646,0.0617685206378269,0.0476081483176927,-0.988540474555581
1580417323.63046,0.0588387884336612,0.0451667048142212,-0.990005340657664
1580417323.63445,0.0593270771343555,0.0476081483176927,-0.987075608453498
1580417323.63843,0.0563973449301898,0.0485847257190812,-0.990005340657664
1580417323.64242,0.0559090562294955,0.0471198596169984,-0.995376516365301
1580417323.64641,0.0578622110322726,0.048096437018387,-0.990493629358358
1580417323.65041,0.0573739223315783,0.0466315709163041,-0.992446784161135
1580417323.6544,0.0563973449301898,0.0476081483176927,-0.992446784161135
1580417323.6584,0.0568856336308841,0.0490730144197755,-0.988540474555581
1580417323.66239,0.0568856336308841,0.0485847257190812,-0.986587319752804
1580417323.66638,0.0559090562294955,0.0495613031204698,-0.987075608453498
1580417323.67038,0.0549324788281069,0.0505378805218584,-0.986587319752804
1580417323.67437,0.0559090562294955,0.0456549935149155,-0.990005340657664
1580417323.67837,0.0583504997329669,0.0466315709163041,-0.987075608453498
1580417323.68236,0.0529793240253298,0.0466315709163041,-0.991470206759747
1580417323.68635,0.0559090562294955,0.0471198596169984,-0.989028763256275
1580417323.69035,0.0559090562294955,0.0505378805218584,-0.987563897154192
1580417323.69434,0.0651865415426869,0.0373540856031127,-0.990981918059052
1580417323.69834,0.0529793240253298,0.0563973449301898,-0.988052185854887
1580417323.70233,0.0666514076447697,0.0397955291065841,-0.99293507286183
1580417323.70632,0.0515144579232469,0.0554207675288012,-0.993911650263218
1580417323.71032,0.0588387884336612,0.0417486839093613,-0.982192721446555
1580417323.71431,0.0505378805218584,0.0559090562294955,-0.979751277943084
1580417323.71832,0.0505378805218584,0.048096437018387,-0.988540474555581
1580417323.72232,0.0524910353246355,0.0490730144197755,-0.994888227664607
1580417323.72631,0.0524910353246355,0.0490730144197755,-0.988052185854887
1580417323.7303,0.0529793240253298,0.0524910353246355,-0.987563897154192
1580417323.7343,0.0534676127260241,0.0524910353246355,-0.988540474555581
1580417323.73829,0.0559090562294955,0.0520027466239412,-0.992446784161135
1580417323.74229,0.0544441901274126,0.0539559014267184,-0.991470206759747
1580417323.74628,0.0554207675288012,0.0471198596169984,-0.993911650263218
1580417323.75027,0.0563973449301898,0.0505378805218584,-0.995376516365301
1580417323.75427,0.0539559014267184,0.0520027466239412,-0.991958495460441
1580417323.75826,0.0554207675288012,0.0524910353246355,-0.992446784161135
1580417323.76226,0.0539559014267184,0.0515144579232469,-0.988052185854887
1580417323.76625,0.0539559014267184,0.0510261692225527,-0.98609903105211
1580417323.77024,0.0544441901274126,0.0500495918211641,-0.980727855344472
1580417323.77424,0.0451667048142212,0.0505378805218584,-0.988540474555581
1580417323.77823,0.0534676127260241,0.0520027466239412,-0.987075608453498
1580417323.78223,0.0549324788281069,0.0559090562294955,-0.98951705195697
1580417323.78622,0.0539559014267184,0.0534676127260241,-0.991470206759747
1580417323.79021,0.0529793240253298,0.0549324788281069,-0.994888227664607
1580417323.79421,0.0573739223315783,0.0505378805218584,-0.990005340657664
1580417323.79819,0.0524910353246355,0.0554207675288012,-0.990981918059052
1580417323.80218,0.0520027466239412,0.0544441901274126,-0.990005340657664
1580417323.80617,0.0524910353246355,0.0554207675288012,-0.990493629358358
1580417323.81017,0.0554207675288012,0.0524910353246355,-0.995864805065995
1580417323.81416,0.0539559014267184,0.0544441901274126,-0.990981918059052
1580417323.81816,0.0554207675288012,0.0510261692225527,-0.98609903105211
1580417323.82215,0.0515144579232469,0.0573739223315783,-0.98951705195697
1580417323.82614,0.0534676127260241,0.0500495918211641,-0.986587319752804
1580417323.83014,0.0563973449301898,0.0524910353246355,-0.989028763256275
1580417323.83413,0.0544441901274126,0.0554207675288012,-0.984145876249332
1580417323.83813,0.0524910353246355,0.0534676127260241,-0.986587319752804
1580417323.84212,0.0578622110322726,0.0534676127260241,-0.991958495460441
1580417323.84611,0.0524910353246355,0.0539559014267184,-0.986587319752804
1580417323.85011,0.0515144579232469,0.0554207675288012,-0.990493629358358
1580417323.8541,0.0505378805218584,0.0549324788281069,-0.988540474555581
1580417323.8581,0.0544441901274126,0.0568856336308841,-0.990981918059052
1580417323.86209,0.0559090562294955,0.0554207675288012,-0.99293507286183
1580417323.86608,0.0515144579232469,0.0534676127260241,-0.989028763256275
1580417323.87008,0.0510261692225527,0.0573739223315783,-0.984145876249332
1580417323.87407,0.0520027466239412,0.0539559014267184,-0.987075608453498
1580417323.87808,0.0520027466239412,0.0559090562294955,-0.989028763256275
1580417323.88208,0.0534676127260241,0.0559090562294955,-0.99293507286183
1580417323.88607,0.0563973449301898,0.0573739223315783,-0.990005340657664
1580417323.89006,0.0568856336308841,0.0583504997329669,-0.98951705195697
1580417323.89406,0.0524910353246355,0.0563973449301898,-0.993911650263218
1580417323.89805,0.0520027466239412,0.0598153658350498,-0.992446784161135
1580417323.90205,0.0529793240253298,0.0568856336308841,-0.990005340657664
1580417323.90604,0.0515144579232469,0.0573739223315783,-0.98951705195697
1580417323.91003,0.0539559014267184,0.0588387884336612,-0.988052185854887
1580417323.91403,0.0524910353246355,0.0607919432364383,-0.988540474555581
1580417323.91802,0.0520027466239412,0.0554207675288012,-0.990005340657664
1580417323.92202,0.0451667048142212,0.0529793240253298,-0.988052185854887
1580417323.92601,0.0500495918211641,0.0700694285496297,-0.986587319752804
1580417323.93,0.0334477759975584,0.0524910353246355,-0.990005340657664
1580417323.934,0.0607919432364383,0.0607919432364383,-0.997329671168078
1580417323.93799,0.0441901274128327,0.0563973449301898,-0.993423361562524
1580417323.94199,0.0588387884336612,0.0646982528419926,-0.993423361562524
1580417323.94598,0.0500495918211641,0.0529793240253298,-0.995376516365301
1580417323.94997,0.0559090562294955,0.0622568093385212,-0.997817959868772
1580417323.95397,0.0500495918211641,0.0544441901274126,-0.987563897154192
1580417323.95795,0.048096437018387,0.0646982528419926,-0.986587319752804
1580417323.96194,0.0471198596169984,0.0568856336308841,-0.984634164950027
1580417323.96593,0.0524910353246355,0.0598153658350498,-0.990005340657664
1580417323.96993,0.0466315709163041,0.0529793240253298,-0.984634164950027
1580417323.97392,0.048096437018387,0.0622568093385212,-0.990005340657664
1580417323.97792,0.0485847257190812,0.0632333867399097,-0.98609903105211
1580417323.98191,0.0505378805218584,0.060303654535744,-0.98951705195697
1580417323.9859,0.0524910353246355,0.0598153658350498,-0.987563897154192
1580417323.9899,0.0432135500114441,0.0607919432364383,-0.988540474555581
1580417323.99389,0.0500495918211641,0.0607919432364383,-0.984634164950027
1580417323.99789,0.0500495918211641,0.0607919432364383,-0.986587319752804
1580417324.00188,0.0505378805218584,0.0646982528419926,-0.985122453650721
1580417324.00587,0.0490730144197755,0.0588387884336612,-0.987075608453498
1580417324.00987,0.0471198596169984,0.0646982528419926,-0.992446784161135
1580417324.01386,0.0490730144197755,0.0583504997329669,-0.990005340657664
1580417324.01786,0.0490730144197755,0.067139696345464,-0.989028763256275
1580417324.02185,0.0495613031204698,0.0568856336308841,-0.989028763256275
1580417324.02584,0.0476081483176927,0.060303654535744,-0.994888227664607
1580417324.02984,0.0505378805218584,0.0583504997329669,-0.990005340657664
1580417324.03383,0.0485847257190812,0.0627450980392155,-0.990981918059052
1580417324.03784,0.0476081483176927,0.0612802319371326,-0.987563897154192
1580417324.04183,0.0476081483176927,0.0588387884336612,-0.991470206759747
1580417324.04583,0.0476081483176927,0.0578622110322726,-0.988540474555581
1580417324.04982,0.0495613031204698,0.060303654535744,-0.99293507286183
1580417324.05382,0.0500495918211641,0.0588387884336612,-0.987075608453498
1580417324.05781,0.0490730144197755,0.060303654535744,-0.987075608453498
1580417324.06181,0.0490730144197755,0.0578622110322726,-0.98609903105211
1580417324.0658,0.0456549935149155,0.0598153658350498,-0.985122453650721
1580417324.06979,0.0397955291065841,0.0646982528419926,-0.99293507286183
1580417324.07379,0.0437018387121384,0.0568856336308841,-0.987563897154192
1580417324.07778,0.0500495918211641,0.0573739223315783,-0.984634164950027
1580417324.08177,0.0544441901274126,0.0622568093385212,-0.990005340657664
1580417324.08577,0.0578622110322726,0.060303654535744,-0.98951705195697
1580417324.08976,0.0505378805218584,0.0607919432364383,-0.987563897154192
1580417324.09376,0.0466315709163041,0.063721675440604,-0.993423361562524
1580417324.09775,0.0490730144197755,0.0622568093385212,-0.993911650263218
1580417324.10174,0.0622568093385212,0.0549324788281069,-0.987075608453498
1580417324.10574,0.0495613031204698,0.0666514076447697,-0.988540474555581
1580417324.10973,0.0578622110322726,0.0578622110322726,-1.00465400167849
1580417324.11373,0.0471198596169984,0.0666514076447697,-1.00025940337224
1580417324.11771,0.0593270771343555,0.060303654535744,-0.990493629358358
1580417324.1217,0.0432135500114441,0.0632333867399097,-0.991958495460441
1580417324.12569,0.048096437018387,0.0642099641412983,-0.996841382467384
1580417324.12969,0.0456549935149155,0.0568856336308841,-0.996841382467384
1580417324.13368,0.048096437018387,0.0666514076447697,-0.983657587548638
1580417324.13768,0.0515144579232469,0.063721675440604,-0.989028763256275
1580417324.14167,0.0495613031204698,0.0676279850461583,-0.99293507286183
1580417324.14566,0.0461432822156098,0.0651865415426869,-0.98951705195697
1580417324.14966,0.0451667048142212,0.0695811398489354,-0.987563897154192
1580417324.15365,0.041260395208667,0.0617685206378269,-0.984145876249332
1580417324.15765,0.0466315709163041,0.070557717250324,-0.989028763256275
1580417324.16164,0.0510261692225527,0.0681162737468526,-0.978286411841001
1580417324.16563,0.0432135500114441,0.0622568093385212,-0.983169298847944
1580417324.16963,0.0466315709163041,0.063721675440604,-0.98609903105211
1580417324.17362,0.0471198596169984,0.0651865415426869,-0.984145876249332
1580417324.17762,0.0466315709163041,0.0651865415426869,-0.991958495460441
1580417324.18161,0.0451667048142212,0.0617685206378269,-0.986587319752804
1580417324.1856,0.0461432822156098,0.0666514076447697,-0.990493629358358
1580417324.1896,0.0456549935149155,0.0627450980392155,-0.983169298847944
1580417324.19359,0.0485847257190812,0.0695811398489354,-0.986587319752804
1580417324.1976,0.0524910353246355,0.0661631189440754,-0.980239566643778
1580417324.20159,0.0402838178072784,0.0676279850461583,-0.978774700541695
1580417324.20559,0.0476081483176927,0.0700694285496297,-0.991470206759747
1580417324.20958,0.0393072404058898,0.0700694285496297,-0.992446784161135
1580417324.21358,0.0500495918211641,0.0715342946517126,-0.988540474555581
1580417324.21757,0.0505378805218584,0.0627450980392155,-0.98609903105211
1580417324.22157,0.0466315709163041,0.0686045624475469,-0.993911650263218
1580417324.22556,0.0466315709163041,0.0627450980392155,-0.988052185854887
1580417324.22955,0.0485847257190812,0.0651865415426869,-0.990005340657664
1580417324.23355,0.044678416113527,0.0627450980392155,-0.989028763256275
1580417324.23754,0.0427252613107498,0.067139696345464,-0.98951705195697
1580417324.24153,0.0441901274128327,0.0632333867399097,-0.984634164950027
1580417324.24553,0.0490730144197755,0.0686045624475469,-0.987563897154192
1580417324.24952,0.0437018387121384,0.0686045624475469,-0.990493629358358
1580417324.25352,0.0456549935149155,0.0695811398489354,-0.990981918059052
1580417324.25751,0.0437018387121384,0.067139696345464,-0.993911650263218
1580417324.2615,0.0407721065079727,0.0690928511482412,-0.991958495460441
1580417324.2655,0.0505378805218584,0.063721675440604,-0.985122453650721
1580417324.26949,0.0456549935149155,0.0749523155565726,-0.988540474555581
1580417324.27349,0.0500495918211641,0.067139696345464,-0.993423361562524
1580417324.27746,0.0407721065079727,0.0686045624475469,-0.994399938963912
1580417324.28146,0.0466315709163041,0.0686045624475469,-0.983169298847944
1580417324.28545,0.0437018387121384,0.0734874494544897,-0.986587319752804
1580417324.28945,0.0402838178072784,0.0681162737468526,-0.995376516365301
1580417324.29344,0.0339360646982527,0.0666514076447697,-0.992446784161135
1580417324.29744,0.0383306630045013,0.0725108720531011,-0.998794537270161
1580417324.30143,0.0471198596169984,0.0632333867399097,-0.988052185854887
1580417324.30542,0.0437018387121384,0.0729991607537954,-0.99635309376669
1580417324.30942,0.0422369726100555,0.0661631189440754,-0.995864805065995
1580417324.31341,0.0427252613107498,0.070557717250324,-0.988052185854887
1580417324.3174,0.0422369726100555,0.0656748302433812,-0.987563897154192
1580417324.3214,0.0417486839093613,0.0700694285496297,-0.98951705195697
1580417324.32539,0.0373540856031127,0.070557717250324,-0.98609903105211
1580417324.32939,0.0437018387121384,0.0695811398489354,-0.997329671168078
1580417324.33338,0.041260395208667,0.0695811398489354,-0.992446784161135
1580417324.33737,0.0437018387121384,0.0700694285496297,-0.983657587548638
1580417324.34137,0.0471198596169984,0.0676279850461583,-0.981216144045167
1580417324.34536,0.037842374303807,0.0725108720531011,-0.984145876249332
1580417324.34936,0.044678416113527,0.0725108720531011,-0.986587319752804
1580417324.35335,0.0427252613107498,0.0710460059510183,-0.990493629358358
1580417324.35736,0.0466315709163041,0.0700694285496297,-0.978286411841001
1580417324.36135,0.041260395208667,0.0734874494544897,-0.982192721446555
1580417324.36535,0.0383306630045013,0.0715342946517126,-0.984634164950027
1580417324.36934,0.0422369726100555,0.0720225833524069,-0.978774700541695
1580417324.37334,0.0383306630045013,0.0720225833524069,-0.988540474555581
1580417324.37733,0.0466315709163041,0.0695811398489354,-0.978286411841001
1580417324.38132,0.0432135500114441,0.0734874494544897,-0.986587319752804
1580417324.38532,0.0388189517051956,0.0729991607537954,-0.986587319752804
1580417324.38931,0.0432135500114441,0.0700694285496297,-0.993423361562524
1580417324.39331,0.0397955291065841,0.0783703364614325,-0.993911650263218
1580417324.3973,0.0437018387121384,0.0676279850461583,-0.994888227664607
1580417324.40129,0.0393072404058898,0.0725108720531011,-0.996841382467384
1580417324.40529,0.0383306630045013,0.0690928511482412,-0.98951705195697
1580417324.40928,0.0402838178072784,0.073975738155184,-0.990005340657664
1580417324.41328,0.0383306630045013,0.067139696345464,-0.995864805065995
1580417324.41727,0.0397955291065841,0.0710460059510183,-0.996841382467384
1580417324.42126,0.0388189517051956,0.067139696345464,-0.998306248569467
1580417324.42526,0.0402838178072784,0.0690928511482412,-0.995864805065995
1580417324.42925,0.0417486839093613,0.067139696345464,-0.989028763256275
1580417324.43325,0.0388189517051956,0.0754406042572668,-0.985610742351415
1580417324.43722,0.0324711985961699,0.0690928511482412,-0.994399938963912
1580417324.44122,0.0490730144197755,0.0661631189440754,-0.988540474555581
1580417324.44521,0.0383306630045013,0.073975738155184,-0.981216144045167
1580417324.44921,0.041260395208667,0.0744640268558783,-0.98951705195697
1580417324.4532,0.0334477759975584,0.070557717250324,-0.990981918059052
1580417324.4572,0.031006332494087,0.0666514076447697,-0.98951705195697
1580417324.46119,0.0363775082017241,0.0720225833524069,-0.98951705195697
1580417324.46518,0.0500495918211641,0.073975738155184,-0.991958495460441
1580417324.46918,0.041260395208667,0.0729991607537954,-0.98951705195697
1580417324.47317,0.0422369726100555,0.0725108720531011,-0.987075608453498
1580417324.47716,0.041260395208667,0.073975738155184,-0.987563897154192
1580417324.48116,0.0407721065079727,0.0720225833524069,-0.985610742351415
1580417324.48515,0.041260395208667,0.0734874494544897,-0.98268101014725
1580417324.48915,0.0363775082017241,0.0754406042572668,-0.987075608453498
1580417324.49314,0.0441901274128327,0.070557717250324,-0.985122453650721
1580417324.49713,0.0393072404058898,0.0769054703593497,-0.984634164950027
1580417324.50113,0.0373540856031127,0.0734874494544897,-0.990493629358358
1580417324.50512,0.034424353398947,0.0759288929579611,-0.992446784161135
1580417324.50912,0.0397955291065841,0.0710460059510183,-0.985122453650721
1580417324.51311,0.0358892195010299,0.0734874494544897,-0.988052185854887
1580417324.51712,0.0334477759975584,0.0769054703593497,-0.98951705195697
1580417324.52111,0.027588311589227,0.0725108720531011,-0.988052185854887
1580417324.52511,0.034424353398947,0.0793469138628211,-0.98268101014725
1580417324.5291,0.0427252613107498,0.0769054703593497,-0.98609903105211
1580417324.5331,0.0417486839093613,0.0715342946517126,-0.987075608453498
1580417324.53709,0.0397955291065841,0.0725108720531011,-0.991470206759747
1580417324.54108,0.0383306630045013,0.077393759060044,-0.990981918059052
1580417324.54508,0.0354009308003356,0.0778820477607383,-0.994399938963912
1580417324.54907,0.0368657969024184,0.0754406042572668,-0.992446784161135
1580417324.55307,0.0368657969024184,0.0725108720531011,-0.990493629358358
1580417324.55706,0.0334477759975584,0.0759288929579611,-0.991470206759747
1580417324.56105,0.0402838178072784,0.0710460059510183,-0.986587319752804
1580417324.56505,0.0354009308003356,0.0793469138628211,-0.987563897154192
1580417324.56904,0.0383306630045013,0.0744640268558783,-0.988540474555581
1580417324.57304,0.0354009308003356,0.0764171816586554,-0.992446784161135
1580417324.57703,0.0388189517051956,0.077393759060044,-0.98609903105211
1580417324.58102,0.0358892195010299,0.0788586251621268,-0.991958495460441
1580417324.58502,0.0437018387121384,0.0769054703593497,-0.99635309376669
1580417324.58901,0.0354009308003356,0.073975738155184,-0.993911650263218
1580417324.59301,0.0354009308003356,0.0734874494544897,-0.992446784161135
1580417324.59698,0.0373540856031127,0.0686045624475469,-0.985122453650721
1580417324.60098,0.0334477759975584,0.073975738155184,-0.989028763256275
1580417324.60497,0.0324711985961699,0.073975738155184,-0.991958495460441
1580417324.60897,0.0363775082017241,0.0803234912642097,-0.994888227664607
1580417324.61296,0.0329594872968642,0.0734874494544897,-0.987075608453498
1580417324.61695,0.0354009308003356,0.0764171816586554,-0.984145876249332
1580417324.62095,0.0324711985961699,0.0783703364614325,-0.98268101014725
1580417324.62494,0.0271000228885327,0.0764171816586554,-0.988540474555581
1580417324.62894,0.0319829098954756,0.0749523155565726,-0.985122453650721
1580417324.63293,0.0373540856031127,0.0686045624475469,-0.988540474555581
1580417324.63692,0.031006332494087,0.0798352025635154,-0.993911650263218
1580417324.64092,0.0305180437933927,0.0798352025635154,-0.99635309376669
1580417324.64491,0.0358892195010299,0.0734874494544897,-0.994399938963912
1580417324.64891,0.0339360646982527,0.0759288929579611,-0.99293507286183
1580417324.6529,0.034424353398947,0.0749523155565726,-0.989028763256275
1580417324.65689,0.0334477759975584,0.0764171816586554,-0.991470206759747
1580417324.66089,0.0329594872968642,0.0754406042572668,-0.987563897154192
1580417324.66488,0.0324711985961699,0.073975738155184,-0.985610742351415
1580417324.66888,0.0319829098954756,0.0749523155565726,-0.988052185854887
1580417324.67287,0.0314946211947813,0.0734874494544897,-0.991958495460441
1580417324.67688,0.0305180437933927,0.0744640268558783,-0.992446784161135
1580417324.68087,0.0290531776913099,0.0759288929579611,-0.990981918059052
1580417324.68487,0.0358892195010299,0.077393759060044,-0.990005340657664
1580417324.68886,0.0295414663920042,0.0788586251621268,-0.99293507286183
1580417324.69285,0.0354009308003356,0.0729991607537954,-0.990493629358358
1580417324.69685,0.0329594872968642,0.0783703364614325,-0.992446784161135
1580417324.70084,0.0334477759975584,0.0764171816586554,-0.990493629358358
1580417324.70484,0.0329594872968642,0.0754406042572668,-0.987075608453498
1580417324.70883,0.0329594872968642,0.0764171816586554,-0.981216144045167
1580417324.71282,0.0358892195010299,0.0793469138628211,-0.981216144045167
1580417324.71682,0.031006332494087,0.0778820477607383,-0.986587319752804
1580417324.72081,0.0329594872968642,0.0793469138628211,-0.987563897154192
1580417324.72481,0.0329594872968642,0.077393759060044,-0.99293507286183
1580417324.7288,0.0334477759975584,0.0734874494544897,-0.988540474555581
1580417324.7328,0.034424353398947,0.0764171816586554,-0.985610742351415
1580417324.73679,0.0319829098954756,0.0754406042572668,-0.987075608453498
1580417324.74078,0.0314946211947813,0.0769054703593497,-0.989028763256275
1580417324.74478,0.0324711985961699,0.0778820477607383,-0.987075608453498
1580417324.74877,0.034424353398947,0.0759288929579611,-0.987075608453498
1580417324.75276,0.0339360646982527,0.077393759060044,-0.993911650263218
1580417324.75674,0.0329594872968642,0.0749523155565726,-0.98951705195697
1580417324.76074,0.0305180437933927,0.077393759060044,-0.990493629358358
1580417324.76473,0.0290531776913099,0.0778820477607383,-0.990981918059052
1580417324.76873,0.0334477759975584,0.0788586251621268,-0.984634164950027
1580417324.77272,0.034424353398947,0.0759288929579611,-0.987563897154192
1580417324.77671,0.0339360646982527,0.0754406042572668,-0.988540474555581
1580417324.78071,0.0314946211947813,0.0764171816586554,-0.990493629358358
1580417324.7847,0.0334477759975584,0.0759288929579611,-0.99293507286183
1580417324.7887,0.0334477759975584,0.0749523155565726,-0.988540474555581
1580417324.79269,0.031006332494087,0.0744640268558783,-0.987563897154192
1580417324.79668,0.034424353398947,0.0759288929579611,-0.987075608453498
1580417324.80068,0.0285648889906156,0.0759288929579611,-0.994399938963912
1580417324.80467,0.0285648889906156,0.077393759060044,-0.99635309376669
1580417324.80867,0.0285648889906156,0.0754406042572668,-0.988540474555581
1580417324.81266,0.0290531776913099,0.0754406042572668,-0.985122453650721
1580417324.81665,0.0305180437933927,0.0798352025635154,-0.98609903105211
1580417324.82065,0.0334477759975584,0.0778820477607383,-0.987563897154192
1580417324.82464,0.0285648889906156,0.0803234912642097,-0.99635309376669
1580417324.82864,0.0285648889906156,0.0798352025635154,-0.990493629358358
1580417324.83263,0.0295414663920042,0.077393759060044,-0.990005340657664
1580417324.83664,0.0295414663920042,0.0778820477607383,-0.98951705195697
1580417324.84063,0.0305180437933927,0.0769054703593497,-0.988540474555581
1580417324.84463,0.0305180437933927,0.0822766460669868,-0.98951705195697
1580417324.84862,0.0305180437933927,0.0783703364614325,-0.994888227664607
1580417324.85261,0.0256351567864499,0.0788586251621268,-0.994888227664607
1580417324.85661,0.0300297550926985,0.0778820477607383,-0.988540474555581
1580417324.8606,0.0295414663920042,0.077393759060044,-0.985610742351415
1580417324.8646,0.0324711985961699,0.0788586251621268,-0.990493629358358
1580417324.86859,0.0300297550926985,0.073975738155184,-0.99293507286183
1580417324.87258,0.0300297550926985,0.0798352025635154,-0.992446784161135
1580417324.87658,0.0305180437933927,0.0793469138628211,-0.988052185854887
1580417324.88057,0.0280766002899213,0.0798352025635154,-0.987563897154192
1580417324.88457,0.0251468680857556,0.0803234912642097,-0.992446784161135
1580417324.88856,0.0251468680857556,0.0783703364614325,-0.991958495460441
1580417324.89255,0.024170290684367,0.0817883573662925,-0.990493629358358
1580417324.89655,0.0300297550926985,0.0822766460669868,-0.992446784161135
1580417324.90054,0.0295414663920042,0.0798352025635154,-0.990005340657664
1580417324.90454,0.0271000228885327,0.0793469138628211,-0.991958495460441
1580417324.90853,0.0280766002899213,0.0798352025635154,-0.99293507286183
1580417324.91252,0.0271000228885327,0.0803234912642097,-0.98951705195697
1580417324.9165,0.0280766002899213,0.0764171816586554,-0.990005340657664
1580417324.9205,0.0305180437933927,0.0783703364614325,-0.990005340657664
1580417324.92449,0.0339360646982527,0.077393759060044,-0.989028763256275
1580417324.92848,0.0319829098954756,0.0813000686655982,-0.984145876249332
1580417324.93248,0.0300297550926985,0.0778820477607383,-0.984145876249332
1580417324.93647,0.0271000228885327,0.0813000686655982,-0.987075608453498
1580417324.94047,0.0280766002899213,0.0778820477607383,-0.98609903105211
1580417324.94446,0.0256351567864499,0.0759288929579611,-0.98609903105211
1580417324.94845,0.0324711985961699,0.0778820477607383,-0.985122453650721
1580417324.95245,0.027588311589227,0.0842298008697639,-0.987075608453498
1580417324.95644,0.0319829098954756,0.0803234912642097,-0.984634164950027
1580417324.96044,0.0339360646982527,0.077393759060044,-0.986587319752804
1580417324.96443,0.0300297550926985,0.0798352025635154,-0.990005340657664
1580417324.96843,0.027588311589227,0.0793469138628211,-0.990005340657664
1580417324.97242,0.0290531776913099,0.0788586251621268,-0.991958495460441
1580417324.97641,0.0280766002899213,0.0798352025635154,-0.988052185854887
1580417324.98041,0.0266117341878385,0.0822766460669868,-0.987075608453498
1580417324.9844,0.0280766002899213,0.0813000686655982,-0.988540474555581
1580417324.98839,0.024170290684367,0.0803234912642097,-0.987563897154192
1580417324.99239,0.0354009308003356,0.0813000686655982,-0.987563897154192
1580417324.9964,0.0271000228885327,0.0798352025635154,-0.99293507286183
1580417325.00039,0.0285648889906156,0.0817883573662925,-0.991470206759747
1580417325.00439,0.0266117341878385,0.0817883573662925,-0.992446784161135
1580417325.00838,0.0261234454871442,0.0793469138628211,-0.985122453650721
1580417325.01237,0.0280766002899213,0.080811779964904,-0.985610742351415
1580417325.01637,0.0271000228885327,0.0793469138628211,-0.989028763256275
1580417325.02036,0.0251468680857556,0.0793469138628211,-0.991470206759747
1580417325.02436,0.0266117341878385,0.0803234912642097,-0.988052185854887
1580417325.02835,0.0280766002899213,0.080811779964904,-0.985610742351415
1580417325.03234,0.0295414663920042,0.0793469138628211,-0.98609903105211
1580417325.03634,0.031006332494087,0.0813000686655982,-0.982192721446555
1580417325.04033,0.0246585793850613,0.0793469138628211,-0.990493629358358
1580417325.04433,0.0251468680857556,0.0803234912642097,-0.990493629358358
1580417325.04832,0.0246585793850613,0.0783703364614325,-0.992446784161135
1580417325.05231,0.0290531776913099,0.0798352025635154,-0.99293507286183
1580417325.05631,0.0305180437933927,0.080811779964904,-0.994399938963912
1580417325.0603,0.0290531776913099,0.080811779964904,-0.991958495460441
1580417325.0643,0.027588311589227,0.0803234912642097,-0.990005340657664
1580417325.06829,0.0280766002899213,0.0822766460669868,-0.991958495460441
1580417325.07228,0.0280766002899213,0.0817883573662925,-0.995376516365301
1580417325.07626,0.0261234454871442,0.0803234912642097,-0.994399938963912
1580417325.08026,0.0305180437933927,0.0813000686655982,-0.994399938963912
1580417325.08425,0.0295414663920042,0.0827649347676811,-0.990981918059052
1580417325.08824,0.0266117341878385,0.0832532234683754,-0.990005340657664
1580417325.09224,0.0295414663920042,0.0788586251621268,-0.990493629358358
1580417325.09623,0.0300297550926985,0.080811779964904,-0.990981918059052
1580417325.10023,0.0227054245822842,0.0803234912642097,-0.990005340657664
1580417325.10422,0.0261234454871442,0.0827649347676811,-0.98951705195697
1580417325.10821,0.0271000228885327,0.0793469138628211,-0.985610742351415
1580417325.11221,0.0280766002899213,0.0793469138628211,-0.988052185854887
1580417325.1162,0.0266117341878385,0.0852063782711525,-0.98609903105211
1580417325.1202,0.0280766002899213,0.0817883573662925,-0.992446784161135
1580417325.12419,0.024170290684367,0.080811779964904,-0.987563897154192
1580417325.12819,0.0271000228885327,0.0827649347676811,-0.984145876249332
1580417325.13218,0.0266117341878385,0.0842298008697639,-0.985610742351415
1580417325.13617,0.0261234454871442,0.0837415121690697,-0.990493629358358
1580417325.14017,0.0256351567864499,0.0822766460669868,-0.990493629358358
1580417325.14416,0.0300297550926985,0.0832532234683754,-0.989028763256275
1580417325.14815,0.0261234454871442,0.0803234912642097,-0.98609903105211
1580417325.15215,0.027588311589227,0.0813000686655982,-0.986587319752804
1580417325.15616,0.0246585793850613,0.080811779964904,-0.991958495460441
1580417325.16015,0.024170290684367,0.0822766460669868,-0.993423361562524
1580417325.16415,0.0271000228885327,0.0813000686655982,-0.990005340657664
1580417325.16814,0.0290531776913099,0.0798352025635154,-0.994888227664607
1580417325.17213,0.0271000228885327,0.0817883573662925,-0.988540474555581
1580417325.17613,0.0266117341878385,0.0798352025635154,-0.984634164950027
1580417325.18012,0.0280766002899213,0.0822766460669868,-0.984634164950027
1580417325.18412,0.0261234454871442,0.0798352025635154,-0.990005340657664
1580417325.18811,0.024170290684367,0.0793469138628211,-0.983169298847944
1580417325.1921,0.0271000228885327,0.080811779964904,-0.990005340657664
1580417325.1961,0.027588311589227,0.080811779964904,-0.984145876249332
1580417325.20009,0.0246585793850613,0.0827649347676811,-0.983169298847944
1580417325.20409,0.0266117341878385,0.0822766460669868,-0.98609903105211
1580417325.20808,0.0266117341878385,0.0842298008697639,-0.990981918059052
1580417325.21207,0.031006332494087,0.0817883573662925,-0.987075608453498
1580417325.21607,0.0271000228885327,0.0856946669718468,-0.987075608453498
1580417325.22006,0.0285648889906156,0.0827649347676811,-0.987075608453498
1580417325.22406,0.0271000228885327,0.0827649347676811,-0.98609903105211
1580417325.22805,0.0280766002899213,0.0803234912642097,-0.98951705195697
1580417325.23204,0.0251468680857556,0.0803234912642097,-0.995376516365301
1580417325.23602,0.0251468680857556,0.0788586251621268,-0.993911650263218
1580417325.24002,0.0236820019836728,0.0827649347676811,-0.99293507286183
1580417325.24401,0.0261234454871442,0.080811779964904,-0.994888227664607
1580417325.248,0.0280766002899213,0.080811779964904,-0.991958495460441
1580417325.252,0.0290531776913099,0.0822766460669868,-0.993911650263218
1580417325.25599,0.0305180437933927,0.0827649347676811,-0.991958495460441
1580417325.25999,0.0256351567864499,0.0817883573662925,-0.987563897154192
1580417325.26398,0.0236820019836728,0.0832532234683754,-0.987563897154192
1580417325.26797,0.0266117341878385,0.0847180895704582,-0.986587319752804
1580417325.27197,0.0246585793850613,0.0803234912642097,-0.985122453650721
1580417325.27596,0.0261234454871442,0.0813000686655982,-0.989028763256275
1580417325.27996,0.0246585793850613,0.0817883573662925,-0.994399938963912
1580417325.28395,0.0266117341878385,0.0803234912642097,-0.989028763256275
1580417325.28794,0.0290531776913099,0.0817883573662925,-0.98951705195697
1580417325.29194,0.0256351567864499,0.0842298008697639,-0.994888227664607
1580417325.29593,0.0290531776913099,0.0847180895704582,-0.987563897154192
1580417325.29993,0.0246585793850613,0.0822766460669868,-0.992446784161135
1580417325.30392,0.0271000228885327,0.0832532234683754,-0.987075608453498
1580417325.30791,0.0246585793850613,0.080811779964904,-0.990005340657664
1580417325.31191,0.0251468680857556,0.0842298008697639,-0.990493629358358
1580417325.31592,0.027588311589227,0.0822766460669868,-0.987075608453498
1580417325.31991,0.0227054245822842,0.0837415121690697,-0.989028763256275
1580417325.32391,0.0261234454871442,0.0827649347676811,-0.988540474555581
1580417325.3279,0.0246585793850613,0.0813000686655982,-0.989028763256275
1580417325.33189,0.0271000228885327,0.080811779964904,-0.991958495460441
1580417325.33589,0.0271000228885327,0.0813000686655982,-0.983657587548638
1580417325.33988,0.0266117341878385,0.080811779964904,-0.983657587548638
1580417325.34388,0.0261234454871442,0.080811779964904,-0.986587319752804
1580417325.34787,0.0266117341878385,0.0817883573662925,-0.984634164950027
1580417325.35186,0.0246585793850613,0.0813000686655982,-0.98609903105211
1580417325.35586,0.0261234454871442,0.0827649347676811,-0.984634164950027
1580417325.35985,0.0290531776913099,0.0832532234683754,-0.981704432745861
1580417325.36384,0.0280766002899213,0.0847180895704582,-0.985122453650721
1580417325.36784,0.024170290684367,0.0817883573662925,-0.986587319752804
1580417325.37183,0.027588311589227,0.080811779964904,-0.987563897154192
1580417325.37583,0.0266117341878385,0.0822766460669868,-0.990005340657664
1580417325.37982,0.027588311589227,0.0827649347676811,-0.989028763256275
1580417325.38381,0.0266117341878385,0.0837415121690697,-0.99293507286183
1580417325.38781,0.0271000228885327,0.0832532234683754,-0.991958495460441
1580417325.3918,0.0227054245822842,0.0842298008697639,-0.994399938963912
1580417325.39581,0.0236820019836728,0.0837415121690697,-0.990981918059052
1580417325.39981,0.0300297550926985,0.0827649347676811,-0.98951705195697
1580417325.4038,0.0319829098954756,0.0822766460669868,-0.990981918059052
1580417325.40779,0.027588311589227,0.0837415121690697,-0.994888227664607
1580417325.41179,0.0246585793850613,0.0817883573662925,-0.992446784161135
1580417325.41578,0.0261234454871442,0.0793469138628211,-0.990981918059052
1580417325.41978,0.0231937132829785,0.0803234912642097,-0.990981918059052
1580417325.42377,0.0236820019836728,0.0822766460669868,-0.98951705195697
1580417325.42776,0.027588311589227,0.0822766460669868,-0.991958495460441
1580417325.43176,0.0256351567864499,0.0822766460669868,-0.991958495460441
1580417325.43575,0.0222171358815899,0.0803234912642097,-0.987075608453498
1580417325.43975,0.0227054245822842,0.0803234912642097,-0.988052185854887
1580417325.44374,0.0271000228885327,0.0817883573662925,-0.986587319752804
1580417325.44773,0.0236820019836728,0.0817883573662925,-0.985610742351415
1580417325.45173,0.0231937132829785,0.0827649347676811,-0.984634164950027
1580417325.45572,0.0231937132829785,0.080811779964904,-0.986587319752804
1580417325.45972,0.024170290684367,0.0817883573662925,-0.987563897154192
1580417325.46371,0.0251468680857556,0.0832532234683754,-0.984634164950027
1580417325.4677,0.0227054245822842,0.0822766460669868,-0.990981918059052
1580417325.4717,0.0212405584802013,0.080811779964904,-0.994888227664607
1580417325.47568,0.0256351567864499,0.0847180895704582,-0.991470206759747
1580417325.47967,0.0256351567864499,0.0847180895704582,-0.989028763256275
1580417325.48366,0.0256351567864499,0.0822766460669868,-0.985122453650721
1580417325.48766,0.0236820019836728,0.080811779964904,-0.985610742351415
1580417325.49165,0.0266117341878385,0.0798352025635154,-0.988052185854887
1580417325.49565,0.0231937132829785,0.0827649347676811,-0.985610742351415
1580417325.49964,0.0261234454871442,0.0837415121690697,-0.989028763256275
1580417325.50363,0.024170290684367,0.0852063782711525,-0.984145876249332
1580417325.50763,0.0271000228885327,0.0832532234683754,-0.98609903105211
1580417325.51162,0.0207522697795071,0.0847180895704582,-0.985610742351415
1580417325.51562,0.0236820019836728,0.080811779964904,-0.991958495460441
1580417325.51961,0.0246585793850613,0.0817883573662925,-0.990981918059052
1580417325.5236,0.0295414663920042,0.0827649347676811,-0.986587319752804
1580417325.5276,0.0261234454871442,0.0813000686655982,-0.98609903105211
1580417325.53159,0.0192874036774242,0.0813000686655982,-0.987563897154192
1580417325.53559,0.0217288471808956,0.0783703364614325,-0.98609903105211
1580417325.53958,0.0222171358815899,0.080811779964904,-0.987075608453498
1580417325.54357,0.0207522697795071,0.0837415121690697,-0.988052185854887
1580417325.54757,0.0217288471808956,0.080811779964904,-0.991958495460441
1580417325.55156,0.024170290684367,0.0871595330739297,-0.98951705195697
1580417325.55557,0.0329594872968642,0.0817883573662925,-0.986587319752804
1580417325.55957,0.0319829098954756,0.0837415121690697,-0.990005340657664
1580417325.56356,0.0280766002899213,0.0856946669718468,-0.988052185854887
1580417325.56755,0.0251468680857556,0.0827649347676811,-0.983169298847944
1580417325.57155,0.0134279392690928,0.0764171816586554,-0.984145876249332
1580417325.57554,0.0129396505683985,0.0769054703593497,-0.988052185854887
1580417325.57954,0.0256351567864499,0.0822766460669868,-0.984634164950027
1580417325.58353,0.0261234454871442,0.080811779964904,-0.990005340657664
1580417325.58752,0.0422369726100555,0.0798352025635154,-0.990493629358358
1580417325.59152,0.0246585793850613,0.0886243991760125,-0.998794537270161
1580417325.59551,0.0349126420996413,0.0798352025635154,-0.990981918059052
1580417325.59951,0.0266117341878385,0.0832532234683754,-0.99293507286183
1580417325.6035,0.0358892195010299,0.0729991607537954,-0.989028763256275
1580417325.60749,0.0227054245822842,0.080811779964904,-0.986587319752804
1580417325.61149,0.01196307316701,0.080811779964904,-0.994399938963912
1580417325.61548,0.0207522697795071,0.0769054703593497,-0.988052185854887
1580417325.61948,0.0256351567864499,0.0822766460669868,-0.988052185854887
1580417325.62347,0.0266117341878385,0.0827649347676811,-0.982192721446555
1580417325.62746,0.0236820019836728,0.0788586251621268,-0.977798123140307
1580417325.63146,0.0261234454871442,0.0813000686655982,-0.983657587548638
1580417325.63544,0.0217288471808956,0.0871595330739297,-0.97926298924239
1580417325.63943,0.0236820019836728,0.0837415121690697,-0.987563897154192
1580417325.64342,0.0319829098954756,0.077393759060044,-0.98609903105211
1580417325.64742,0.0227054245822842,0.0832532234683754,-0.993423361562524
1580417325.65141,0.0207522697795071,0.0817883573662925,-0.987563897154192
1580417325.65541,0.0227054245822842,0.0822766460669868,-0.987075608453498
1580417325.6594,0.0217288471808956,0.0827649347676811,-0.994399938963912
1580417325.66339,0.0236820019836728,0.0813000686655982,-0.994888227664607
1580417325.66739,0.0207522697795071,0.0827649347676811,-0.994888227664607
1580417325.67138,0.0217288471808956,0.0837415121690697,-0.995376516365301
1580417325.67538,0.0227054245822842,0.0881361104753182,-0.98951705195697
1580417325.67937,0.0266117341878385,0.0876478217746239,-0.987075608453498
1580417325.68336,0.0266117341878385,0.0832532234683754,-0.987563897154192
1580417325.68736,0.0202639810788128,0.0842298008697639,-0.987075608453498
1580417325.69135,0.0207522697795071,0.0837415121690697,-0.980727855344472
1580417325.69535,0.0222171358815899,0.0822766460669868,-0.98609903105211
1580417325.69934,0.0217288471808956,0.0847180895704582,-0.98951705195697
1580417325.70333,0.024170290684367,0.0822766460669868,-0.98609903105211
1580417325.70733,0.0236820019836728,0.0817883573662925,-0.985610742351415
1580417325.71132,0.0207522697795071,0.0822766460669868,-0.990005340657664
1580417325.71533,0.0222171358815899,0.0813000686655982,-0.990005340657664
1580417325.71933,0.0197756923781185,0.0837415121690697,-0.98951705195697
1580417325.72332,0.0197756923781185,0.0832532234683754,-0.988540474555581
1580417325.72731,0.0212405584802013,0.0847180895704582,-0.987563897154192
1580417325.73131,0.024170290684367,0.0871595330739297,-0.988540474555581
1580417325.7353,0.0222171358815899,0.0856946669718468,-0.993911650263218
1580417325.7393,0.0207522697795071,0.0827649347676811,-0.989028763256275
1580417325.74329,0.0173342488746471,0.0832532234683754,-0.995376516365301
1580417325.74728,0.0212405584802013,0.0827649347676811,-0.993423361562524
1580417325.75128,0.0251468680857556,0.0827649347676811,-0.991470206759747
1580417325.75527,0.0227054245822842,0.0817883573662925,-0.988052185854887
1580417325.75927,0.0246585793850613,0.0832532234683754,-0.98951705195697
1580417325.76326,0.0217288471808956,0.0817883573662925,-0.985610742351415
1580417325.76725,0.0246585793850613,0.0813000686655982,-0.985122453650721
1580417325.77125,0.0212405584802013,0.0856946669718468,-0.991470206759747
1580417325.77524,0.0187991149767299,0.080811779964904,-0.984145876249332
1580417325.77923,0.0217288471808956,0.0783703364614325,-0.983169298847944
1580417325.78323,0.0197756923781185,0.0813000686655982,-0.98268101014725
1580417325.78722,0.0207522697795071,0.0817883573662925,-0.990005340657664
1580417325.79122,0.0192874036774242,0.0798352025635154,-0.981704432745861
1580417325.79523,0.0197756923781185,0.0817883573662925,-0.983169298847944
1580417325.79922,0.0197756923781185,0.0813000686655982,-0.985610742351415
1580417325.80322,0.0173342488746471,0.0822766460669868,-0.989028763256275
1580417325.80721,0.0187991149767299,0.0803234912642097,-0.990981918059052
1580417325.8112,0.0207522697795071,0.0783703364614325,-0.984145876249332
1580417325.8152,0.0163576714732585,0.0783703364614325,-0.986587319752804
1580417325.81919,0.0236820019836728,0.0832532234683754,-0.991958495460441
1580417325.82318,0.0212405584802013,0.0842298008697639,-0.981704432745861
1580417325.82718,0.0222171358815899,0.0856946669718468,-0.990981918059052
1580417325.83117,0.0231937132829785,0.0842298008697639,-0.990005340657664
1580417325.83517,0.0217288471808956,0.0837415121690697,-0.994399938963912
1580417325.83916,0.0202639810788128,0.0842298008697639,-0.990005340657664
1580417325.84315,0.0192874036774242,0.0837415121690697,-0.990493629358358
1580417325.84715,0.0148928053711757,0.0837415121690697,-0.99293507286183
1580417325.85114,0.0183108262760356,0.0832532234683754,-0.989028763256275
1580417325.85514,0.0197756923781185,0.080811779964904,-0.991958495460441
1580417325.85913,0.0207522697795071,0.0832532234683754,-0.989028763256275
1580417325.86312,0.0207522697795071,0.0837415121690697,-0.988052185854887
1580417325.86712,0.0148928053711757,0.0852063782711525,-0.988540474555581
1580417325.87111,0.0187991149767299,0.080811779964904,-0.988540474555581
1580417325.87509,0.0173342488746471,0.0803234912642097,-0.990493629358358
1580417325.87908,0.0192874036774242,0.0822766460669868,-0.987563897154192
1580417325.88308,0.0202639810788128,0.0827649347676811,-0.989028763256275
1580417325.88707,0.0183108262760356,0.080811779964904,-0.985122453650721
1580417325.89107,0.0202639810788128,0.0803234912642097,-0.987075608453498
1580417325.89506,0.0183108262760356,0.0827649347676811,-0.988052185854887
1580417325.89906,0.0202639810788128,0.0847180895704582,-0.985610742351415
1580417325.90305,0.0217288471808956,0.0866712443732354,-0.991470206759747
1580417325.90704,0.0222171358815899,0.0856946669718468,-0.983657587548638
1580417325.91104,0.0222171358815899,0.080811779964904,-0.987563897154192
1580417325.91503,0.0231937132829785,0.0822766460669868,-0.98609903105211
1580417325.91902,0.0217288471808956,0.0827649347676811,-0.990981918059052
1580417325.92302,0.0207522697795071,0.0832532234683754,-0.986587319752804
1580417325.92701,0.0212405584802013,0.080811779964904,-0.991958495460441
1580417325.93101,0.0183108262760356,0.0822766460669868,-0.992446784161135
1580417325.935,0.0197756923781185,0.0822766460669868,-0.99635309376669
1580417325.93899,0.0173342488746471,0.0852063782711525,-0.99635309376669
1580417325.94299,0.0236820019836728,0.0925307087815668,-0.995376516365301
1580417325.94698,0.0183108262760356,0.0832532234683754,-0.994399938963912
1580417325.95098,0.0134279392690928,0.0832532234683754,-0.995864805065995
1580417325.95499,0.0163576714732585,0.0827649347676811,-0.991958495460441
1580417325.95898,0.0183108262760356,0.0832532234683754,-0.987563897154192
1580417325.96297,0.0178225375753414,0.080811779964904,-0.988540474555581
1580417325.96697,0.0183108262760356,0.0817883573662925,-0.98951705195697
1580417325.97096,0.0178225375753414,0.0813000686655982,-0.985610742351415
1580417325.97496,0.0173342488746471,0.0803234912642097,-0.986587319752804
1580417325.97895,0.0168459601739528,0.0798352025635154,-0.98609903105211
1580417325.98294,0.0207522697795071,0.0837415121690697,-0.985610742351415
1580417325.98694,0.0148928053711757,0.0822766460669868,-0.98609903105211
1580417325.99093,0.0183108262760356,0.0832532234683754,-0.984145876249332
1580417325.99493,0.0178225375753414,0.080811779964904,-0.985122453650721
1580417325.99892,0.0187991149767299,0.0842298008697639,-0.983169298847944
1580417326.00291,0.0187991149767299,0.0817883573662925,-0.985610742351415
1580417326.00691,0.0202639810788128,0.080811779964904,-0.988540474555581
1580417326.0109,0.0236820019836728,0.0832532234683754,-0.989028763256275
1580417326.0149,0.0197756923781185,0.0891126878767068,-0.985610742351415
1580417326.01889,0.0187991149767299,0.0817883573662925,-0.990981918059052
1580417326.02288,0.0163576714732585,0.0759288929579611,-0.987563897154192
1580417326.02688,0.0168459601739528,0.0837415121690697,-0.985122453650721
1580417326.03087,0.0148928053711757,0.0798352025635154,-0.986587319752804
1580417326.03485,0.0148928053711757,0.0803234912642097,-0.991470206759747
1580417326.03884,0.0251468680857556,0.080811779964904,-0.986587319752804
1580417326.04284,0.0246585793850613,0.0803234912642097,-0.990005340657664
1580417326.04683,0.0227054245822842,0.077393759060044,-0.99635309376669
1580417326.05083,0.0153810940718699,0.0749523155565726,-0.997817959868772
1580417326.05482,0.0163576714732585,0.0817883573662925,-0.988540474555581
1580417326.05882,0.0139162279697871,0.080811779964904,-0.990005340657664
1580417326.06281,0.0187991149767299,0.0769054703593497,-0.992446784161135
1580417326.0668,0.0158693827725642,0.077393759060044,-0.993423361562524
1580417326.0708,0.0227054245822842,0.0827649347676811,-0.993423361562524
1580417326.07479,0.0212405584802013,0.0813000686655982,-0.994399938963912
1580417326.07878,0.0158693827725642,0.0817883573662925,-0.99635309376669
1580417326.08278,0.0178225375753414,0.0813000686655982,-0.990981918059052
1580417326.08677,0.0129396505683985,0.0837415121690697,-0.993911650263218
1580417326.09077,0.0168459601739528,0.0856946669718468,-0.996841382467384
1580417326.09476,0.0212405584802013,0.0817883573662925,-0.986587319752804
1580417326.09875,0.0187991149767299,0.0832532234683754,-0.987563897154192
1580417326.10275,0.0173342488746471,0.0798352025635154,-0.98609903105211
1580417326.10674,0.0197756923781185,0.0817883573662925,-0.983657587548638
1580417326.11074,0.0163576714732585,0.0817883573662925,-0.982192721446555
1580417326.11475,0.0178225375753414,0.0822766460669868,-0.980239566643778
1580417326.11874,0.0192874036774242,0.0817883573662925,-0.983169298847944
1580417326.12273,0.0178225375753414,0.0813000686655982,-0.982192721446555
1580417326.12673,0.0212405584802013,0.0832532234683754,-0.988052185854887
1580417326.13072,0.0183108262760356,0.0832532234683754,-0.988540474555581
1580417326.13472,0.0187991149767299,0.0822766460669868,-0.985610742351415
1580417326.13871,0.0187991149767299,0.080811779964904,-0.990493629358358
1580417326.1427,0.0197756923781185,0.0803234912642097,-0.98951705195697
1580417326.1467,0.0212405584802013,0.0837415121690697,-0.990981918059052
1580417326.15069,0.0222171358815899,0.0822766460669868,-0.989028763256275
1580417326.15469,0.0207522697795071,0.0842298008697639,-0.990005340657664
1580417326.15868,0.0183108262760356,0.0822766460669868,-0.992446784161135
1580417326.16267,0.0173342488746471,0.0822766460669868,-0.990493629358358
1580417326.16667,0.0144045166704814,0.0832532234683754,-0.990981918059052
1580417326.17066,0.0173342488746471,0.0832532234683754,-0.990005340657664
1580417326.17466,0.0168459601739528,0.0861829556725411,-0.993423361562524
1580417326.17865,0.0202639810788128,0.0832532234683754,-0.991958495460441
1580417326.18264,0.0187991149767299,0.0827649347676811,-0.991470206759747
1580417326.18664,0.0144045166704814,0.0822766460669868,-0.990493629358358
1580417326.19063,0.0158693827725642,0.0837415121690697,-0.992446784161135
1580417326.19461,0.0173342488746471,0.0881361104753182,-0.990981918059052
1580417326.1986,0.0144045166704814,0.0856946669718468,-0.987563897154192
1580417326.2026,0.0168459601739528,0.0817883573662925,-0.990005340657664
1580417326.20659,0.0197756923781185,0.0852063782711525,-0.993423361562524
1580417326.21059,0.0192874036774242,0.0827649347676811,-0.989028763256275
1580417326.21458,0.027588311589227,0.0959487296864268,-0.99293507286183
1580417326.21857,0.0212405584802013,0.0598153658350498,-0.973891813534753
1580417326.22257,-0.0129396505683985,0.0793469138628211,-0.991958495460441
1580417326.22656,0.00903334096284425,0.0866712443732354,-0.987563897154192
1580417326.23056,0.0207522697795071,0.0881361104753182,-0.98951705195697
1580417326.23455,0.0227054245822842,0.0827649347676811,-0.97926298924239
1580417326.23854,0.0173342488746471,0.0822766460669868,-0.97926298924239
1580417326.24254,0.0153810940718699,0.0817883573662925,-0.987563897154192
1580417326.24653,0.0217288471808956,0.0886243991760125,-0.992446784161135
1580417326.25053,0.0134279392690928,0.0788586251621268,-0.984145876249332
1580417326.25452,0.0134279392690928,0.0793469138628211,-0.983169298847944
1580417326.25851,0.0158693827725642,0.080811779964904,-0.987075608453498
1580417326.26251,0.0153810940718699,0.0827649347676811,-0.993911650263218
1580417326.2665,0.0202639810788128,0.0827649347676811,-0.990005340657664
1580417326.2705,0.0192874036774242,0.0842298008697639,-0.99635309376669
1580417326.2745,0.0192874036774242,0.0803234912642097,-0.997817959868772
1580417326.2785,0.0183108262760356,0.0803234912642097,-0.995376516365301
1580417326.28249,0.0168459601739528,0.0842298008697639,-0.989028763256275
1580417326.28649,0.0144045166704814,0.0822766460669868,-0.984634164950027
1580417326.29048,0.0187991149767299,0.0798352025635154,-0.993423361562524
1580417326.29447,0.0202639810788128,0.080811779964904,-0.990981918059052
1580417326.29847,0.0187991149767299,0.0793469138628211,-0.98951705195697
1580417326.30246,0.0163576714732585,0.080811779964904,-0.985122453650721
1580417326.30646,0.0129396505683985,0.0856946669718468,-0.993423361562524
1580417326.31045,0.0158693827725642,0.0852063782711525,-0.991958495460441
1580417326.31445,0.0202639810788128,0.080811779964904,-0.984145876249332
1580417326.31844,0.0192874036774242,0.0798352025635154,-0.983657587548638
1580417326.32243,0.0202639810788128,0.0832532234683754,-0.98951705195697
1580417326.32643,0.0139162279697871,0.0847180895704582,-0.984634164950027
1580417326.33042,0.01196307316701,0.077393759060044,-0.987563897154192
1580417326.33441,0.0163576714732585,0.0803234912642097,-0.985122453650721
1580417326.33841,0.0168459601739528,0.080811779964904,-0.987075608453498
1580417326.3424,0.0129396505683985,0.0822766460669868,-0.985122453650721
1580417326.3464,0.0183108262760356,0.0803234912642097,-0.990981918059052
1580417326.35039,0.0144045166704814,0.0817883573662925,-0.985610742351415
1580417326.35437,0.0153810940718699,0.0822766460669868,-0.98609903105211
1580417326.35836,0.0187991149767299,0.0817883573662925,-0.98951705195697
1580417326.36236,0.0183108262760356,0.0827649347676811,-0.98609903105211
1580417326.36635,0.0139162279697871,0.0822766460669868,-0.987075608453498
1580417326.37035,0.0168459601739528,0.0793469138628211,-0.989028763256275
1580417326.37434,0.0192874036774242,0.077393759060044,-0.987075608453498
1580417326.37833,0.0173342488746471,0.0842298008697639,-0.988052185854887
1580417326.38233,0.0153810940718699,0.0832532234683754,-0.991958495460441
1580417326.38632,0.0178225375753414,0.0832532234683754,-0.990981918059052
1580417326.39032,0.0158693827725642,0.0822766460669868,-0.98951705195697
1580417326.39431,0.0158693827725642,0.080811779964904,-0.997817959868772
1580417326.3983,0.0192874036774242,0.0783703364614325,-0.992446784161135
1580417326.4023,0.0163576714732585,0.0861829556725411,-0.991470206759747
1580417326.40629,0.0183108262760356,0.0832532234683754,-0.993423361562524
1580417326.41029,0.0153810940718699,0.0827649347676811,-0.988052185854887
1580417326.41428,0.0202639810788128,0.0793469138628211,-0.988540474555581
1580417326.41827,0.0148928053711757,0.0852063782711525,-0.992446784161135
1580417326.42227,0.0139162279697871,0.0852063782711525,-0.991958495460441
1580417326.42626,0.0144045166704814,0.0832532234683754,-0.990005340657664
1580417326.43026,0.0124513618677042,0.0793469138628211,-0.989028763256275
1580417326.43426,0.0212405584802013,0.0822766460669868,-0.987563897154192
1580417326.43826,0.0197756923781185,0.0852063782711525,-0.984634164950027
1580417326.44225,0.0178225375753414,0.0822766460669868,-0.988540474555581
1580417326.44625,0.0173342488746471,0.0817883573662925,-0.990005340657664
1580417326.45024,0.0178225375753414,0.0793469138628211,-0.985610742351415
1580417326.45423,0.0192874036774242,0.0803234912642097,-0.990493629358358
1580417326.45823,0.0202639810788128,0.0813000686655982,-0.988052185854887
1580417326.46222,0.0187991149767299,0.0817883573662925,-0.989028763256275
1580417326.46622,0.0202639810788128,0.0827649347676811,-0.987075608453498
1580417326.47021,0.0207522697795071,0.0832532234683754,-0.987563897154192
1580417326.47421,0.0173342488746471,0.0803234912642097,-0.987563897154192
1580417326.4782,0.0168459601739528,0.0837415121690697,-0.990493629358358
1580417326.48219,0.0148928053711757,0.0842298008697639,-0.991470206759747
1580417326.48619,0.0153810940718699,0.0827649347676811,-0.992446784161135
1580417326.49018,0.0168459601739528,0.080811779964904,-0.990005340657664
1580417326.49417,0.0153810940718699,0.0817883573662925,-0.988540474555581
1580417326.49817,0.0183108262760356,0.080811779964904,-0.986587319752804
1580417326.50216,0.0173342488746471,0.0827649347676811,-0.987563897154192
1580417326.50616,0.0158693827725642,0.0852063782711525,-0.98609903105211
1580417326.51015,0.0178225375753414,0.0832532234683754,-0.98951705195697
1580417326.51413,0.0202639810788128,0.080811779964904,-0.987563897154192
1580417326.51812,0.0168459601739528,0.0852063782711525,-0.985610742351415
1580417326.52212,0.0183108262760356,0.0847180895704582,-0.990493629358358
1580417326.52611,0.0183108262760356,0.0861829556725411,-0.993423361562524
1580417326.5301,0.0178225375753414,0.0817883573662925,-0.990493629358358
1580417326.5341,0.0192874036774242,0.0827649347676811,-0.987075608453498
1580417326.53809,0.0168459601739528,0.0842298008697639,-0.988540474555581
1580417326.54209,0.0192874036774242,0.0832532234683754,-0.993911650263218
1580417326.54608,0.0168459601739528,0.0861829556725411,-0.992446784161135
1580417326.55007,0.0192874036774242,0.0866712443732354,-0.986587319752804
1580417326.55407,0.0158693827725642,0.0822766460669868,-0.985610742351415
1580417326.55806,0.0163576714732585,0.0817883573662925,-0.98268101014725
1580417326.56206,0.0192874036774242,0.0813000686655982,-0.984634164950027
1580417326.56605,0.0187991149767299,0.0817883573662925,-0.991470206759747
1580417326.57004,0.0183108262760356,0.080811779964904,-0.990493629358358
1580417326.57404,0.0178225375753414,0.0798352025635154,-0.984634164950027
1580417326.57803,0.0163576714732585,0.0847180895704582,-0.98951705195697
1580417326.58203,0.0173342488746471,0.0832532234683754,-0.991470206759747
1580417326.58602,0.0212405584802013,0.0817883573662925,-0.995376516365301
1580417326.59001,0.0183108262760356,0.0842298008697639,-0.988540474555581
1580417326.59402,0.0168459601739528,0.080811779964904,-0.991470206759747
1580417326.59802,0.0168459601739528,0.0827649347676811,-0.992446784161135
1580417326.60201,0.0144045166704814,0.080811779964904,-0.990981918059052
1580417326.60601,0.0178225375753414,0.080811779964904,-0.991958495460441
1580417326.61,0.0178225375753414,0.0817883573662925,-0.99635309376669
1580417326.61399,0.0173342488746471,0.0793469138628211,-0.989028763256275
1580417326.61799,0.0163576714732585,0.0813000686655982,-0.98951705195697
1580417326.62198,0.0192874036774242,0.0861829556725411,-0.989028763256275
1580417326.62598,0.0163576714732585,0.0827649347676811,-0.984634164950027
1580417326.62997,0.0168459601739528,0.0827649347676811,-0.981704432745861
1580417326.63396,0.0183108262760356,0.0861829556725411,-0.982192721446555
1580417326.63796,0.0178225375753414,0.0847180895704582,-0.98609903105211
1580417326.64195,0.0134279392690928,0.0827649347676811,-0.987563897154192
1580417326.64595,0.0178225375753414,0.0822766460669868,-0.98609903105211
1580417326.64994,0.0153810940718699,0.080811779964904,-0.98609903105211
1580417326.65393,0.0153810940718699,0.0842298008697639,-0.987075608453498
1580417326.65793,0.0178225375753414,0.0827649347676811,-0.98609903105211
1580417326.66192,0.0183108262760356,0.0842298008697639,-0.990493629358358
1580417326.66592,0.0153810940718699,0.0837415121690697,-0.989028763256275
1580417326.66991,0.0153810940718699,0.0847180895704582,-0.991958495460441
1580417326.67389,0.0148928053711757,0.0837415121690697,-0.990493629358358
1580417326.67788,0.0144045166704814,0.0856946669718468,-0.98951705195697
1580417326.68188,0.0158693827725642,0.0803234912642097,-0.99293507286183
1580417326.68587,0.0168459601739528,0.0813000686655982,-0.991470206759747
1580417326.68986,0.0163576714732585,0.0822766460669868,-0.991958495460441
1580417326.69386,0.0168459601739528,0.0837415121690697,-0.992446784161135
1580417326.69785,0.0163576714732585,0.0832532234683754,-0.988052185854887
1580417326.70185,0.0168459601739528,0.0832532234683754,-0.989028763256275
1580417326.70584,0.0173342488746471,0.080811779964904,-0.987563897154192
1580417326.70983,0.0158693827725642,0.0861829556725411,-0.988540474555581
1580417326.71383,0.0168459601739528,0.0822766460669868,-0.990005340657664
1580417326.71782,0.0187991149767299,0.0852063782711525,-0.990981918059052
1580417326.72182,0.0168459601739528,0.0847180895704582,-0.991470206759747
1580417326.72581,0.0153810940718699,0.0817883573662925,-0.993911650263218
1580417326.7298,0.0153810940718699,0.0842298008697639,-0.987075608453498
1580417326.7338,0.0168459601739528,0.0837415121690697,-0.991958495460441
1580417326.73779,0.0158693827725642,0.0832532234683754,-0.994399938963912
1580417326.74179,0.0168459601739528,0.0847180895704582,-0.987563897154192
1580417326.74578,0.0183108262760356,0.0832532234683754,-0.990005340657664
1580417326.74977,0.0148928053711757,0.0837415121690697,-0.988052185854887
1580417326.75378,0.0173342488746471,0.0847180895704582,-0.98951705195697
1580417326.75778,0.0173342488746471,0.0837415121690697,-0.989028763256275
1580417326.76177,0.0183108262760356,0.0847180895704582,-0.987563897154192
1580417326.76577,0.0168459601739528,0.0832532234683754,-0.984634164950027
1580417326.76976,0.0158693827725642,0.0798352025635154,-0.982192721446555
1580417326.77375,0.0148928053711757,0.0798352025635154,-0.985610742351415
1580417326.77775,0.0163576714732585,0.0817883573662925,-0.991470206759747
1580417326.78174,0.0153810940718699,0.0822766460669868,-0.989028763256275
1580417326.78574,0.0148928053711757,0.0822766460669868,-0.989028763256275
1580417326.78973,0.0158693827725642,0.0817883573662925,-0.991470206759747
1580417326.79372,0.0173342488746471,0.0813000686655982,-0.993423361562524
1580417326.79772,0.0173342488746471,0.0842298008697639,-0.990981918059052
1580417326.80171,0.0168459601739528,0.0852063782711525,-0.993423361562524
1580417326.80571,0.0173342488746471,0.0837415121690697,-0.994399938963912
1580417326.8097,0.0148928053711757,0.0842298008697639,-0.993423361562524
1580417326.81369,0.0163576714732585,0.0827649347676811,-0.99293507286183
1580417326.81769,0.0144045166704814,0.0837415121690697,-0.993911650263218
1580417326.82168,0.0173342488746471,0.0856946669718468,-0.989028763256275
1580417326.82568,0.0178225375753414,0.0832532234683754,-0.988540474555581
1580417326.82967,0.0163576714732585,0.0852063782711525,-0.98609903105211
1580417326.83365,0.0163576714732585,0.0856946669718468,-0.987563897154192
1580417326.83764,0.0168459601739528,0.0871595330739297,-0.981704432745861
1580417326.84164,0.0153810940718699,0.0813000686655982,-0.991470206759747
1580417326.84563,0.0178225375753414,0.0793469138628211,-0.991470206759747
1580417326.84962,0.0173342488746471,0.0852063782711525,-0.990981918059052
1580417326.85362,0.0178225375753414,0.0822766460669868,-0.990005340657664
1580417326.85761,0.0163576714732585,0.0827649347676811,-0.988540474555581
1580417326.86161,0.0148928053711757,0.0837415121690697,-0.987075608453498
1580417326.8656,0.0158693827725642,0.0832532234683754,-0.990005340657664
1580417326.86959,0.0139162279697871,0.0871595330739297,-0.990493629358358
1580417326.87359,0.0153810940718699,0.0832532234683754,-0.992446784161135
1580417326.87758,0.0173342488746471,0.0856946669718468,-0.993423361562524
1580417326.88158,0.0144045166704814,0.0852063782711525,-0.98609903105211
1580417326.88557,0.0173342488746471,0.0817883573662925,-0.989028763256275
1580417326.88956,0.0163576714732585,0.0847180895704582,-0.99635309376669
1580417326.89356,0.0158693827725642,0.0842298008697639,-0.988540474555581
1580417326.89755,0.0183108262760356,0.0822766460669868,-0.98951705195697
1580417326.90155,0.0178225375753414,0.0842298008697639,-0.991470206759747
1580417326.90554,0.0173342488746471,0.0842298008697639,-0.988052185854887
1580417326.90953,0.0158693827725642,0.0842298008697639,-0.987563897154192
1580417326.91354,0.0153810940718699,0.0881361104753182,-0.988540474555581
1580417326.91754,0.0178225375753414,0.0852063782711525,-0.988052185854887
1580417326.92153,0.0153810940718699,0.0881361104753182,-0.98609903105211
1580417326.92552,0.0144045166704814,0.0876478217746239,-0.987563897154192
1580417326.92952,0.0144045166704814,0.0891126878767068,-0.994399938963912
1580417326.93351,0.0148928053711757,0.0876478217746239,-0.992446784161135
1580417326.93751,0.0163576714732585,0.0856946669718468,-0.987563897154192
1580417326.9415,0.0153810940718699,0.0856946669718468,-0.989028763256275
1580417326.94549,0.0153810940718699,0.0837415121690697,-0.986587319752804
1580417326.94949,0.0109864957656214,0.0852063782711525,-0.987563897154192
1580417326.95348,0.0168459601739528,0.0832532234683754,-0.985122453650721
1580417326.95748,0.0153810940718699,0.0832532234683754,-0.983657587548638
1580417326.96147,0.0168459601739528,0.0837415121690697,-0.988052185854887
1580417326.96546,0.0153810940718699,0.0827649347676811,-0.988052185854887
1580417326.96946,0.0153810940718699,0.0822766460669868,-0.990493629358358
1580417326.97345,0.0173342488746471,0.0817883573662925,-0.984634164950027
1580417326.97745,0.0153810940718699,0.0837415121690697,-0.986587319752804
1580417326.98144,0.0187991149767299,0.0813000686655982,-0.988052185854887
1580417326.98544,0.0168459601739528,0.0842298008697639,-0.987075608453498
1580417326.98943,0.0134279392690928,0.0856946669718468,-0.988052185854887
1580417326.99341,0.0148928053711757,0.0852063782711525,-0.996841382467384
1580417326.9974,0.0163576714732585,0.0856946669718468,-0.993911650263218
1580417327.0014,0.0158693827725642,0.0842298008697639,-0.99635309376669
1580417327.00539,0.0153810940718699,0.0847180895704582,-0.99293507286183
1580417327.00938,0.0139162279697871,0.0861829556725411,-0.988540474555581
1580417327.01338,0.01196307316701,0.0871595330739297,-0.990981918059052
1580417327.01737,0.0124513618677042,0.0871595330739297,-0.989028763256275
1580417327.02137,0.0139162279697871,0.0896009765774011,-0.98268101014725
1580417327.02536,0.0158693827725642,0.0856946669718468,-0.987075608453498
1580417327.02935,0.0134279392690928,0.0861829556725411,-0.984145876249332
1580417327.03335,0.0168459601739528,0.0852063782711525,-0.988540474555581
1580417327.03734,0.0178225375753414,0.0876478217746239,-0.98951705195697
1580417327.04134,0.0153810940718699,0.0886243991760125,-0.990005340657664
1580417327.04533,0.0148928053711757,0.0871595330739297,-0.989028763256275
