Timestamp_seconds,Accel_X_g,Accel_Y_g,Accel_Z_g
1580420491.28635,-0.90406652933547,-0.063721675440604,0.437750820172425
1580420491.31832,-0.901136797131304,-0.0813000686655982,0.443121995880063
1580420491.35028,-0.90748455024033,-0.070557717250324,0.436774242771037
1580420491.38225,-0.918715190356298,-0.0534676127260241,0.440680552376591
1580420491.41422,-0.918715190356298,-0.0588387884336612,0.42456702525368
1580420491.44619,-0.919691767757687,-0.0578622110322726,0.431891355764094
1580420491.47815,-0.927504386968796,-0.0700694285496297,0.413336385137711
1580420491.51012,-0.925062943465324,-0.0813000686655982,0.411383230334934
1580420491.54209,-0.926527809567407,-0.0715342946517126,0.421637293049514
1580420491.57406,-0.922133211261158,-0.0456549935149155,0.407965209430074
1580420491.60602,-0.922621499961853,-0.0495613031204698,0.428961623559928
1580420491.63799,-0.911879148546578,-0.0764171816586554,0.420660715648125
1580420491.66996,-0.907972838941024,-0.0612802319371326,0.433844510566871
1580420491.70193,-0.90064850843061,-0.0612802319371326,0.436774242771037
1580420491.7339,-0.913344014648661,-0.0700694285496297,0.436285954070343
1580420491.76586,-0.908461127641718,-0.0749523155565726,0.427008468757151
1580420491.79783,-0.903578240634776,-0.0656748302433812,0.432379644464788
1580420491.8298,-0.919203479056993,-0.0554207675288012,0.447028305485617
1580420491.86177,-0.915297169451438,-0.0896009765774011,0.440680552376591
1580420491.89373,-0.908461127641718,-0.0861829556725411,0.422125581750208
1580420491.9257,-0.912855725947967,-0.0700694285496297,0.416266117341877
1580420491.95767,-0.928480964370184,-0.0646982528419926,0.422125581750208
1580420491.98964,-0.921644922560464,-0.0744640268558783,0.419684138246737
1580420492.02161,-0.906996261539636,-0.0827649347676811,0.41089494163424
1580420492.05357,-0.912855725947967,-0.073975738155184,0.406500343327991
1580420492.08554,-0.925551232166018,-0.0837415121690697,0.408941786831463
1580420492.11751,-0.916762035553521,-0.0729991607537954,0.412359807736323
1580420492.14947,-0.92457465476463,-0.0607919432364383,0.411871519035628
1580420492.18144,-0.922133211261158,-0.0729991607537954,0.423102159151597
1580420492.21341,-0.926039520866713,-0.0852063782711525,0.405523765926603
1580420492.24538,-0.911390859845884,-0.0832532234683754,0.403570611123826
1580420492.27735,-0.918715190356298,-0.0852063782711525,0.415289539940488
1580420492.30931,-0.912855725947967,-0.0749523155565726,0.425055313954374
1580420492.34128,-0.919691767757687,-0.0939955748836496,0.411383230334934
1580420492.37329,-0.912855725947967,-0.0856946669718468,0.406500343327991
1580420492.40526,-0.923598077363241,-0.0856946669718468,0.430426489662011
1580420492.43723,-0.912367437247273,-0.0944838635843439,0.412848096437017
1580420492.46919,-0.912367437247273,-0.099855039291981,0.413824673838405
1580420492.50116,-0.923598077363241,-0.0725108720531011,0.413336385137711
1580420492.53313,-0.913832303349356,-0.100343327992675,0.421637293049514
1580420492.5651,-0.919203479056993,-0.10083161669337,0.427496757457845
1580420492.59707,-0.923109788662547,-0.0881361104753182,0.399664301518271
1580420492.62904,-0.908461127641718,-0.0939955748836496,0.412848096437017
1580420492.661,-0.917250324254216,-0.103273060196841,0.40747692072938
1580420492.69297,-0.921644922560464,-0.104737926298924,0.406988632028686
1580420492.72494,-0.92457465476463,-0.0896009765774011,0.399176012817577
1580420492.75691,-0.93141069657435,-0.0876478217746239,0.38696879530022
1580420492.78888,-0.935317006179904,-0.0954604409857325,0.409918364232851
1580420492.82084,-0.925551232166018,-0.103761348897535,0.394781414511328
1580420492.85281,-0.92457465476463,-0.0817883573662925,0.400152590218966
1580420492.88478,-0.922621499961853,-0.0896009765774011,0.418219272144654
1580420492.91675,-0.92799267566949,-0.0974135957885096,0.40405889982452
1580420492.94872,-0.933363851377127,-0.103761348897535,0.412848096437017
1580420492.98068,-0.912855725947967,-0.0939955748836496,0.423102159151597
1580420493.01265,-0.912367437247273,-0.0847180895704582,0.433844510566871
1580420493.04462,-0.901625085831999,-0.0793469138628211,0.442145418478674
1580420493.07659,-0.913344014648661,-0.0935072861829553,0.433356221866177
1580420493.10856,-0.929457541771573,-0.0852063782711525,0.42456702525368
1580420493.14052,-0.940199893186847,-0.037842374303807,0.428961623559928
1580420493.17249,-0.96559090562295,-0.0627450980392155,0.42798504615854
1580420493.20446,-0.95533684290837,-0.070557717250324,0.43482108796826
1580420493.23643,-0.983169298847944,-0.0124513618677042,0.420660715648125
1580420493.2684,-0.957778286411841,-0.0178225375753414,0.409430075532157
1580420493.30037,-0.925551232166018,-0.0856946669718468,0.403570611123826
1580420493.33233,-0.93482871747921,-0.106202792401007,0.42114900434882
1580420493.3643,-0.944594491493095,-0.024170290684367,0.418219272144654
1580420493.39627,-0.90406652933547,-0.147219043259327,0.383062485694666
1580420493.42824,-0.871839475089647,-0.225833524071106,0.405035477225908
1580420493.46021,-0.903578240634776,-0.067139696345464,0.408941786831463
1580420493.49217,-0.90748455024033,0.0187991149767299,0.442145418478674
1580420493.52414,-0.920668345159076,-0.00170901045242999,0.4314030670634
1580420493.55611,-0.910414282444496,-0.0290531776913099,0.454352635996031
1580420493.58808,-0.900160219729916,-0.0749523155565726,0.44507515068284
1580420493.62005,-0.908461127641718,-0.0681162737468526,0.425543602655068
1580420493.6521,-0.905531395437553,-0.0285648889906156,0.413336385137711
1580420493.68407,-0.896742198825056,-0.0456549935149155,0.40405889982452
1580420493.71603,-0.890882734416724,-0.0925307087815668,0.413336385137711
1580420493.748,-0.909437705043107,-0.119386587319752,0.401617456321048
1580420493.77997,-0.899183642328527,-0.0896009765774011,0.424078736552985
1580420493.81194,-0.913832303349356,-0.0427252613107498,0.40064087891966
1580420493.84391,-0.914808880750744,-0.0612802319371326,0.409430075532157
1580420493.87588,-0.92457465476463,-0.0905775539787896,0.426520180056457
1580420493.90784,-0.927504386968796,-0.0915541313801782,0.43823910887312
1580420493.93981,-0.915785458152133,-0.0651865415426869,0.433844510566871
1580420493.97178,-0.937270160982681,-0.0319829098954756,0.420172426947431
1580420494.00375,-0.927016098268101,-0.0407721065079727,0.422613870450903
1580420494.03572,-0.911390859845884,-0.077393759060044,0.437750820172425
1580420494.06768,-0.913344014648661,-0.0563973449301898,0.458258945601585
1580420494.09965,-0.92457465476463,-0.0837415121690697,0.447028305485617
1580420494.13162,-0.92799267566949,-0.0813000686655982,0.418707560845348
1580420494.16359,-0.924086366063936,-0.0505378805218584,0.387457084000914
1580420494.19556,-0.93141069657435,-0.0393072404058898,0.382574196993971
1580420494.22752,-0.940688181887541,-0.067139696345464,0.362554360265506
1580420494.25949,-0.93482871747921,-0.0700694285496297,0.3630426489662
1580420494.29146,-0.93824673838407,-0.0510261692225527,0.345464255741206
1580420494.32343,-0.947035934996567,-0.044678416113527,0.32202639810788
1580420494.3554,-0.946059357595178,-0.0568856336308841,0.31860837720302
1580420494.38737,-0.941176470588236,-0.0388189517051956,0.309819180590523
1580420494.41933,-0.968520637827115,-0.0305180437933927,0.283939879453726
1580420494.4513,-1.00074769207294,0.00512703135728998,0.228274967574578
1580420494.48327,-1.00856031128405,-0.0114747844663157,0.211673151750972
1580420494.51524,-1.00270084687572,-0.0402838178072784,0.195559624628061
1580420494.54721,-0.997329671168078,-0.0178225375753414,0.118898298619058
1580420494.57917,-1.02369726100557,-0.0134279392690928,0.0827649347676811
1580420494.61114,-1.05152971694514,-0.0612802319371326,0.10424963759823
1580420494.64311,-1.15260547798886,-0.00219729915312428,0.00122072175173571
1580420494.67508,-1.17116044861524,0.060303654535744,0.0046387426565957
1580420494.70705,-1.19020370794232,0.123781185626001,0.0153810940718699
1580420494.73901,-1.2175478751812,0.150148775463492,0.00122072175173571
1580420494.77098,-1.21120012207217,0.0993667505912867,0.0124513618677042
1580420494.80295,-1.21559472037842,0.0686045624475469,-0.0139162279697871
1580420494.83492,-1.24147402151522,0.115480277714198,-0.0778820477607383
1580420494.86689,-1.14723430228122,0.0837415121690697,-0.0300297550926985
1580420494.89886,-1.08570992599374,0.031006332494087,-0.0578622110322726
1580420494.93085,-1.11793698023957,0.0515144579232469,-0.164797436484321
1580420494.96282,-0.963637750820173,-0.00659189745937283,-0.112550545510032
1580420494.99478,-0.860120546272984,-0.0114747844663157,-0.0935072861829553
1580420495.02675,-0.815686274509805,-0.0251468680857556,-0.0676279850461583
1580420495.05872,-0.802014190890365,-0.0847180895704582,0.0520027466239412
1580420495.09069,-0.755626764324408,-0.0598153658350498,0.140383001449607
1580420495.12265,-0.74586099031052,-0.0227054245822842,0.23315785458152
1580420495.15462,-0.751720454718853,0.0598153658350498,0.3288624399176
1580420495.18659,-0.874280918593119,0.123781185626001,0.316166933699549
1580420495.21856,-0.921644922560464,-0.00122072175173571,0.282963302052337
1580420495.25053,-1.01197833218891,-0.0583504997329669,0.151613641565575
1580420495.2825,-1.09108110170138,-0.027588311589227,0.00708018616006711
1580420495.31446,-1.18727397573815,0.0676279850461583,-0.0109864957656214
1580420495.34643,-1.21217669947356,0.0866712443732354,0.0485847257190812
1580420495.3784,-1.21412985427634,0.00268558785381856,0.140383001449607
1580420495.41037,-1.3459678034638,-0.0207522697795071,-0.0197756923781185
1580420495.44234,-1.26735332265202,-0.0539559014267184,0.0842298008697639
1580420495.4743,-1.3459678034638,0.044678416113527,0.115968566414892
1580420495.50627,-1.28200198367285,0.187258716716258,0.101808194094758
1580420495.53824,-1.26393530174716,0.105714503700312,0.0529793240253298
1580420495.57021,-1.04078736552987,-0.0749523155565726,0.228274967574578
1580420495.60218,-1.08326848249027,-0.0686045624475469,0.249271381704432
1580420495.63415,-1.18825055313954,0.0900892652780954,0.0642099641412983
1580420495.66611,-1.03199816891737,0.0993667505912867,0.109132524605172
1580420495.69808,-1.0124666208896,0.0290531776913099,0.0734874494544897
1580420495.73005,-1.01588464179446,0.0290531776913099,0.0437018387121384
1580420495.76202,-1.10133516441596,0.0461432822156098,0.0393072404058898
1580420495.79399,-1.08668650339513,0.128175783932249,0.01196307316701
1580420495.82595,-1.08424505989166,0.128175783932249,0.0642099641412983
1580420495.85792,-1.09010452429999,0.060303654535744,0.0124513618677042
1580420495.88989,-1.11940184634165,-0.01196307316701,0.0368657969024184
1580420495.92186,-1.16090638590066,-0.00952162966353853,0.0715342946517126
1580420495.95383,-1.28102540627146,0.0202639810788128,0.0554207675288012
1580420495.9858,-1.31569390402075,0.0266117341878385,0.128175783932249
1580420496.01776,-1.3796597238117,0.0168459601739528,0.153078507667658
1580420496.04973,-1.36403448538949,0.0559090562294955,0.159426260776684
1580420496.0817,-1.2946974898909,0.0559090562294955,0.155031662470435
1580420496.11367,-1.21315327687495,-0.0788586251621268,0.214114595254443
1580420496.14563,-1.21412985427634,-0.139406424048218,0.27417410543984
1580420496.1776,-1.09156939040207,0.00415045395590141,0.195559624628061
1580420496.20966,-0.959243152513924,-0.00170901045242999,0.205813687342641
1580420496.24162,-0.894789044022279,-0.0476081483176927,0.25024795910582
1580420496.27359,-0.826428625925079,-0.034424353398947,0.237552452887769
1580420496.30556,-0.789318684672313,-0.128175783932249,0.319584954604409
1580420496.33753,-0.727306019684137,-0.142824444953078,0.204837109941252
1580420496.3695,-0.76392767223621,-0.0817883573662925,0.275150682841229
1580420496.40146,-0.881116960402839,0.0329594872968642,0.146242465857938
1580420496.43343,-0.977798123140307,0.0817883573662925,0.0183108262760356
1580420496.4654,-1.16090638590066,0.282963302052337,-0.12475776302739
1580420496.49737,-1.09547570000763,0.547127489127949,-0.395757991912719
1580420496.52934,-0.754161898222325,0.347417410543983,-0.167238879987792
1580420496.56131,-1.05836575875486,0.144289311055161,-0.576424811169604
1580420496.59327,-1.23121995880064,0.237552452887769,-0.690684367132066
1580420496.62524,-1.13112077515831,0.484138246738382,-0.622812237735561
1580420496.65721,-1.17262531471733,0.728770885786222,-0.566170748455024
1580420496.68918,-1.27370107576104,0.770275425345236,-0.431403067063401
1580420496.72114,-1.15651178759441,0.292729076066223,-0.263920042725262
1580420496.75311,-0.995864805065995,-0.00122072175173571,-0.433844510566873
1580420496.78508,-1.03053330281529,0.0681162737468526,-0.469489585717556
1580420496.81705,-0.993911650263218,0.115968566414892,-0.349370565346762
1580420496.84902,-0.851331349660487,0.0700694285496297,-0.325444419012742
1580420496.88099,-0.81519798580911,-0.0153810940718699,-0.226810101472495
1580420496.91295,-0.778576333257039,-0.269291218432899,-0.119386587319752
1580420496.94492,-0.614999618524452,-0.412359807736324,0.106691081101701
1580420496.97689,-0.774670023651485,0.138918135347524,0.0402838178072784
1580420497.00886,-0.713633936064697,0.279056992446783,0.146730754558632
1580420497.04083,-0.708751049057755,-0.0661631189440754,0.114991989013504
1580420497.07279,-0.815686274509805,-0.0256351567864499,0.0441901274128327
1580420497.10476,-0.881605249103533,-0.0935072861829553,-0.0178225375753414
1580420497.13673,-0.912855725947967,-0.0373540856031127,-0.0227054245822842
1580420497.1687,-1.01588464179446,0.0817883573662925,-0.0231937132829785
1580420497.20067,-1.2004577706569,0.12475776302739,-0.0212405584802013
1580420497.23264,-1.23707942320897,0.171145189593346,0.041260395208667
1580420497.2646,-1.39382009613184,0.257572289616235,0.0500495918211641
1580420497.29657,-1.3288776989395,0.187258716716258,0.0593270771343555
1580420497.32854,-1.33131914244297,0.270267795834286,0.037842374303807
1580420497.36051,-1.3889372091249,0.439215686274508,-0.0471198596169984
1580420497.39248,-1.17311360341802,0.357183184557869,0.044678416113527
1580420497.42444,-1.08863965819791,-0.0690928511482412,0.0803234912642097
1580420497.45641,-1.0471351186389,-0.438727397573816,0.126710917830167
1580420497.48843,-1.16139467460136,-0.119386587319752,0.0700694285496297
1580420497.5204,-1.1237964446479,0.384039063096054,0.034424353398947
1580420497.55237,-1.08815136949721,0.420172426947431,0.0695811398489354
1580420497.58434,-1.00172426947433,0.112550545510032,0.223880369268329
1580420497.61631,-0.969985503929198,-0.00219729915312428,0.220950637064163
1580420497.64828,-0.908461127641718,-0.070557717250324,0.233646143282215
1580420497.68024,-1.00025940337224,0.0681162737468526,0.277103837644006
1580420497.71221,-1.01197833218891,0.198489356832226,0.258060578316929
1580420497.74418,-1.03492790112154,-0.0246585793850613,0.324956130312046
1580420497.77615,-0.977798123140307,-0.0495613031204698,0.329350728618294
1580420497.80812,-0.960708018616007,-0.0778820477607383,0.364995803768977
1580420497.84009,-0.954848554207675,-0.0524910353246355,0.341557946135651
1580420497.87206,-0.965102616922255,-0.0251468680857556,0.396246280613411
1580420497.90402,-0.969497215228504,0.0783703364614325,0.395757991912717
1580420497.93599,-1.01002517738613,0.269779507133592,0.464606698710611
1580420497.96796,-1.02760357061112,0.373785000381474,0.485603112840465
1580420497.99993,-1.03639276722362,0.340093080033569,0.510017547875183
1580420498.0319,-1.13844510566873,0.396734569314106,0.403082322423131
1580420498.06387,-1.15602349889372,0.420172426947431,0.42456702525368
1580420498.09584,-1.19948119325551,0.329350728618294,0.379156176089111
1580420498.1278,-1.11940184634165,0.28784618905928,0.361089494163423
1580420498.15977,-1.16139467460136,0.273197528038452,0.28784618905928
1580420498.19174,-1.17897306782635,0.307377737087052,0.248294804303043
1580420498.22371,-1.11207751583123,0.221438925764858,0.252201113908598
1580420498.25568,-0.986587319752804,0.157961394674601,0.262943465323872
1580420498.28765,-0.894789044022279,0.0476081483176927,0.371343556878003
1580420498.31962,-0.769787136644542,-0.0183108262760356,0.252689402609292
1580420498.35158,-0.82545204852369,-0.135988403143358,0.185793850614175
1580420498.38355,-0.73218890669108,-0.133058670939192,0.287357900358586
1580420498.41552,-0.712169069962615,0.00805676356145568,0.126710917830167
1580420498.44749,-0.717051956969557,-0.171633478294041,0.157961394674601
1580420498.47946,-0.792736705577173,-0.0227054245822842,0.129152361333638
1580420498.51143,-0.824963759822996,0.158449683375295,0.184328984512092
1580420498.5434,-0.857190814068819,0.0676279850461583,0.136964980544747
1580420498.57537,-0.865003433279927,-0.136476691844052,0.272709239337757
1580420498.60733,-1.10377660791943,-0.186282139314869,0.270267795834286
1580420498.6393,-1.0720378423743,0.0930189974822611,0.484626535439077
1580420498.67127,-1.1067063401236,0.166750591287098,0.555916685740446
1580420498.70324,-0.773205157549402,0.377691309987028,0.87672236209659
1580420498.73521,-0.74586099031052,0.62476539253834,0.78101777676051
1580420498.7674,-0.697520408941786,0.617441062027925,0.870374608987564
1580420498.79936,-0.438727397573816,0.605722133211263,0.700450141145954
1580420498.83133,-1.55446707866026,0.0500495918211641,0.332768749523154
1580420498.8633,-1.93435568780041,1.95095750362402,1.34206149385824
1580420498.89527,-1.35085069047074,0.64185549706264,0.423102159151597
1580420498.92724,-0.690196078431372,-1.47829404135195,0.250736247806515
1580420498.95921,-0.812756542305639,-0.634531166552224,0.170656900892652
1580420498.99117,-1.10817120622568,0.819104295414665,0.229739833676661
1580420499.02314,-1.19069199664301,0.282963302052337,0.256595712214846
1580420499.05511,-0.998306248569467,-0.150148775463492,0.486579690241854
1580420499.08708,-0.947524223697261,0.0534676127260241,0.2434119172961
1580420499.11905,-0.758556496528573,-0.321049820706493,0.355230029755091
1580420499.15102,-0.925062943465324,0.0505378805218584,0.436285954070343
1580420499.18299,-1.0300450141146,0.295170519569695,0.460212100404362
1580420499.21495,-0.930434119172961,-0.200930800335698,0.684336614023042
1580420499.24692,-0.863538567177844,-0.583749141680018,0.714610513466088
1580420499.27889,-0.980239566643778,0.464606698710611,0.790295262073702
1580420499.31086,-0.973403524834058,0.330815594720377,0.663340199893188
1580420499.34283,-0.928480964370184,-0.106202792401007,0.702891584649425
1580420499.3748,-0.949965667200733,0.143312733653772,0.650644693675137
1580420499.40677,-0.984634164950027,-0.00512703135728998,0.627695124742505
1580420499.43874,-0.913344014648661,-0.140871290150301,0.677988860914017
1580420499.4707,-0.868909742885482,-0.294682230869002,0.737560082398719
1580420499.50267,-0.730235751888303,-0.229251544975966,0.795178149080645
1580420499.53464,-0.680430304417486,-0.178469520103761,0.94166475928893
1580420499.56661,-0.648203250171663,-0.0520027466239412,0.905043106736859
1580420499.59858,-0.580819409475852,-0.161379415579461,0.882581826504921
1580420499.63055,-0.54859235523003,-0.330327306019685,0.812756542305639
1580420499.66251,-0.578377965972381,-0.291264209964142,0.756115053025102
1580420499.69448,-0.655527580682078,-0.154543373769741,0.643808651865417
1580420499.72645,-0.620370794232089,-0.110597390707255,0.520759899290457
1580420499.75842,-0.594979781795987,-0.0598153658350498,0.406988632028686
1580420499.79039,-0.545662623025864,-0.0158693827725642,0.391363393606468
1580420499.82236,-0.479255359731441,-0.0285648889906156,0.469977874418248
1580420499.85433,-0.475837338826581,-0.171633478294041,0.435797665369648
1580420499.88629,-0.571541924162661,-0.160891126878766,0.493904020752268
1580420499.91826,-0.662363622491798,-0.0251468680857556,0.599862668802931
1580420499.95023,-0.677012283512626,-0.0432135500114441,0.673105973907074
1580420499.9822,-0.764904249637599,-0.201907377737086,0.696055542839705
1580420500.01417,-0.776134889753568,-0.0500495918211641,0.739024948500802
1580420500.04608,-0.886488136110476,0.193606469825284,0.742442969405662
1580420500.07805,-0.87672236209659,-0.0192874036774242,0.837170977340353
1580420500.11002,-0.870862897688259,-0.215091172655832,0.725841153582056
1580420500.14199,-0.83228809033341,-0.187258716716258,0.894789044022279
1580420500.17396,-0.953383688105593,-0.00561532005798426,0.747814145113299
1580420500.20592,-0.801037613488976,-0.177004654001678,1.01588464179446
1580420500.23789,-0.781994354161899,-0.241458762493323,0.826916914625773
1580420500.26986,-0.881605249103533,0.165774013885709,0.85621423666743
1580420500.30183,-1.01149004348821,0.0783703364614325,0.808850232700085
1580420500.3338,-0.622323949034866,-0.800549324788282,0.829358358129245
1580420500.36577,-0.922133211261158,-0.321049820706493,0.682871747920959
1580420500.39774,-0.956313420309758,0.310307469291217,0.625253681239034
1580420500.4297,-0.972915236133364,0.0769054703593497,0.438727397573814
1580420500.46167,-0.886488136110476,-0.0314946211947813,0.53247882810712
1580420500.49364,-0.779064621957733,-0.0788586251621268,0.622323949034868
1580420500.52561,-0.824475471122302,-0.205813687342641,0.458258945601585
1580420500.55758,-0.867933165484093,-0.251712825207905,0.504646372167546
1580420500.58955,-0.847425040054933,-0.307866025787748,0.492439154650185
1580420500.62152,-0.790783550774396,-0.283451590753033,0.537850003814757
1580420500.65348,-0.895277332722973,-0.166262302586404,0.453376058594642
1580420500.68545,-0.882581826504921,-0.0393072404058898,0.578866254673077
1580420500.71742,-0.893324177920196,-0.0925307087815668,0.494880598153657
1580420500.74939,-0.888929579613947,-0.148195620660715,0.721446555275808
1580420500.78136,-0.88697642481117,-0.0134279392690928,0.668223086900131
1580420500.81333,-0.904554818036164,-0.0407721065079727,0.632578011749448
1580420500.8453,-0.930434119172961,0.0769054703593497,0.788342107270925
1580420500.87726,-0.921644922560464,0.0432135500114441,0.79468986037995
1580420500.90923,-0.891371023117419,-0.0900892652780954,0.741954680704968
1580420500.9412,-0.875257495994507,-0.128175783932249,0.875257495994507
1580420500.97317,-0.902113374532693,-0.172121766994735,0.790295262073702
1580420501.00514,-0.890882734416724,-0.260990310521096,0.877698939497979
1580420501.03711,-0.956313420309758,-0.230228122377355,0.799084458686199
1580420501.06908,-0.867933165484093,-0.349370565346762,0.78101777676051
1580420501.10104,-0.758068207827879,-0.455329213397421,0.83570611123827
1580420501.13301,-0.621347371633478,-0.314213778896773,0.844007019150073
1580420501.16498,-0.522224765392538,-0.312748912794691,0.827893492027162
1580420501.19695,-0.403082322423133,-0.261478599221791,0.895765621423667
1580420501.22892,-0.384039063096056,-0.200930800335698,0.846448462653544
1580420501.26089,-0.513923857480735,-0.217044327458609,0.648203250171665
1580420501.29286,-0.566659037155718,-0.171145189593346,0.581795986877243
1580420501.32492,-0.539803158617532,-0.162844281681544,0.492927443350879
1580420501.35689,-0.481696803234913,-0.180910963607232,0.51197070267796
1580420501.38886,-0.458258945601587,-0.0915541313801782,0.436774242771037
1580420501.42083,-0.356694895857176,0.00854505226214997,0.502204928664074
1580420501.4528,-0.275638971541925,-0.0642099641412983,0.555916685740446
1580420501.48477,-0.271732661936371,-0.165285725185015,0.65210955977722
1580420501.51673,-0.368902113374533,-0.139406424048218,0.728282597085528
1580420501.5487,-0.502204928664073,-0.00805676356145568,0.751720454718853
1580420501.58067,-0.587167162584878,-0.116456855115587,0.795178149080645
1580420501.61264,-0.497810330357824,-0.317631799801633,0.727306019684139
1580420501.64461,-0.56568245975433,-0.140383001449607,0.942641336690318
1580420501.67658,-0.764415960936905,-0.00317387655451284,0.858167391470207
1580420501.70855,-0.819104295414665,-0.304448004882888,0.864515144579233
1580420501.74052,-0.719005111772335,-0.229739833676661,0.875257495994507
1580420501.77249,-0.648691538872358,-0.366460669871062,0.876234073395896
1580420501.80446,-0.72535286488136,-0.290287632562753,0.750743877317465
1580420501.83642,-0.748302433813992,-0.194583047226672,0.90064850843061
1580420501.86839,-0.917250324254216,-0.362554360265507,0.726329442282751
1580420501.90036,-0.984634164950027,-0.364507515068285,0.723399710078585
1580420501.93233,-0.952407110704204,-0.212161440451666,0.825940337224385
1580420501.9643,-0.984634164950027,-0.111573968108644,0.677500572213322
1580420501.99627,-0.961684596017395,0.00561532005798426,0.752208743419548
1580420502.02824,-0.860608834973679,-0.123781185626001,0.705821316853591
1580420502.06021,-0.823498893720913,-0.264896620126651,0.655039291981385
1580420502.09218,-0.887953002212559,-0.073975738155184,0.602792401007097
1580420502.12415,-0.926527809567407,-0.112550545510032,0.516853589684903
1580420502.15612,-0.919203479056993,-0.199465934233615,0.533455405508509
1580420502.18808,-0.90406652933547,-0.174563210498206,0.515877012283514
1580420502.22005,-0.875257495994507,-0.176516365300984,0.539803158617534
1580420502.25202,-0.865003433279927,-0.156984817273212,0.482673380636299
1580420502.28399,-0.89381246662089,-0.105714503700312,0.482185091935605
1580420502.31596,-0.863538567177844,-0.110597390707255,0.509529259174489
1580420502.34793,-0.913344014648661,-0.140871290150301,0.440680552376591
1580420502.3799,-0.905531395437553,-0.148195620660715,0.495857175555045
1580420502.41187,-0.87330434119173,-0.187258716716258,0.46216525520714
1580420502.44384,-0.865491721980622,-0.175051499198901,0.476325627527274
1580420502.47581,-0.868909742885482,-0.144777599755855,0.514900434882126
1580420502.50778,-0.802990768291753,-0.165774013885709,0.500740062561992
1580420502.53974,-0.893324177920196,-0.178957808804455,0.595468070496683
1580420502.57171,-0.756115053025102,-0.127687495231555,0.79810788128481
1580420502.6037,-0.819104295414665,-0.257572289616236,0.739513237201496
1580420502.63567,-0.88697642481117,-0.00561532005798426,0.766369115739682
1580420502.66764,-0.935317006179904,-0.041260395208667,0.653086137178608
1580420502.69961,-0.874769207293813,-0.180910963607232,0.581307698176548
1580420502.73158,-0.768810559243153,-0.323491264209965,0.65210955977722
1580420502.76354,-0.688731212329289,-0.454840924696727,0.751720454718853
1580420502.79551,-0.746349279011215,-0.302006561379416,0.776623178454262
1580420502.82748,-0.667734798199435,-0.273685816739148,0.885999847409781
1580420502.85945,-0.685801480125123,0.0246585793850613,1.02320897230488
1580420502.89142,-0.758068207827879,0.0749523155565726,0.919203479056993
1580420502.92339,-0.759533073929962,-0.206301976043335,0.902601663233387
1580420502.95536,-0.774670023651485,-0.274174105439842,0.883070115205616
1580420502.98733,-0.990005340657664,-0.168215457389181,0.858167391470207
1580420503.0193,-1.04908827344167,-0.172610055695429,0.60083924620432
1580420503.05127,-1.05152971694514,0.0197756923781185,0.653086137178608
1580420503.08323,-1.03981078812848,0.391363393606468,0.663340199893188
1580420503.1152,-0.821057450217442,0.509529259174489,0.761974517433433
1580420503.14717,-0.532478828107118,0.30493629358358,0.802990768291753
1580420503.17914,-0.557381551842527,0.358648050659951,0.759533073929962
1580420503.21111,-0.706797894254978,0.510994125276572,0.717051956969559
1580420503.24308,-0.673594262607766,0.436285954070343,0.880628671702144
1580420503.27505,-0.53833829251545,0.238040741588463,0.850843060959793
1580420503.30702,-0.552498664835584,0.144289311055161,0.753185320820936
1580420503.33899,-0.566170748455024,0.167727168688486,0.879652094300756
1580420503.37096,-0.506599526970321,0.264408331425955,0.809826810101473
1580420503.40293,-0.488532845044633,0.355230029755091,0.785900663767453
1580420503.43489,-0.529549095902953,0.166262302586404,0.885511558709087
1580420503.46686,-0.526131074998093,0.00854505226214997,0.840100709544519
1580420503.49883,-0.500251773861295,0.0368657969024184,0.899671931029221
1580420503.5308,-0.42554360265507,-0.0144045166704814,0.817151140611887
1580420503.56277,-0.410406652933547,-0.0236820019836728,0.848889906157016
1580420503.59474,-0.295170519569696,-0.0158693827725642,0.744396124208439
1580420503.62671,-0.267826352330816,-0.0813000686655982,0.803967345693142
1580420503.65868,-0.156984817273212,-0.166750591287098,0.602304112306403
1580420503.69065,-0.265384908827345,0.0124513618677042,0.824475471122302
1580420503.72262,-0.267826352330816,0.00317387655451284,0.798596169985505
1580420503.75459,-0.115968566414892,-0.000732433051041426,0.625253681239034
1580420503.78655,-0.132082093537804,0.0886243991760125,0.695078965438316
1580420503.81852,-0.0803234912642097,0.159426260776684,0.810315098802167
1580420503.85049,-0.194583047226672,0.219485770962081,0.837170977340353
1580420503.88251,-0.281986724650951,0.152590218966964,0.885511558709087
1580420503.91448,-0.212649729152361,0.119386587319752,0.922133211261158
1580420503.94644,-0.389410238803693,-0.0246585793850613,0.985610742351415
1580420503.97841,-0.450446326390479,0.0681162737468526,1.072526131075
1580420504.01038,-0.369390402075227,0.235111009384298,1.05983062485695
1580420504.04235,-0.431891355764096,0.0886243991760125,0.935317006179904
1580420504.07432,-0.626718547341115,-0.152101930266269,1.1403982604715
1580420504.10629,-0.516365300984207,-0.00561532005798426,0.991470206759747
1580420504.13826,-0.524177920195315,0.0490730144197755,0.959731441214618
1580420504.17023,-0.821057450217442,-0.197024490730143,1.21998931868467
1580420504.2022,-0.89723048752575,-0.133058670939192,0.838635843442436
1580420504.23417,-0.780529488059816,-0.267826352330816,0.817151140611887
1580420504.26614,-0.950942244602121,-0.473884184023804,0.946059357595178
1580420504.29811,-1.09010452429999,-0.200442511635003,0.688242923628597
1580420504.33007,-1.0383459220264,-0.077393759060044,0.805432211795225
1580420504.36204,-1.04762340733959,-0.241458762493323,0.771740291447319
1580420504.39401,-1.0637369344625,-0.371343556878005,0.484626535439077
1580420504.42598,-1.05299458304723,-0.292240787365531,0.576424811169606
1580420504.45795,-1.03541618982223,-0.077393759060044,0.587655451285574
1580420504.48992,-0.997817959868772,-0.151613641565575,0.637949187457085
1580420504.52189,-0.92457465476463,-0.190188448920424,0.589120317387657
1580420504.55386,-0.882093537804227,-0.165285725185015,0.628671702143894
1580420504.58583,-0.802014190890365,-0.113527122911421,0.64185549706264
1580420504.6178,-0.752208743419548,-0.130128938735027,0.672129396505685
1580420504.64977,-0.68091859311818,-0.0881361104753182,0.687266346227208
1580420504.68173,-0.659433890287632,-0.0607919432364383,0.721934843976502
1580420504.7137,-0.676523994811932,-0.0969253070878153,0.760021362630656
1580420504.74567,-0.639902342259861,-0.205325398641946,0.776134889753568
1580420504.77764,-0.586190585183489,-0.316655222400245,0.76734569314107
1580420504.80961,-0.552498664835584,-0.288822766460671,0.754161898222325
1580420504.84158,-0.561776150148775,-0.262943465323874,0.773205157549402
1580420504.87355,-0.582772564278629,-0.257572289616236,0.772228580148013
1580420504.90552,-0.592538338292515,-0.255619134813459,0.781994354161899
1580420504.93749,-0.602304112306401,-0.285404745555811,0.801037613488976
1580420504.96946,-0.547615777828641,-0.274174105439842,0.799084458686199
1580420505.00142,-0.53492027161059,-0.248783093003738,0.813244831006333
1580420505.03339,-0.52466620889601,-0.200930800335698,0.817151140611887
1580420505.06536,-0.512947280079347,-0.210208285648889,0.81861600671397
1580420505.09733,-0.491950865949493,-0.210208285648889,0.813733119707027
1580420505.1293,-0.49732204165713,-0.189700160219729,0.839612420843824
1580420505.16153,-0.52808422980087,-0.193606469825284,0.882581826504921
1580420505.1935,-0.558358129243915,-0.251712825207905,0.837170977340353
1580420505.22547,-0.680430304417486,-0.250736247806516,0.84254215304799
1580420505.25744,-0.749767299916074,-0.242435339894712,0.822522316319525
1580420505.2894,-0.925062943465324,-0.254154268711376,0.789806973373008
1580420505.32137,-0.99635309376669,-0.270267795834288,0.817639429312582
1580420505.35334,-1.08033875028611,-0.335698481727322,0.849866483558404
1580420505.38531,-1.02711528191043,-0.302006561379416,0.916273746852827
1580420505.41728,-0.980727855344472,-0.235111009384298,1.01197833218891
1580420505.44925,-0.944594491493095,-0.187258716716258,1.0466468299382
1580420505.48122,-0.819104295414665,-0.187747005416952,1.11842526894026
1580420505.51319,-0.673594262607766,-0.273685816739148,1.12428473334859
1580420505.54516,-0.527107652399481,-0.247806515602349,1.18580910963607
1580420505.57713,-0.465583276112001,-0.345464255741208,1.19752803845273
1580420505.6091,-0.286869611657893,-0.192629892423895,1.16969558251316
1580420505.64106,-0.126222629129472,-0.306401159685665,1.0378576333257
1580420505.67303,-0.0451667048142212,-0.379644464789807,0.959243152513924
1580420505.705,0.00903334096284425,-0.314213778896773,0.785900663767453
1580420505.73697,0.0563973449301898,-0.160402838178072,0.672617685206379
1580420505.76894,0.00122072175173571,-0.243900205996795,0.569100480659191
1580420505.80091,0.0681162737468526,-0.261478599221791,0.393316548409246
1580420505.83288,0.113038834210727,-0.119386587319752,0.352300297550926
1580420505.86485,-0.116456855115587,-0.0793469138628211,0.399176012817577
1580420505.89682,-0.203860532539863,-0.167238879987792,0.507087815671017
1580420505.92879,-0.35034714274815,-0.23315785458152,0.580819409475854
1580420505.96076,-0.414801251239796,-0.23657587548638,0.680430304417488
1580420505.99272,-0.549080643930724,-0.257572289616236,0.773205157549402
1580420506.02469,-0.598397802700847,-0.251224536507211,0.875257495994507
1580420506.05666,-0.690196078431372,-0.308842603189136,0.870862897688259
1580420506.08863,-0.649668116273746,-0.312748912794691,0.850354772259099
1580420506.1206,-0.692637521934843,-0.314213778896773,0.786877241168842
1580420506.15257,-0.687266346227206,-0.228763256275272,0.799084458686199
1580420506.18454,-0.647226672770275,-0.196047913328755,0.762951094834822
1580420506.21651,-0.641367208361943,-0.303471427481499,0.766369115739682
1580420506.24848,-0.680430304417486,-0.323979552910659,0.750743877317465
1580420506.28045,-0.650644693675135,-0.287846189059282,0.767833981841765
1580420506.31242,-0.640390630960555,-0.239505607690546,0.743907835507745
1580420506.34438,-0.655527580682078,-0.271732661936371,0.756115053025102
1580420506.37635,-0.697520408941786,-0.282963302052339,0.703868162050814
1580420506.40832,-0.726817730983443,-0.184817273212786,0.604745555809874
1580420506.44018,-0.787365529869536,0.00805676356145568,0.503181506065463
1580420506.47215,-0.809338521400779,0.0192874036774242,0.485603112840465
1580420506.50412,-0.891859311818113,-0.0437018387121384,0.332768749523154
1580420506.53609,-1.01393148699168,-0.224856946669718,0.340581368734263
1580420506.56806,-1.02711528191043,-0.252201113908599,0.228274967574578
1580420506.60003,-1.08570992599374,-0.096437018387121,0.144289311055161
1580420506.632,-1.00025940337224,0.121828030823224,-0.00317387655451284
1580420506.66397,-1.1067063401236,0.186770428015564,0.0217288471808956
1580420506.69594,-1.28737315938048,0.0930189974822611,-0.0192874036774242
1580420506.72791,-1.45339131761654,-0.131105516136415,0.0476081483176927
1580420506.75988,-1.56081483176928,-0.0749523155565726,-0.073975738155184
1580420506.79185,-1.33473716334783,-0.0109864957656214,-0.135988403143358
1580420506.82382,-1.16237125200275,0.0778820477607383,-0.165285725185015
1580420506.85579,-0.852307927061876,0.200442511635003,-0.11108567940795
1580420506.88776,-0.754650186923019,0.0876478217746239,-0.10766765850309
1580420506.91973,-0.855725947966736,-0.0334477759975584,-0.161867704280155
1580420506.9517,-0.998306248569467,-0.120363164721141,-0.060303654535744
1580420506.98367,-1.00123598077363,-0.142824444953078,-0.0437018387121384
1580420507.01564,-1.09303425650416,0.0104982070649271,0.0803234912642097
1580420507.04761,-0.990981918059052,0.0876478217746239,0.0158693827725642
1580420507.07958,-0.933363851377127,0.185305561913481,0.0510261692225527
1580420507.11155,-0.933852140077821,0.0285648889906156,0.216067750057221
1580420507.14351,-0.911879148546578,-0.128175783932249,0.060303654535744
1580420507.17548,-0.994399938963912,-0.206301976043335,0.29810025177386
1580420507.20745,-0.96900892652781,-0.130128938735027,0.428961623559928
1580420507.23942,-0.932875562676433,0.0124513618677042,0.40747692072938
1580420507.27139,-0.932875562676433,-0.0280766002899213,0.583260852979326
1580420507.30336,-0.847913328755627,-0.205813687342641,0.619394216830703
1580420507.33533,-0.923598077363241,-0.296635385671779,0.726329442282751
1580420507.3673,-0.922133211261158,-0.125246051728084,0.733653772793165
1580420507.39927,-0.730235751888303,-0.0744640268558783,0.778576333257039
1580420507.43124,-0.790295262073702,-0.197512779430838,0.738536659800108
1580420507.46321,-0.725841153582055,-0.232181277180132,0.755138475623713
1580420507.49518,-0.758068207827879,-0.214114595254443,0.698496986343176
1580420507.52715,-0.751232166018159,-0.215091172655832,0.764904249637599
1580420507.55912,-0.7390249485008,-0.294682230869002,0.800549324788282
1580420507.59109,-0.837659266041047,-0.345952544441902,0.806897077897307
1580420507.62306,-0.820569161516747,-0.318608377203022,0.796154726482033
1580420507.65503,-0.912367437247273,-0.232669565880826,0.825940337224385
1580420507.687,-0.919203479056993,-0.024170290684367,0.503669794766157
1580420507.71905,-0.812268253604945,0.25366598001068,0.260990310521095
1580420507.75102,-0.69117265583276,0.198001068131532,0.103273060196841
1580420507.78299,-0.740001525902189,0.0778820477607383,-0.171633478294041
1580420507.81496,-0.910414282444496,-0.147707331960021,-0.00317387655451284
1580420507.84693,-0.975356679636835,-0.283939879453728,0.178957808804455
1580420507.8789,-1.31032272831312,-0.248783093003738,0.153566796368352
1580420507.91087,-1.5764400701915,0.0744640268558783,-0.0427252613107498
1580420507.94284,-1.45632104982071,0.0905775539787896,-0.0817883573662925
1580420507.97481,-1.30885786221103,-0.0515144579232469,-0.149660486762798
1580420508.00678,-0.984634164950027,0.0290531776913099,-0.0153810940718699
1580420508.03875,-0.855725947966736,-0.0153810940718699,0.00122072175173571
1580420508.07072,-0.978774700541695,-0.193606469825284,-0.0607919432364383
1580420508.10269,-1.02320897230488,-0.217532616159303,0.0305180437933927
1580420508.13466,-0.981704432745861,-0.0715342946517126,0.0495613031204698
1580420508.16663,-0.944594491493095,0.0915541313801782,0.0153810940718699
1580420508.1986,-0.97242694743267,0.0363775082017241,0.110109102006561
1580420508.23057,-0.997817959868772,0.0505378805218584,0.0324711985961699
1580420508.26254,-1.01490806439307,-0.0227054245822842,0.180422674906538
1580420508.29451,-1.08717479209583,-0.0676279850461583,0.193606469825284
1580420508.32648,-1.08278019378958,-0.156496528572518,0.371831845578697
1580420508.35845,-1.02662699320974,-0.183352407110704,0.407965209430074
1580420508.39041,-0.96217288471809,-0.185305561913481,0.535408560311286
1580420508.42238,-0.928969253070878,-0.073975738155184,0.488532845044631
1580420508.45435,-0.789318684672313,-0.0124513618677042,0.581307698176548
1580420508.48632,-0.73560692759594,-0.0612802319371326,0.513435568780043
1580420508.51829,-0.730724040588997,-0.206790264744029,0.52222476539254
1580420508.55026,-0.72535286488136,-0.279056992446785,0.516853589684903
1580420508.58223,-0.722423132677195,-0.174563210498206,0.520271610589763
1580420508.6142,-0.729747463187609,-0.104737926298924,0.532967116807814
1580420508.64617,-0.780041199359122,-0.100343327992675,0.519783321889069
1580420508.67814,-0.879652094300756,-0.168703746089875,0.487556267643242
1580420508.71011,-0.901625085831999,-0.242923628595406,0.534431982909897
1580420508.74208,-0.880628671702144,-0.270267795834288,0.516853589684903
1580420508.77405,-0.913344014648661,-0.205813687342641,0.593026626993211
1580420508.80602,-0.780041199359122,-0.134523537041275,0.576424811169606
1580420508.83799,-0.633066300450141,-0.0861829556725411,0.602304112306403
1580420508.86996,-0.748790722514686,-0.0900892652780954,0.750743877317465
1580420508.90193,-0.635019455252918,-0.224856946669718,0.553475242236974
1580420508.9339,-0.603768978408484,-0.237064164187075,0.530037384603649
1580420508.96587,-0.472419317921721,-0.281010147249562,0.642343785763334
1580420508.99823,-0.720469977874417,-0.2434119172961,0.665293354695965
1580420509.0302,-0.79127183947509,-0.0837415121690697,0.59058518348974
1580420509.06217,-0.844495307850767,-0.208743419546806,0.641367208361945
1580420509.09414,-1.09840543221179,-0.286381322957199,0.589120317387657
1580420509.12611,-0.988052185854887,-0.0476081483176927,0.519295033188374
1580420509.15808,-1.01686121919585,-0.00122072175173571,0.723887998779279
1580420509.19005,-0.975356679636835,-0.0769054703593497,0.576424811169606
1580420509.22202,-1.37917143511101,-0.358648050659953,0.56324101625086
1580420509.25399,-1.35280384527352,-0.165774013885709,0.365484092469671
1580420509.28596,-1.24684519722286,-0.0817883573662925,0.411383230334934
1580420509.31792,-1.55349050125887,-0.142824444953078,0.206301976043335
1580420509.3499,-1.56667429617761,-0.163332570382238,0.220950637064163
1580420509.38186,-1.64235904478523,0.0349126420996413,0.167238879987792
1580420509.41383,-1.3547570000763,-0.116456855115587,0.226321812771801
1580420509.4458,-1.41628137636378,-0.211184863050278,0.393316548409246
1580420509.47777,-1.31667048142214,-0.0993667505912867,0.38696879530022
1580420509.50974,-1.25661097123674,0.0505378805218584,0.471442740520331
1580420509.54171,-0.969985503929198,0.0261234454871442,0.426520180056457
1580420509.57368,-0.914808880750744,-0.170168612191958,0.751232166018159
1580420509.60565,-0.980727855344472,-0.424567025253682,0.710704203860534
1580420509.63762,-1.06227206836042,-0.724376287479972,1.09303425650416
1580420509.66959,-0.899671931029221,-0.445563439383536,1.06276035706111
1580420509.70156,-0.84937819485771,0.0690928511482412,0.995864805065995
1580420509.73353,-0.762462806134128,-0.0109864957656214,0.838147554741742
1580420509.7655,-0.484138246738384,-0.317631799801633,0.426520180056457
1580420509.79747,-0.372320134279393,-0.208743419546806,0.194583047226672
1580420509.82944,-0.0920424200808725,0.077393759060044,-0.0202639810788128
1580420509.86141,-0.236087586785686,0.346440833142594,-0.192629892423895
1580420509.89338,-0.385015640497445,-0.0368657969024184,0.262943465323872
1580420509.92535,-0.56226443884947,-0.549568932631418,0.0373540856031127
1580420509.95732,-1.09987029831388,-0.157473105973907,0.329839017318989
1580420509.98929,-1.13551537346456,0.212649729152361,0.201419089036392
1580420510.02126,-1.18483253223468,0.177492942702372,0.0515144579232469
1580420510.05323,-1.20631723506523,-0.317143511100939,0.0349126420996413
1580420510.08519,-1.1403982604715,-0.392828259708553,-0.00366216525520713
1580420510.11716,-1.23121995880064,-0.0866712443732354,0.00415045395590141
1580420510.14913,-1.15065232318608,-0.0285648889906156,0.0729991607537954
1580420510.1811,-0.990493629358358,0.0710460059510183,0.163820859082932
1580420510.21307,-0.940688181887541,0.195071335927366,0.0837415121690697
1580420510.24504,-0.837659266041047,0.0769054703593497,0.0183108262760356
1580420510.27676,-0.913344014648661,-0.214114595254443,-0.0227054245822842
1580420510.30873,-0.93824673838407,-0.283939879453728,0.0607919432364383
1580420510.3407,-1.0295567254139,-0.259037155718319,0.166750591287098
1580420510.37267,-1.12526131074998,-0.0993667505912867,0.403570611123826
1580420510.40464,-1.12916762035553,0.000732433051041426,0.491950865949491
1580420510.43661,-1.0212558175021,0.0676279850461583,0.462653543907834
1580420510.46858,-0.930922407873656,-0.0490730144197755,0.481208514534217
1580420510.50055,-0.88355840390631,-0.245853360799572,0.448004882887005
1580420510.53252,-0.813244831006333,-0.320073243305105,0.523201342793929
1580420510.56449,-0.802502479591059,-0.196047913328755,0.524666208896011
1580420510.59646,-0.798596169985505,-0.10424963759823,0.616952773327231
1580420510.62843,-0.796154726482033,-0.149660486762798,0.676523994811934
1580420510.6604,-0.828381780727856,-0.210696574349583,0.731212329289693
1580420510.69237,-0.754161898222325,-0.263920042725262,0.695078965438316
1580420510.72434,-0.803967345693142,-0.302006561379416,0.6452735179675
1580420510.75631,-0.83912413214313,-0.173098344396124,0.562264438849471
1580420510.78828,-0.830823224231327,-0.0476081483176927,0.480720225833522
1580420510.82025,-0.806897077897307,-0.0402838178072784,0.392828259708551
1580420510.85222,-0.872816052491036,-0.132082093537804,0.362554360265506
1580420510.88419,-0.905043106736859,-0.275638971541925,0.318120088502326
1580420510.91616,-0.997817959868772,-0.179446097505149,0.262455176623178
1580420510.94813,-1.09254596780346,-0.0510261692225527,0.263431754024566
1580420510.9801,-1.10914778362707,0.0676279850461583,0.123781185626001
1580420511.01207,-1.13990997177081,-0.0183108262760356,0.0554207675288012
1580420511.04404,-1.03395132372015,-0.0559090562294955,-0.0529793240253298
1580420511.07601,-0.919203479056993,0.077393759060044,-0.12475776302739
1580420511.10798,-1.1921568627451,0.270267795834286,-0.180422674906538
1580420511.13995,-1.32106507972839,0.063721675440604,-0.156008239871824
1580420511.17192,-1.47048142214084,-0.112550545510032,-0.206790264744029
1580420511.20389,-1.17848477912566,-0.01196307316701,-0.143801022354467
1580420511.23586,-0.906019684138247,0.206301976043335,-0.166262302586404
1580420511.26783,-0.785412375066759,0.234134431982909,-0.108155947203784
1580420511.2998,-0.831311512932022,0.0534676127260241,-0.212649729152361
1580420511.33177,-0.975356679636835,-0.0905775539787896,-0.130128938735027
1580420511.36374,-1.12721446555276,-0.0817883573662925,-0.160891126878766
1580420511.39571,-0.885999847409781,0.136476691844052,-0.0495613031204698
1580420511.42768,-0.968520637827115,0.131105516136415,-0.109132524605172
1580420511.45965,-1.03297474631876,0.0417486839093613,-0.137941557946135
1580420511.49162,-0.880628671702144,-0.110109102006561,-0.0256351567864499
1580420511.52359,-1.04469367513542,-0.0759288929579611,-0.00659189745937283
1580420511.55566,-1.06666666666667,0.0407721065079727,0.0729991607537954
1580420511.58763,-1.04908827344167,0.0822766460669868,0.113038834210727
1580420511.6196,-1.07447928587777,-0.080811779964904,0.229739833676661
1580420511.65157,-1.15455863279164,-0.189700160219729,0.293705653467612
1580420511.68355,-1.09108110170138,-0.0578622110322726,0.280521858548866
1580420511.71552,-0.960219729915313,0.0388189517051956,0.344975967040511
1580420511.74749,-0.894789044022279,-0.0847180895704582,0.355718318455786
1580420511.77946,-0.909437705043107,-0.161867704280155,0.409430075532157
1580420511.81143,-0.82545204852369,-0.161867704280155,0.425055313954374
1580420511.8434,-0.795666437781339,-0.108155947203784,0.475349050125885
1580420511.87537,-0.818127718013276,-0.137453269245441,0.519295033188374
1580420511.90734,-0.807385366598002,-0.123292896925307,0.47925535973144
1580420511.93931,-0.82545204852369,-0.132082093537804,0.428961623559928
1580420511.97128,-0.821057450217442,-0.0734874494544897,0.367437247272449
1580420512.00325,-0.815686274509805,0.0744640268558783,0.302983138780803
1580420512.03522,-0.827893492027162,0.0544441901274126,0.234622720683603
1580420512.06719,-0.835217822537576,-0.105714503700312,0.131105516136415
1580420512.09916,-0.891859311818113,-0.166750591287098,0.0583504997329669
1580420512.13113,-0.991958495460441,-0.0734874494544897,0.113038834210727
1580420512.1631,-1.04811169604028,0.136964980544747,0.0187991149767299
1580420512.19507,-1.13844510566873,0.198001068131532,-0.0129396505683985
1580420512.22704,-1.25905241474022,0.10083161669337,-0.115968566414892
1580420512.25901,-1.27321278706035,0.0520027466239412,-0.207278553444723
1580420512.29098,-1.49098954757,0.114015411612115,-0.232181277180132
1580420512.32296,-1.31764705882353,0.0813000686655982,-0.242923628595406
1580420512.35493,-1.08229190508888,0.12133974212253,-0.279056992446785
1580420512.3869,-0.825940337224385,0.261478599221789,-0.254154268711376
1580420512.41887,-0.722911421377889,0.229251544975966,-0.250736247806516
1580420512.45084,-0.88014038300145,0.0500495918211641,-0.293217364766919
1580420512.48281,-0.889906157015336,0.0949721522850382,-0.226321812771801
1580420512.51478,-0.889417868314641,0.202883955138475,-0.158937972075989
1580420512.54675,-0.963149462119478,0.127199206530861,-0.212649729152361
1580420512.57872,-0.98609903105211,-0.00122072175173571,-0.175051499198901
1580420512.61069,-0.98609903105211,0.01196307316701,-0.176028076600289
1580420512.64266,-0.932387273975738,0.158449683375295,-0.186282139314869
1580420512.67463,-0.871839475089647,0.123781185626001,-0.123781185626001
1580420512.7066,-0.951430533302815,0.0290531776913099,-0.11792172121767
1580420512.73857,-0.93824673838407,0.0563973449301898,-0.0896009765774011
1580420512.77054,-0.888441290913253,0.129152361333638,-0.0935072861829553
1580420512.80251,-0.979751277943084,0.0300297550926985,-0.0212405584802013
1580420512.83481,-1.05494773785,-0.0729991607537954,0.0466315709163041
1580420512.86678,-1.08033875028611,0.0192874036774242,0.060303654535744
1580420512.89875,-1.10182345311665,0.0612802319371326,0.0910658426794839
1580420512.93072,-1.07008468757153,0.0266117341878385,0.0720225833524069
1580420512.96269,-1.08766308079652,-0.0329594872968642,0.132570382238498
1580420512.99466,-1.05397116044862,-0.0256351567864499,0.134035248340581
1580420513.02663,-1.0808270389868,-0.0651865415426869,0.128664072632944
1580420513.0586,-1.04859998474098,-0.0642099641412983,0.155031662470435
1580420513.09057,-1.03639276722362,-0.0598153658350498,0.150148775463492
1580420513.12254,-1.0383459220264,-0.0402838178072784,0.157473105973907
1580420513.15451,-1.00953688868544,-0.0329594872968642,0.174563210498206
1580420513.18648,-0.991470206759747,-0.0788586251621268,0.169680323491264
1580420513.21845,-0.996841382467384,-0.073975738155184,0.147219043259327
1580420513.25042,-0.981704432745861,-0.0285648889906156,0.144777599755855
1580420513.28239,-0.96559090562295,0.044678416113527,0.105226214999618
1580420513.31436,-0.927016098268101,0.048096437018387,0.0861829556725411
1580420513.34634,-0.908949416342413,0.0593270771343555,0.000244144350347142
1580420513.37831,-0.941176470588236,-0.00219729915312428,0.060303654535744
1580420513.41028,-1.03102159151598,0.0422369726100555,-0.0158693827725642
1580420513.44225,-1.00172426947433,0.0891126878767068,-0.0441901274128327
1580420513.47422,-0.966567483024338,0.060303654535744,-0.102296482795452
1580420513.50619,-1.03639276722362,0.11792172121767,-0.138429846646829
1580420513.53816,-1.10768291752499,-0.0227054245822842,-0.119874876020447
1580420513.57013,-1.17311360341802,-0.100343327992675,-0.0554207675288012
1580420513.6021,-1.12867933165484,0.210696574349583,0.0837415121690697
1580420513.63407,-1.03346303501946,0.37671473258564,-0.0549324788281069
1580420513.66604,-0.967544060425727,0.0476081483176927,-0.116456855115587
1580420513.69801,-0.801037613488976,-0.253177691309988,-0.0944838635843439
1580420513.72998,-0.772228580148013,0.0573739223315783,-0.164309147783626
1580420513.76195,-0.858655680170902,0.446540016784922,-0.213138017853055
1580420513.79392,-0.905043106736859,0.330815594720377,-0.24682993820096
1580420513.82589,-1.02613870450904,-0.0466315709163041,-0.213138017853055
1580420513.85786,-0.963637750820173,-0.0402838178072784,-0.244876783398183
1580420513.88983,-1.01100175478752,0.104737926298924,-0.225833524071106
1580420513.9218,-1.06910811017014,0.212161440451666,-0.214602883955138
1580420513.95378,-1.07447928587777,0.269291218432897,-0.249271381704432
1580420513.98575,-0.91090257114519,0.155031662470435,-0.238529030289158
1580420514.01772,-0.894300755321584,0.0900892652780954,-0.257572289616236
1580420514.04969,-0.93482871747921,0.195559624628061,-0.259525444419014
1580420514.08166,-0.886488136110476,0.237552452887769,-0.268802929732205
1580420514.11359,-0.963149462119478,0.238529030289158,-0.311284046692608
1580420514.14556,-0.986587319752804,0.0144045166704814,-0.253665980010682
1580420514.17753,-1.07838559548333,0.132570382238498,-0.219974059662775
1580420514.2095,-1.07057297627222,0.28784618905928,-0.259525444419014
1580420514.24147,-0.961684596017395,0.127687495231555,-0.227786678873883
1580420514.27344,-1.01100175478752,0.158937972075989,-0.223880369268329
1580420514.30541,-0.934340428778516,0.433356221866177,-0.173098344396124
1580420514.33738,-0.919203479056993,0.138918135347524,-0.261966887922485
1580420514.36935,-0.974868390936141,-0.0729991607537954,-0.354253452353705
1580420514.40132,-1.03150988021668,0.148195620660715,-0.188235294117646
1580420514.4333,-0.972915236133364,0.273197528038452,-0.112062256809338
1580420514.46527,-1.06129549095903,0.133058670939192,-0.0642099641412983
1580420514.49724,-0.930922407873656,0.224368657969023,-0.160891126878766
1580420514.52921,-0.831799801632716,0.335210193026626,-0.239505607690546
1580420514.56118,-0.917250324254216,0.349858854047454,-0.188235294117646
1580420514.59315,-1.00807202258335,0.0573739223315783,-0.133058670939192
1580420514.62512,-0.920668345159076,-0.113038834210727,-0.0778820477607383
1580420514.65709,-0.885023270008393,-0.110109102006561,-0.299076829175251
1580420514.68906,-0.956313420309758,-0.0407721065079727,-0.183352407110704
1580420514.72104,-1.04029907682918,0.313725490196077,-0.0183108262760356
1580420514.75301,-1.02711528191043,0.57007705806058,-0.146730754558632
1580420514.78498,-1.03102159151598,0.255619134813458,-0.137453269245441
1580420514.81695,-0.94850080109865,0.0549324788281069,-0.179446097505149
1580420514.84892,-0.943129625391013,-0.0349126420996413,-0.180910963607232
1580420514.88089,-0.91432059205005,0.180910963607232,-0.0583504997329669
1580420514.91286,-1.0295567254139,0.264408331425955,-0.276127260242619
1580420514.94483,-1.03443961242084,0.158449683375295,0.00219729915312428
1580420514.9768,-0.936781872281987,0.114991989013504,-0.302006561379416
1580420515.00877,-0.990493629358358,0.133058670939192,-0.0788586251621268
1580420515.04074,-1.03199816891737,0.280033569848172,-0.149172198062104
1580420515.07272,-0.962661173418784,0.136476691844052,-0.171633478294041
1580420515.10469,-0.888441290913253,-0.0402838178072784,-0.202395666437781
1580420515.13666,-1.00465400167849,0.193118181124589,-0.108155947203784
1580420515.16863,-1.01832608529793,0.262943465323872,-0.131593804837109
1580420515.2006,-0.97242694743267,0.169192034790569,-0.172610055695429
1580420515.23257,-0.931898985275044,-0.0720225833524069,-0.165285725185015
1580420515.26454,-0.912367437247273,0.0290531776913099,-0.207278553444723
1580420515.29651,-1.03199816891737,0.295658808270389,-0.153566796368352
1580420515.32848,-1.03053330281529,0.3630426489662,-0.124269474326695
1580420515.36045,-1.04518196383612,0.0734874494544897,-0.173098344396124
1580420515.39255,-0.940688181887541,-0.0251468680857556,-0.137453269245441
1580420515.42452,-0.889906157015336,0.220950637064163,-0.163820859082932
1580420515.45649,-0.971450370031281,0.144777599755855,-0.224368657969023
1580420515.48846,-0.973403524834058,0.146730754558632,-0.220950637064163
1580420515.52043,-0.939223315785458,0.272709239337757,-0.208255130846112
1580420515.5524,-0.961684596017395,0.106691081101701,-0.247318226901655
1580420515.58438,-0.967544060425727,-0.140871290150301,-0.210696574349583
1580420515.61635,-1.01441977569238,0.256595712214846,-0.212649729152361
1580420515.64832,-1.03639276722362,0.235111009384298,-0.217532616159303
1580420515.68029,-0.96900892652781,0.0695811398489354,-0.200442511635003
1580420515.71226,-0.969985503929198,0.135500114442664,-0.211184863050278
1580420515.74423,-0.948012512397955,0.114015411612115,-0.195071335927366
1580420515.7762,-0.943129625391013,0.133546959639887,-0.171633478294041
1580420515.80818,-0.905043106736859,0.231204699778743,-0.164797436484321
1580420515.84015,-0.958266575112535,0.146730754558632,-0.232181277180132
1580420515.87212,-1.04957656214237,-0.0466315709163041,-0.248294804303043
1580420515.90409,-0.812268253604945,0.0871595330739297,-0.192141603723201
1580420515.93606,-0.935317006179904,0.408941786831463,-0.280521858548868
1580420515.96803,-1.09108110170138,0.478767071030745,-0.265384908827345
1580420516.00001,-1.02613870450904,0.216556038757915,-0.198977645532921
1580420516.03198,-0.99635309376669,-0.0627450980392155,-0.195559624628061
1580420516.06395,-0.926039520866713,0.0153810940718699,-0.203860532539863
1580420516.09592,-0.870374608987564,0.0949721522850382,-0.239505607690546
1580420516.12789,-0.936781872281987,0.136476691844052,-0.251712825207905
1580420516.15986,-1.0207675288014,0.3459525444419,-0.256107423514154
1580420516.19183,-0.896253910124361,0.261478599221789,-0.191653315022506
1580420516.2238,-0.98609903105211,0.0642099641412983,-0.318608377203022
1580420516.25578,-0.973891813534753,0.0695811398489354,-0.269291218432899
1580420516.28775,-1.01588464179446,0.224368657969023,-0.223392080567635
1580420516.31972,-1.0124666208896,0.242435339894712,-0.210696574349583
1580420516.35169,-0.967544060425727,0.195559624628061,-0.0612802319371326
1580420516.38366,-0.892835889219501,0.295658808270389,-0.23999389639124
1580420516.41563,-0.978286411841001,0.138918135347524,-0.343022812237736
1580420516.4476,-0.891859311818113,-0.01196307316701,-0.221438925764858
1580420516.47958,-0.953383688105593,0.0661631189440754,-0.339116502632182
1580420516.51155,-1.00270084687572,0.251712825207903,-0.308354314488442
1580420516.54352,-1.03053330281529,0.130617227435721,-0.157473105973907
1580420516.57549,-0.983169298847944,0.183840695811398,-0.229251544975966
1580420516.60746,-1.01100175478752,0.342046234836346,-0.241458762493323
1580420516.63943,-0.964126039520867,0.177981231403066,-0.177981231403066
1580420516.67154,-0.842053864347296,0.0178225375753414,-0.219974059662775
1580420516.70351,-0.916273746852827,0.163332570382238,-0.232669565880826
1580420516.73548,-0.952407110704204,0.245853360799572,-0.208255130846112
1580420516.76745,-0.968032349126421,0.204837109941252,-0.211184863050278
1580420516.79943,-0.974380102235447,0.144777599755855,-0.232181277180132
1580420516.8314,-0.882581826504921,0.154055085069047,-0.227786678873883
1580420516.86337,-0.926039520866713,0.173586633096818,-0.235599298084992
1580420516.89534,-0.971938658731975,0.176028076600289,-0.24682993820096
1580420516.92731,-0.968032349126421,0.222415503166246,-0.252201113908599
1580420516.95929,-1.00758373388266,0.138918135347524,-0.283939879453728
1580420516.99126,-0.961684596017395,0.118898298619058,-0.220462348363469
1580420517.02323,-0.929945830472267,0.167238879987792,-0.308354314488442
1580420517.0552,-1.03492790112154,0.34253452353704,-0.23999389639124
1580420517.08717,-0.991958495460441,0.344487678339817,-0.336186770428016
1580420517.11915,-0.998794537270161,0.099855039291981,-0.322026398107882
1580420517.15112,-0.905043106736859,0.0676279850461583,-0.255130846112765
1580420517.18309,-0.95875486381323,0.173586633096818,-0.218509193560692
1580420517.21506,-0.966079194323644,0.202395666437781,-0.190676737621118
1580420517.24703,-0.891859311818113,0.180910963607232,-0.203860532539863
1580420517.27901,-0.840588998245213,0.115480277714198,-0.267826352330816
1580420517.31098,-0.91090257114519,0.0832532234683754,-0.260502021820402
1580420517.34295,-0.990493629358358,0.271244373235675,-0.248294804303043
1580420517.37492,-0.946547646295873,0.214602883955138,-0.201419089036392
1580420517.40689,-1.00025940337224,0.170168612191958,-0.222903791866941
1580420517.43886,-0.964126039520867,0.160402838178072,-0.296635385671779
1580420517.47084,-0.917250324254216,0.10083161669337,-0.193118181124589
1580420517.50281,-0.876234073395896,0.243900205996795,-0.258060578316931
1580420517.53478,-0.949477378500038,0.236087586785686,-0.342046234836348
1580420517.56675,-1.02760357061112,0.198001068131532,-0.198489356832226
1580420517.59872,-0.99977111467155,0.173098344396124,-0.334233615625239
1580420517.6307,-1.00025940337224,0.113038834210727,-0.33325703822385
1580420517.66267,-0.943129625391013,0.215091172655832,-0.238040741588463
1580420517.69464,-1.00904859998474,0.241947051194018,-0.231692988479438
1580420517.72661,-0.94850080109865,0.184328984512092,-0.332768749523156
1580420517.75858,-0.901136797131304,0.112062256809338,-0.227786678873883
1580420517.79056,-0.929457541771573,0.204837109941252,-0.227298390173189
1580420517.82253,-0.933852140077821,0.142336156252384,-0.23657587548638
1580420517.8545,-0.925062943465324,0.139406424048218,-0.228763256275272
1580420517.88647,-0.922133211261158,0.293217364766917,-0.211673151750972
1580420517.91844,-0.942153047989624,0.151613641565575,-0.238529030289158
1580420517.95065,-0.888441290913253,0.110597390707255,-0.263920042725262
1580420517.98263,-0.924086366063936,0.217044327458609,-0.275150682841231
1580420518.0146,-1.00514229037919,0.156008239871824,-0.280521858548868
1580420518.04657,-0.99635309376669,0.198489356832226,-0.288334477759976
1580420518.07854,-0.93141069657435,0.164797436484321,-0.238040741588463
1580420518.11051,-0.864515144579233,0.128664072632944,-0.37769130998703
1580420518.14248,-1.05201800564584,0.292729076066223,-0.180910963607232
1580420518.17446,-0.988540474555581,0.334233615625237,-0.383062485694667
1580420518.20643,-0.954848554207675,0.155519951171129,-0.284428168154422
1580420518.2384,-0.928969253070878,0.0817883573662925,-0.186282139314869
1580420518.27037,-0.950942244602121,0.151125352864881,-0.185793850614175
1580420518.30234,-0.917250324254216,0.197512779430838,-0.227786678873883
1580420518.33432,-0.871839475089647,0.145754177157244,-0.266849774929428
1580420518.36629,-0.918226901655604,0.110597390707255,-0.268314641031511
1580420518.39826,-0.924086366063936,0.11450370031281,-0.222903791866941
1580420518.43023,-0.996841382467384,0.201907377737086,-0.245365072098878
1580420518.4622,-0.979751277943084,0.258548867017623,-0.260502021820402
1580420518.49418,-0.95191882200351,0.193118181124589,-0.212649729152361
1580420518.52615,-0.86646829938201,0.138918135347524,-0.223392080567635
1580420518.55812,-0.951430533302815,0.164797436484321,-0.226810101472495
1580420518.59009,-0.97242694743267,0.190188448920424,-0.296147096971085
1580420518.62206,-0.989028763256275,0.180910963607232,-0.317143511100939
1580420518.65403,-0.92799267566949,0.139894712748912,-0.362554360265507
1580420518.68601,-1.04371709773404,0.151125352864881,-0.108155947203784
1580420518.71798,-0.970473792629893,0.426520180056457,-0.325444419012742
1580420518.74995,-0.960708018616007,0.261478599221789,-0.253665980010682
1580420518.78192,-0.903578240634776,-0.0075684748607614,-0.232669565880826
1580420518.81389,-0.914808880750744,0.124269474326695,-0.252201113908599
1580420518.84587,-0.943129625391013,0.286381322957197,-0.226321812771801
1580420518.87784,-0.946059357595178,0.234622720683603,-0.222415503166246
1580420518.90981,-0.932875562676433,0.0871595330739297,-0.229251544975966
1580420518.94178,-0.900160219729916,0.230716411078049,-0.228274967574578
1580420518.97375,-0.940199893186847,0.200442511635003,-0.219974059662775
1580420519.00573,-0.955825131609064,0.234134431982909,-0.231204699778743
1580420519.0377,-0.956313420309758,0.129152361333638,-0.233646143282215
1580420519.06967,-0.964126039520867,0.201419089036392,-0.266849774929428
1580420519.10164,-0.98951705195697,0.252201113908598,-0.258548867017625
1580420519.13361,-0.950942244602121,0.133058670939192,-0.263920042725262
1580420519.16559,-0.978286411841001,0.271244373235675,-0.304448004882888
1580420519.19756,-1.03102159151598,0.424078736552985,-0.264408331425956
1580420519.22946,-1.01051346608682,0.25366598001068,-0.171145189593346
1580420519.26143,-0.922621499961853,0.0959487296864268,-0.216067750057221
1580420519.2934,-0.86646829938201,0.0642099641412983,-0.176516365300984
1580420519.32538,-0.894789044022279,0.163332570382238,-0.178469520103761
1580420519.35735,-0.943129625391013,0.253177691309986,-0.193118181124589
1580420519.38932,-0.89039444571603,0.198977645532921,-0.242923628595406
1580420519.42129,-0.909437705043107,0.132570382238498,-0.23999389639124
1580420519.45326,-0.921644922560464,0.183352407110704,-0.122316319523918
1580420519.48524,-1.0041657129778,0.28784618905928,-0.324956130312048
1580420519.51721,-1.0036774242771,0.201419089036392,-0.316166933699551
1580420519.54918,-0.917250324254216,0.141359578850995,-0.162844281681544
1580420519.58115,-0.963149462119478,0.213626306553749,-0.334233615625239
1580420519.61312,-1.05983062485695,0.113038834210727,-0.295170519569696
1580420519.6451,-0.916762035553521,0.218509193560692,-0.409430075532159
1580420519.67707,-1.11158922713054,0.392828259708551,-0.158449683375295
1580420519.70904,-0.940688181887541,0.300053406576637,-0.326909285114825
1580420519.74101,-0.985610742351415,0.170656900892652,-0.193118181124589
1580420519.77298,-0.895277332722973,0.113527122911421,-0.214602883955138
1580420519.80496,-0.921644922560464,0.177981231403066,-0.218509193560692
1580420519.83693,-0.928480964370184,0.208743419546806,-0.203860532539863
1580420519.8689,-0.932387273975738,0.214602883955138,-0.203372243839169
1580420519.90087,-0.91432059205005,0.145754177157244,-0.196047913328755
1580420519.93284,-0.941176470588236,0.196047913328755,-0.201907377737086
1580420519.96482,-0.932875562676433,0.234134431982909,-0.220950637064163
1580420519.99679,-0.94508278019379,0.191653315022506,-0.230228122377355
1580420520.02876,-0.929945830472267,0.147707331960021,-0.219974059662775
1580420520.06073,-0.93824673838407,0.233646143282215,-0.254642557412071
1580420520.0927,-0.909925993743801,0.201907377737086,-0.239017318989852
1580420520.12468,-1.01539635309377,0.176516365300984,-0.259037155718319
1580420520.15665,-0.922621499961853,0.177004654001678,-0.255130846112765
1580420520.18862,-0.871839475089647,0.253177691309986,-0.363042648966202
1580420520.22059,-1.05885404745556,0.339604791332874,-0.272220950637065
1580420520.25256,-1.05934233615625,0.297611963073166,-0.177981231403066
1580420520.28453,-0.954848554207675,0.241947051194018,-0.205813687342641
1580420520.31651,-0.914808880750744,0.0900892652780954,-0.254154268711376
1580420520.34848,-0.861585412375067,0.106202792401007,-0.150148775463492
1580420520.38045,-0.855237659266042,0.126710917830167,-0.211673151750972
1580420520.41242,-0.960219729915313,0.220462348363469,-0.273197528038454
1580420520.44439,-0.984634164950027,0.143801022354467,-0.201419089036392
1580420520.47637,-1.03981078812848,0.208255130846112,-0.190188448920424
1580420520.50836,-0.92115663385977,0.261478599221789,-0.155519951171129
1580420520.54033,-0.93824673838407,0.262455176623178,-0.295658808270391
1580420520.57231,-0.988540474555581,0.173098344396124,-0.254642557412071
1580420520.60428,-0.998306248569467,0.0959487296864268,-0.233646143282215
1580420520.63625,-0.977309834439613,0.156984817273212,-0.168215457389181
1580420520.66822,-1.0896162355993,0.281986724650949,-0.146242465857938
1580420520.7002,-0.913344014648661,0.293705653467612,-0.200930800335698
1580420520.73217,-0.918226901655604,0.149660486762798,-0.326909285114825
1580420520.76414,-0.987075608453498,0.0461432822156098,-0.144777599755855
1580420520.79611,-0.911879148546578,0.188235294117646,-0.283451590753033
1580420520.82809,-1.0207675288014,0.250736247806515,-0.235599298084992
1580420520.86006,-1.03639276722362,0.276127260242617,-0.253665980010682
1580420520.89203,-1.03639276722362,0.2434119172961,-0.23657587548638
1580420520.924,-0.929945830472267,0.148195620660715,-0.232181277180132
1580420520.95597,-0.89723048752575,0.210696574349583,-0.192629892423895
1580420520.98795,-0.988540474555581,0.225833524071106,-0.251712825207905
1580420521.01992,-0.86646829938201,0.103761348897535,-0.194583047226672
1580420521.05189,-0.897718776226444,0.0969253070878153,-0.172610055695429
1580420521.08386,-1.01881437399863,0.293705653467612,-0.198489356832226
1580420521.11584,-0.908461127641718,0.216067750057221,-0.177492942702372
1580420521.14781,-0.887953002212559,0.0788586251621268,-0.146730754558632
1580420521.17978,-0.859143968871596,0.420172426947431,-0.217532616159303
1580420521.21175,-0.886488136110476,0.275638971541923,-0.263431754024568
1580420521.24373,-0.971938658731975,0.0407721065079727,-0.309330891889831
1580420521.2757,-0.961196307316701,0.0871595330739297,-0.222903791866941
1580420521.30767,-0.973403524834058,0.190676737621118,-0.166750591287098
1580420521.33964,-1.02272068360418,0.188235294117646,-0.118410009918364
1580420521.37162,-0.95533684290837,0.343022812237734,-0.227786678873883
1580420521.40359,-0.908461127641718,0.173098344396124,-0.173586633096818
1580420521.43556,-0.916762035553521,0.264408331425955,-0.171145189593346
1580420521.46753,-0.933363851377127,0.208255130846112,-0.147707331960021
1580420521.49951,-0.953383688105593,0.0559090562294955,-0.150637064164187
1580420521.53148,-1.05104142824445,0.0349126420996413,-0.343999389639125
1580420521.56345,-0.957778286411841,0.0817883573662925,-0.256595712214848
1580420521.59542,-1.0300450141146,0.405035477225908,-0.120851453421835
1580420521.6274,-1.01539635309377,0.522713054093234,-0.225345235370412
1580420521.65937,-1.03492790112154,0.135500114442664,-0.210696574349583
1580420521.69134,-0.937270160982681,-0.0896009765774011,-0.244876783398183
1580420521.72331,-0.996841382467384,0.261966887922483,-0.127199206530861
1580420521.75529,-1.00514229037919,0.418707560845348,-0.206790264744029
1580420521.78729,-1.0212558175021,0.118410009918364,-0.202883955138475
1580420521.81926,-0.913344014648661,0.0847180895704582,-0.181399252307926
1580420521.85124,-0.922133211261158,0.240482185091935,-0.153566796368352
1580420521.88321,-0.945571068894484,0.189211871519035,-0.180910963607232
1580420521.91518,-0.953871976806287,0.128664072632944,-0.162844281681544
1580420521.94715,-0.950453955901427,0.231204699778743,-0.119386587319752
1580420521.97913,-0.986587319752804,0.282475013351643,-0.143801022354467
1580420522.0111,-0.929945830472267,0.217044327458609,-0.157961394674601
1580420522.04307,-0.930434119172961,0.143801022354467,-0.164309147783626
1580420522.07504,-0.943617914091707,0.158937972075989,-0.196536202029449
1580420522.10702,-0.929945830472267,0.181399252307926,-0.259037155718319
1580420522.13899,-0.953383688105593,0.244388494697489,-0.276127260242619
1580420522.17096,-1.08131532768749,0.271732661936369,-0.175051499198901
1580420522.20293,-1.12867933165484,0.139406424048218,-0.112550545510032
1580420522.23491,-0.937758449683376,0.100343327992675,-0.100343327992675
1580420522.26688,-0.86988632028687,0.292240787365529,-0.198977645532921
1580420522.29885,-0.866956588082704,0.409430075532157,-0.185793850614175
1580420522.33082,-0.994399938963912,0.32544441901274,-0.205813687342641
1580420522.36279,-0.978286411841001,0.096437018387121,-0.125246051728084
1580420522.39477,-0.919203479056993,0.0334477759975584,-0.165285725185015
1580420522.42674,-0.942153047989624,0.0427252613107498,-0.293217364766919
1580420522.45871,-1.03297474631876,0.0827649347676811,-0.162355992980849
1580420522.49068,-0.92457465476463,0.343999389639123,-0.133546959639887
1580420522.52266,-0.967055771725033,0.405523765926603,-0.269291218432899
1580420522.55463,-0.988052185854887,0.2605020218204,-0.0974135957885096
1580420522.5866,-0.92799267566949,0.143312733653772,-0.216067750057221
1580420522.61857,-0.986587319752804,0.145265888456549,-0.150148775463492
1580420522.65055,-0.978774700541695,0.25024795910582,-0.161867704280155
1580420522.68252,-0.956313420309758,0.251224536507209,-0.199465934233615
1580420522.71449,-0.907972838941024,0.176028076600289,-0.152101930266269
1580420522.74646,-0.940199893186847,0.226321812771801,-0.183352407110704
1580420522.77844,-0.943617914091707,0.244388494697489,-0.192629892423895
1580420522.81041,-0.999282825970855,0.231204699778743,-0.176028076600289
1580420522.84238,-0.952895399404898,0.204837109941252,-0.183352407110704
1580420522.87435,-0.953871976806287,0.229739833676661,-0.175051499198901
1580420522.90633,-0.947524223697261,0.226321812771801,-0.210208285648889
1580420522.9383,-0.991958495460441,0.139406424048218,-0.197024490730143
1580420522.97027,-0.982192721446555,0.154055085069047,-0.238529030289158
1580420523.00224,-0.975356679636835,0.253177691309986,-0.251712825207905
1580420523.03422,-0.901136797131304,0.23999389639124,-0.247806515602349
1580420523.0665,-0.990005340657664,0.355230029755091,-0.238040741588463
1580420523.09847,-1.05250629434653,0.276127260242617,-0.260013733119708
1580420523.13044,-0.920180056458381,0.106691081101701,-0.183840695811398
1580420523.16242,-0.947524223697261,0.113038834210727,-0.222415503166246
1580420523.19439,-0.914808880750744,0.181399252307926,-0.0993667505912867
1580420523.22636,-0.937270160982681,0.161379415579461,-0.162844281681544
1580420523.25833,-0.888441290913253,0.099855039291981,-0.264408331425956
1580420523.2903,-0.923598077363241,0.185305561913481,-0.218997482261386
1580420523.32228,-1.01100175478752,0.315678644998854,-0.144777599755855
1580420523.35425,-0.96559090562295,0.206790264744029,-0.135988403143358
1580420523.38622,-0.923109788662547,0.228763256275272,-0.118898298619058
1580420523.41819,-0.983169298847944,0.228274967574578,-0.230228122377355
1580420523.45017,-0.91090257114519,0.163820859082932,-0.195559624628061
1580420523.48214,-0.908949416342413,0.280521858548866,-0.301029983978028
1580420523.51411,-1.14186312657359,0.309819180590523,-0.270267795834288
1580420523.54608,-1.03346303501946,0.266361486228732,-0.202883955138475
1580420523.57806,-0.968032349126421,0.0363775082017241,-0.236087586785686
1580420523.61003,-0.89381246662089,0.138918135347524,-0.117433432516975
1580420523.642,-0.966567483024338,0.485114824139771,-0.160402838178072
1580420523.67397,-0.956313420309758,0.368413824673837,-0.120363164721141
1580420523.70595,-0.928480964370184,-0.0427252613107498,-0.171633478294041
1580420523.73792,-0.896253910124361,-0.0427252613107498,-0.118898298619058
1580420523.76989,-0.996841382467384,0.319584954604409,-0.103273060196841
1580420523.80186,-1.01588464179446,0.317631799801632,-0.226321812771801
1580420523.83383,-0.948012512397955,0.0651865415426869,-0.331303883421073
1580420523.86581,-0.961684596017395,0.0656748302433812,-0.205813687342641
1580420523.89778,-1.00563057907988,0.236087586785686,-0.00805676356145568
1580420523.92975,-1.01539635309377,0.29126420996414,0.138918135347524
1580420523.96172,-0.916762035553521,0.447516594186311,-0.138429846646829
1580420523.9937,-0.981216144045167,0.312748912794689,-0.264408331425956
1580420524.02567,-0.892835889219501,-0.0749523155565726,-0.0778820477607383
1580420524.05764,-0.922133211261158,0.244388494697489,-0.362066071564813
1580420524.08961,-0.948989089799344,0.0578622110322726,-0.173586633096818
1580420524.12159,-1.12526131074998,0.26733806363012,-0.327885862516213
1580420524.15356,-1.1574883649958,0.220950637064163,-0.169192034790569
1580420524.18553,-1.01393148699168,0.239017318989852,-0.159914549477378
1580420524.2175,-0.97584496833753,0.198001068131532,-0.226321812771801
1580420524.24948,-0.928969253070878,0.204837109941252,-0.198489356832226
1580420524.28145,-0.948012512397955,0.0524910353246355,-0.139406424048218
1580420524.31342,-0.845471885252156,0.140383001449607,-0.165774013885709
1580420524.34515,-0.978286411841001,0.237064164187075,-0.0744640268558783
1580420524.37713,-0.898207064927139,-0.0422369726100555,-0.169680323491264
1580420524.4091,-0.881116960402839,0.102296482795452,-0.0847180895704582
1580420524.44107,-0.956313420309758,0.283451590753032,-0.148195620660715
1580420524.47304,-1.05348287174792,0.223880369268329,-0.193118181124589
1580420524.50501,-0.961196307316701,0.0876478217746239,-0.221438925764858
1580420524.53699,-0.922133211261158,0.0837415121690697,-0.219485770962081
1580420524.56896,-0.985610742351415,0.201419089036392,-0.164309147783626
1580420524.60093,-1.11061264972915,0.450934615091171,-0.0700694285496297
1580420524.63291,-1.0808270389868,0.674082551308462,-0.0769054703593497
1580420524.66488,-1.02369726100557,0.3117723353933,-0.146242465857938
1580420524.69685,-0.996841382467384,-0.0974135957885096,-0.175539787899595
1580420524.72882,-0.88697642481117,-0.180422674906538,-0.116945143816281
1580420524.76079,-0.875257495994507,0.0251468680857556,-0.167238879987792
1580420524.79277,-0.994399938963912,0.268314641031509,-0.111573968108644
1580420524.82474,-1.04762340733959,0.320073243305103,-0.0129396505683985
1580420524.85671,-0.937758449683376,0.305912870984969,-0.287357900358588
1580420524.88868,-0.987075608453498,0.333745326924543,-0.245365072098878
1580420524.92066,-0.982192721446555,0.0222171358815899,-0.103273060196841
1580420524.95263,-1.02906843671321,0.0632333867399097,-0.319096665903716
1580420524.9846,-0.981704432745861,0.103273060196841,-0.105714503700312
1580420525.01657,-1.03053330281529,0.502693217364769,-0.211184863050278
1580420525.04855,-0.985610742351415,0.202883955138475,-0.202883955138475
1580420525.08052,-0.904554818036164,-0.0266117341878385,-0.203860532539863
1580420525.11249,-0.927016098268101,0.0988784618905925,-0.183352407110704
1580420525.14446,-0.957778286411841,-0.00659189745937283,-0.187258716716258
1580420525.17644,-0.88014038300145,0.0861829556725411,-0.141359578850995
1580420525.20841,-0.963149462119478,0.368902113374531,-0.180422674906538
1580420525.24038,-1.02223239490349,0.273197528038452,-0.151125352864881
1580420525.27235,-1.01002517738613,0.133058670939192,-0.189700160219729
1580420525.30433,-0.905043106736859,0.0549324788281069,-0.263920042725262
1580420525.3363,-0.949965667200733,0.331303883421072,-0.261966887922485
1580420525.36827,-1.07887388418402,0.271732661936369,0.0354009308003356
1580420525.40024,-0.915297169451438,0.279545281147477,-0.157473105973907
1580420525.43221,-0.954848554207675,0.0988784618905925,-0.202883955138475
1580420525.46419,-0.930434119172961,0.0490730144197755,-0.155519951171129
1580420525.49616,-0.972915236133364,0.170656900892652,-0.0114747844663157
1580420525.52813,-0.984634164950027,0.271244373235675,-0.110597390707255
1580420525.5601,-0.930434119172961,0.181887541008621,-0.101808194094758
1580420525.59208,-0.926527809567407,-0.0324711985961699,-0.241947051194018
1580420525.62399,-1.0041657129778,0.145265888456549,-0.179934386205844
1580420525.65596,-1.05641260395209,0.401129167620354,-0.160891126878766
1580420525.68794,-1.0036774242771,0.367437247272449,-0.0651865415426869
1580420525.71991,-1.00270084687572,0.221438925764858,-0.136964980544747
1580420525.75188,-0.926527809567407,-0.0422369726100555,-0.307866025787748
1580420525.78385,-0.912855725947967,0.0187991149767299,-0.116945143816281
1580420525.81583,-1.05250629434653,0.202883955138475,-0.199954222934309
1580420525.8478,-0.958266575112535,0.194094758525978,-0.359136339360647
1580420525.87977,-1.03248645761807,0.0744640268558783,-0.11792172121767
1580420525.91174,-1.00904859998474,0.146730754558632,-0.193118181124589
1580420525.94372,-0.960708018616007,0.223880369268329,-0.185305561913481
1580420525.97569,-0.98609903105211,0.161379415579461,-0.139406424048218
1580420526.00766,-0.91773861295491,0.0856946669718468,-0.190676737621118
1580420526.03963,-0.918226901655604,0.0456549935149155,-0.198001068131532
1580420526.07161,-0.944594491493095,0.135011825741969,-0.157473105973907
1580420526.10358,-1.00172426947433,0.350347142748149,-0.129640650034332
1580420526.13555,-0.990493629358358,0.131105516136415,-0.167727168688486
1580420526.16752,-1.0036774242771,0.0422369726100555,-0.182864118410009
1580420526.1995,-0.993423361562524,0.135500114442664,-0.174563210498206
1580420526.23147,-0.92457465476463,0.154055085069047,-0.251712825207905
1580420526.26344,-1.03346303501946,0.278568703746089,-0.160891126878766
1580420526.29541,-1.00758373388266,0.304448004882886,-0.160891126878766
1580420526.32739,-0.963637750820173,0.331303883421072,-0.0114747844663157
1580420526.35936,-0.937270160982681,0.0769054703593497,-0.0651865415426869
1580420526.39133,-0.986587319752804,-0.24682993820096,0.0300297550926985
1580420526.4233,-0.802990768291753,0.227298390173189,-0.184328984512092
1580420526.45527,-0.95533684290837,0.45191119249256,-0.162355992980849
1580420526.48725,-1.05836575875486,0.377691309987028,-0.0710460059510183
1580420526.51922,-1.03932249942779,0.183840695811398,-0.0617685206378269
1580420526.55119,-0.904554818036164,-0.10424963759823,-0.277592126344702
1580420526.58316,-1.0383459220264,-0.263431754024568,-0.264896620126651
1580420526.61514,-0.94166475928893,0.519783321889069,-0.0681162737468526
1580420526.64711,-1.07936217288472,0.641367208361945,-0.224368657969023
1580420526.67908,-1.03541618982223,-0.00122072175173571,-0.272220950637065
1580420526.71105,-0.969985503929198,-0.131593804837109,-0.12475776302739
1580420526.74303,-0.925551232166018,0.199954222934309,-0.168215457389181
1580420526.775,-0.967055771725033,0.0456549935149155,-0.133058670939192
1580420526.80697,-0.91432059205005,-0.0725108720531011,-0.0891126878767068
1580420526.83894,-0.878675516899367,0.105226214999618,-0.0402838178072784
1580420526.87092,-0.90748455024033,0.23315785458152,-0.041260395208667
1580420526.90317,-0.978286411841001,0.292729076066223,-0.106202792401007
1580420526.93514,-0.92115663385977,-0.0422369726100555,-0.0690928511482412
1580420526.96711,-0.90064850843061,-0.0764171816586554,0.0642099641412983
1580420526.99908,-0.993911650263218,-0.00122072175173571,0.0437018387121384
1580420527.03106,-0.936781872281987,-0.116945143816281,0.0197756923781185
1580420527.06303,-0.978774700541695,-0.143801022354467,0.189211871519035
1580420527.095,-1.04762340733959,0.216067750057221,0.370855268177309
1580420527.12697,-0.827405203326467,0.397711146715494,0.193606469825284
1580420527.15895,-0.869398031586176,-0.067139696345464,0.416266117341877
1580420527.19092,-0.800549324788282,-0.197024490730143,0.320073243305103
1580420527.22289,-0.769787136644542,-0.0891126878767068,0.345464255741206
1580420527.25486,-0.747325856412603,-0.185793850614175,0.500251773861297
1580420527.28684,-0.82545204852369,-0.0871595330739297,0.51880674448768
1580420527.31881,-0.935805294880598,-0.0144045166704814,0.602792401007097
1580420527.35078,-0.932387273975738,-0.0852063782711525,0.601327534905014
1580420527.38275,-1.05397116044862,-0.156984817273212,0.599862668802931
1580420527.41473,-1.04176394293126,-0.123781185626001,0.602304112306403
1580420527.4467,-0.913832303349356,-0.174074921797512,0.568123903257803
1580420527.47867,-0.906507972838941,-0.0734874494544897,0.522713054093234
1580420527.51064,-0.883070115205616,0.150637064164187,0.532967116807814
1580420527.54262,-0.819104295414665,0.0368657969024184,0.562264438849471
1580420527.57459,-1.05690089265278,-0.304936293583582,0.586678873884185
1580420527.60656,-1.07154955367361,-0.408941786831464,0.388433661402303
1580420527.63853,-1.12672617685206,-0.0427252613107498,0.482185091935605
1580420527.67051,-1.1745784695201,0.01196307316701,0.3459525444419
1580420527.70248,-1.12428473334859,-0.108155947203784,0.419195849546043
1580420527.73445,-1.08668650339513,-0.0935072861829553,0.392828259708551
1580420527.76642,-1.03590447852293,-0.177492942702372,0.399664301518271
1580420527.79839,-0.947524223697261,-0.162355992980849,0.422613870450903
1580420527.83037,-0.889906157015336,-0.109620813305867,0.420172426947431
1580420527.86234,-0.844983596551462,-0.157473105973907,0.449958037689782
1580420527.89431,-0.805432211795225,-0.122316319523918,0.461676966506445
1580420527.92628,-1.11110093842985,-0.119386587319752,0.607186999313345
1580420527.95826,-0.412359807736324,-0.292729076066225,0.888929579613947
1580420527.99023,-0.933363851377127,-0.348393987945373,0.474372472724497
1580420528.0222,-0.758068207827879,-0.138429846646829,0.591561760891128
1580420528.05417,-0.806897077897307,-0.122804608224612,0.471442740520331
1580420528.08615,-0.821057450217442,-0.176516365300984,0.599862668802931
1580420528.11812,-0.853772793163959,-0.132570382238498,0.538826581216146
1580420528.15009,-0.862073701075762,-0.175051499198901,0.519295033188374
1580420528.18182,-0.854261081864653,-0.175051499198901,0.541268024719617
1580420528.2138,-0.841077286945907,-0.151613641565575,0.527595941100177
1580420528.24577,-0.866956588082704,-0.150637064164187,0.53247882810712
1580420528.27774,-0.879163805600061,-0.119386587319752,0.502693217364769
1580420528.30971,-0.83912413214313,-0.0969253070878153,0.510505836575877
1580420528.34168,-0.82545204852369,-0.108644235904478,0.463630121309222
1580420528.37366,-0.942641336690318,-0.320073243305105,0.537850003814757
1580420528.40563,-0.80836194399939,-0.448981460288396,0.57349507896544
1580420528.4376,-0.82545204852369,-0.10424963759823,0.525154497596706
1580420528.46957,-0.864515144579233,-0.0144045166704814,0.502693217364769
1580420528.50155,-0.958266575112535,-0.0476081483176927,0.656504158083468
1580420528.53352,-0.863538567177844,-0.228763256275272,0.36646066987106
1580420528.56549,-0.915785458152133,-0.277103837644008,0.436774242771037
1580420528.59747,-0.884534981307699,-0.153566796368352,0.421637293049514
1580420528.62944,-0.861097123674373,-0.109620813305867,0.442145418478674
1580420528.66141,-0.912367437247273,-0.150637064164187,0.409918364232851
1580420528.69338,-0.940199893186847,-0.123781185626001,0.4143129625391
1580420528.72535,-0.939711604486153,-0.121828030823224,0.424078736552985
1580420528.75733,-0.898695353627833,-0.184817273212786,0.418219272144654
1580420528.7893,-0.885023270008393,-0.267338063630122,0.423102159151597
1580420528.82127,-0.86988632028687,-0.280033569848174,0.429938200961317
1580420528.85324,-0.86646829938201,-0.218509193560692,0.451422903791865
1580420528.88522,-0.912855725947967,-0.160402838178072,0.402105745021743
1580420528.91719,-0.937758449683376,-0.158937972075989,0.398199435416188
1580420528.94916,-0.925551232166018,-0.198977645532921,0.389898527504386
1580420528.98113,-0.925062943465324,-0.208255130846112,0.340093080033569
1580420529.01311,-0.925551232166018,-0.184817273212786,0.33228046082246
1580420529.04508,-0.944106202792401,-0.159426260776684,0.336186770428014
1580420529.07705,-0.933852140077821,-0.181399252307926,0.356694895857174
1580420529.10902,-0.928480964370184,-0.202883955138475,0.340093080033569
1580420529.141,-0.941176470588236,-0.203860532539863,0.317143511100937
1580420529.17297,-0.940688181887541,-0.222903791866941,0.32544441901274
1580420529.20494,-0.936293583581293,-0.208743419546806,0.348882276646066
1580420529.23691,-0.935805294880598,-0.203860532539863,0.345464255741206
1580420529.26888,-0.919203479056993,-0.227786678873883,0.360601205462729
1580420529.30086,-0.93141069657435,-0.210208285648889,0.342046234836346
1580420529.33283,-0.945571068894484,-0.192629892423895,0.326909285114823
1580420529.3648,-0.938735027084764,-0.198977645532921,0.334721904325932
1580420529.39678,-0.922133211261158,-0.197024490730143,0.3288624399176
1580420529.42875,-0.929945830472267,-0.202395666437781,0.33911650263218
1580420529.46078,-0.915785458152133,-0.229739833676661,0.336186770428014
1580420529.49276,-0.926039520866713,-0.217044327458609,0.330815594720377
1580420529.52473,-0.930434119172961,-0.208255130846112,0.361089494163423
1580420529.5567,-0.908461127641718,-0.223392080567635,0.347905699244677
1580420529.58867,-0.922133211261158,-0.232181277180132,0.350347142748149
1580420529.62065,-0.93141069657435,-0.206790264744029,0.344975967040511
1580420529.65262,-0.926039520866713,-0.23999389639124,0.331303883421072
1580420529.68459,-0.930922407873656,-0.219974059662775,0.322514686808574
1580420529.71656,-0.93141069657435,-0.206301976043335,0.33569848172732
1580420529.74854,-0.929945830472267,-0.205813687342641,0.321538109407186
1580420529.78051,-0.928969253070878,-0.210208285648889,0.327885862516212
1580420529.81248,-0.949477378500038,-0.222903791866941,0.307866025787746
1580420529.84445,-0.94166475928893,-0.225833524071106,0.29126420996414
1580420529.87643,-0.954360265506981,-0.180422674906538,0.264408331425955
1580420529.9084,-0.95533684290837,-0.197512779430838,0.280521858548866
1580420529.94037,-0.94166475928893,-0.220950637064163,0.279056992446783
1580420529.97234,-0.955825131609064,-0.205325398641946,0.287357900358586
1580420530.00431,-0.941176470588236,-0.212161440451666,0.282963302052337
1580420530.03629,-0.932387273975738,-0.231692988479438,0.288334477759975
1580420530.06826,-0.936293583581293,-0.205813687342641,0.280521858548866
1580420530.10023,-0.951430533302815,-0.193118181124589,0.286869611657892
1580420530.13221,-0.952407110704204,-0.196047913328755,0.257572289616235
1580420530.16418,-0.959731441214618,-0.184817273212786,0.272709239337757
1580420530.19615,-0.97242694743267,-0.145754177157244,0.240482185091935
1580420530.22812,-0.985610742351415,-0.176516365300984,0.191165026321812
1580420530.26009,-0.990981918059052,-0.162355992980849,0.201907377737086
1580420530.29207,-0.997329671168078,-0.146242465857938,0.181887541008621
1580420530.32404,-0.986587319752804,-0.171633478294041,0.192141603723201
1580420530.35601,-0.965102616922255,-0.176028076600289,0.210208285648889
1580420530.38798,-0.999282825970855,-0.170168612191958,0.212161440451666
1580420530.41996,-0.949965667200733,-0.173098344396124,0.231204699778743
1580420530.45193,-0.95533684290837,-0.197024490730143,0.2605020218204
1580420530.4839,-0.96559090562295,-0.192141603723201,0.254642557412069
1580420530.51587,-0.953383688105593,-0.218997482261386,0.25366598001068
1580420530.54785,-0.954848554207675,-0.229739833676661,0.254154268711375
1580420530.57982,-0.952407110704204,-0.232181277180132,0.241947051194018
1580420530.61179,-0.959731441214618,-0.201907377737086,0.229739833676661
1580420530.64376,-0.981704432745861,-0.185305561913481,0.232669565880826
1580420530.67574,-0.990493629358358,-0.206301976043335,0.240482185091935
1580420530.70771,-0.964126039520867,-0.215091172655832,0.231692988479438
1580420530.73975,-0.968520637827115,-0.23999389639124,0.25024795910582
1580420530.77172,-0.951430533302815,-0.219485770962081,0.285404745555809
1580420530.80369,-0.939223315785458,-0.191653315022506,0.313725490196077
1580420530.83566,-0.885999847409781,-0.271732661936371,0.330815594720377
1580420530.86764,-0.874769207293813,-0.242435339894712,0.392828259708551
1580420530.89961,-0.926039520866713,-0.166262302586404,0.419195849546043
1580420530.93158,-0.896742198825056,-0.245365072098878,0.356694895857174
1580420530.96355,-0.904554818036164,-0.229251544975966,0.354741741054397
1580420530.99552,-0.945571068894484,-0.170656900892652,0.346929121843289
1580420531.0275,-0.93482871747921,-0.227786678873883,0.343511100938429
1580420531.05947,-0.933852140077821,-0.177004654001678,0.343999389639123
1580420531.09144,-0.923598077363241,-0.176028076600289,0.364507515068283
1580420531.12341,-0.915297169451438,-0.260502021820402,0.375738155184251
1580420531.15539,-0.885023270008393,-0.241947051194018,0.376226443884946
1580420531.18736,-0.891371023117419,-0.156984817273212,0.401617456321048
1580420531.21933,-0.942153047989624,-0.174074921797512,0.40064087891966
1580420531.2513,-0.969497215228504,-0.145265888456549,0.364507515068283
1580420531.28328,-0.988052185854887,0.00170901045242999,0.352300297550926
1580420531.31525,-0.917250324254216,-0.0339360646982527,0.439215686274508
1580420531.34722,-0.803967345693142,-0.260013733119708,0.506599526970323
1580420531.37919,-0.752697032120242,-0.447516594186313,0.565682459754331
1580420531.41117,-0.716075379568169,-0.311284046692608,0.60767528801404
1580420531.44314,-0.742931258106355,-0.170168612191958,0.58374914168002
1580420531.47511,-0.780041199359122,-0.0686045624475469,0.490974288548102
1580420531.50708,-0.867444876783399,-0.345952544441902,0.499275196459905
1580420531.53906,-0.850843060959793,-0.49390402075227,0.558846417944611
1580420531.57103,-0.968032349126421,-0.0251468680857556,0.458258945601585
1580420531.603,-0.909925993743801,0.136476691844052,0.471931029221025
1580420531.63497,-0.90748455024033,-0.234622720683603,0.432867933165483
1580420531.66695,-0.827893492027162,-0.365484092469673,0.401129167620354
1580420531.69892,-0.906996261539636,-0.200930800335698,0.385503929198137
1580420531.73089,-0.906996261539636,-0.134523537041275,0.468024719615471
1580420531.76286,-0.912367437247273,-0.0163576714732585,0.466559853513388
1580420531.79483,-0.925062943465324,-0.106202792401007,0.3972228580148
1580420531.82681,-0.945571068894484,-0.180422674906538,0.351812008850231
1580420531.85878,-0.93482871747921,-0.144777599755855,0.356694895857174
1580420531.89075,-0.942153047989624,-0.107179369802395,0.371343556878003
1580420531.92272,-0.92457465476463,-0.180422674906538,0.40064087891966
1580420531.9547,-0.895765621423667,-0.257572289616236,0.418219272144654
1580420531.98667,-0.89039444571603,-0.241458762493323,0.430426489662011
1580420532.01904,-0.86646829938201,-0.217532616159303,0.471931029221025
1580420532.05101,-0.89723048752575,-0.187747005416952,0.421637293049514
1580420532.08299,-0.902113374532693,-0.208255130846112,0.40405889982452
1580420532.11496,-0.894789044022279,-0.230228122377355,0.410406652933546
1580420532.14693,-0.918715190356298,-0.183352407110704,0.386480506599526
1580420532.17891,-0.926039520866713,-0.216556038757915,0.351323720149537
1580420532.21088,-0.954848554207675,-0.172610055695429,0.353276874952314
1580420532.24285,-0.944594491493095,-0.143312733653772,0.367437247272449
1580420532.27482,-0.86988632028687,-0.235111009384298,0.400152590218966
1580420532.30679,-0.870374608987564,-0.300053406576639,0.427008468757151
1580420532.33877,-0.862073701075762,-0.274662394140536,0.454352635996031
1580420532.37074,-0.888441290913253,-0.221927214465552,0.457770656900891
1580420532.40271,-0.877210650797284,-0.260990310521096,0.43823910887312
1580420532.43468,-0.867444876783399,-0.293217364766919,0.409918364232851
1580420532.46666,-0.874769207293813,-0.32642099641413,0.402594033722437
1580420532.49863,-0.883070115205616,-0.304448004882888,0.388921950102997
1580420532.5306,-0.918226901655604,-0.251712825207905,0.370366979476614
1580420532.56257,-0.913832303349356,-0.2434119172961,0.367437247272449
1580420532.59455,-0.938735027084764,-0.227298390173189,0.334233615625237
1580420532.62652,-0.959243152513924,-0.212649729152361,0.278080415045395
1580420532.65849,-0.942153047989624,-0.260013733119708,0.276615548943312
1580420532.69046,-0.952407110704204,-0.210208285648889,0.264896620126649
1580420532.72244,-0.931898985275044,-0.243900205996795,0.281498435950255
1580420532.75441,-0.91773861295491,-0.286381322957199,0.302983138780803
1580420532.78638,-0.929457541771573,-0.219974059662775,0.276615548943312
1580420532.81835,-0.950453955901427,-0.270267795834288,0.275150682841229
1580420532.85032,-0.94508278019379,-0.242923628595406,0.245365072098878
1580420532.8823,-0.947524223697261,-0.230716411078049,0.25366598001068
1580420532.91427,-0.937270160982681,-0.245853360799572,0.269779507133592
1580420532.94624,-0.921644922560464,-0.251224536507211,0.268314641031509
1580420532.97821,-0.950453955901427,-0.259037155718319,0.23315785458152
1580420533.01019,-0.935805294880598,-0.236087586785686,0.29126420996414
1580420533.04216,-0.930922407873656,-0.263431754024568,0.275150682841229
1580420533.07413,-0.952407110704204,-0.245365072098878,0.213138017853055
1580420533.1061,-0.977798123140307,-0.224368657969023,0.174563210498206
1580420533.13808,-0.986587319752804,-0.235111009384298,0.184328984512092
1580420533.17005,-0.946547646295873,-0.267826352330816,0.206301976043335
1580420533.20202,-0.943617914091707,-0.251712825207905,0.239505607690546
1580420533.23399,-0.94166475928893,-0.232669565880826,0.273197528038452
1580420533.26597,-0.940688181887541,-0.247318226901655,0.273685816739146
1580420533.29761,-0.950453955901427,-0.229251544975966,0.234622720683603
1580420533.32958,-0.967055771725033,-0.197024490730143,0.179446097505149
1580420533.36155,-0.981216144045167,-0.203860532539863,0.175539787899595
1580420533.39352,-0.984145876249332,-0.201419089036392,0.175539787899595
1580420533.4255,-0.976333257038224,-0.163332570382238,0.189700160219729
1580420533.45747,-0.990981918059052,-0.187747005416952,0.179446097505149
1580420533.48944,-0.964126039520867,-0.223392080567635,0.186770428015564
1580420533.52141,-0.957778286411841,-0.238040741588463,0.211184863050278
1580420533.55339,-0.933852140077821,-0.231692988479438,0.238529030289158
1580420533.58536,-0.932387273975738,-0.259037155718319,0.240970473792629
1580420533.61733,-0.940199893186847,-0.282963302052339,0.235111009384298
1580420533.6493,-0.949477378500038,-0.248294804303043,0.210696574349583
1580420533.68128,-0.966079194323644,-0.219485770962081,0.214114595254443
1580420533.71325,-0.975356679636835,-0.201907377737086,0.211673151750972
1580420533.74522,-0.960219729915313,-0.187747005416952,0.205325398641946
1580420533.77719,-0.97242694743267,-0.177004654001678,0.168703746089875
1580420533.80917,-0.94850080109865,-0.212649729152361,0.225833524071106
1580420533.84114,-0.943617914091707,-0.257084000915542,0.232181277180132
1580420533.87311,-0.951430533302815,-0.228763256275272,0.228274967574578
1580420533.90508,-0.987075608453498,-0.247806515602349,0.186282139314869
1580420533.93705,-1.02565041580835,-0.200442511635003,0.109620813305867
1580420533.96903,-1.01197833218891,-0.228274967574578,0.170656900892652
1580420534.001,-0.951430533302815,-0.305912870984971,0.310307469291217
1580420534.03297,-0.929945830472267,-0.196536202029449,0.30151827267872
1580420534.06494,-0.90748455024033,-0.168215457389181,0.306401159685663
1580420534.09692,-0.916273746852827,-0.300541695277333,0.312260624093994
1580420534.12889,-0.918226901655604,-0.239017318989852,0.348393987945371
1580420534.16086,-0.892347600518807,-0.211673151750972,0.341069657434957
1580420534.19283,-0.884534981307699,-0.352788586251622,0.317143511100937
1580420534.22481,-0.902113374532693,-0.221438925764858,0.367925535973143
1580420534.25678,-0.941176470588236,-0.162355992980849,0.301029983978026
1580420534.28875,-0.865003433279927,-0.287357900358588,0.335210193026626
1580420534.32072,-0.904554818036164,-0.241947051194018,0.347417410543983
1580420534.3527,-0.878675516899367,-0.228763256275272,0.317631799801632
1580420534.38467,-0.94850080109865,-0.356694895857176,0.435797665369648
1580420534.41664,-0.867444876783399,-0.201907377737086,0.429938200961317
1580420534.44861,-0.882581826504921,-0.143801022354467,0.389410238803691
1580420534.48059,-0.912855725947967,-0.227298390173189,0.40064087891966
1580420534.51256,-0.93824673838407,-0.251712825207905,0.318120088502326
1580420534.54453,-0.959731441214618,-0.144777599755855,0.312260624093994
1580420534.5766,-0.953871976806287,-0.177004654001678,0.302983138780803
1580420534.60857,-0.92799267566949,-0.277103837644008,0.25366598001068
1580420534.64054,-0.94850080109865,-0.273197528038454,0.274662394140535
1580420534.67252,-0.947035934996567,-0.184328984512092,0.283451590753032
1580420534.70449,-0.95191882200351,-0.158937972075989,0.248783093003738
1580420534.73646,-0.948012512397955,-0.231692988479438,0.244876783398183
1580420534.76844,-0.953871976806287,-0.229251544975966,0.26733806363012
1580420534.80041,-0.94166475928893,-0.225345235370412,0.26733806363012
1580420534.83238,-0.929457541771573,-0.220950637064163,0.30151827267872
1580420534.86435,-0.942641336690318,-0.234134431982909,0.281986724650949
1580420534.89633,-0.918226901655604,-0.228274967574578,0.273197528038452
1580420534.9283,-0.942153047989624,-0.184817273212786,0.31860837720302
1580420534.96027,-0.930922407873656,-0.191653315022506,0.272220950637063
1580420534.99225,-0.972915236133364,-0.258548867017625,0.28101014724956
1580420535.02422,-0.987563897154192,-0.217532616159303,0.0949721522850382
1580420535.05619,-0.978286411841001,-0.232669565880826,0.231204699778743
1580420535.08817,-0.930434119172961,-0.293217364766919,0.219974059662775
1580420535.12014,-0.919691767757687,-0.316655222400245,0.309330891889829
1580420535.15211,-0.907972838941024,-0.307866025787748,0.29810025177386
1580420535.18408,-0.94850080109865,-0.273685816739148,0.249759670405126
1580420535.21606,-0.949477378500038,-0.379156176089113,0.180422674906538
1580420535.24803,-0.967055771725033,-0.310795757991913,0.129640650034332
1580420535.28,-0.98609903105211,-0.198001068131532,0.162355992980849
1580420535.31198,-0.969497215228504,-0.258548867017625,0.198001068131532
1580420535.34395,-0.915297169451438,-0.344975967040513,0.252689402609292
1580420535.37592,-0.876234073395896,-0.368413824673839,0.300053406576637
1580420535.40789,-0.885999847409781,-0.274174105439842,0.353276874952314
1580420535.43987,-0.961684596017395,-0.263920042725262,0.28101014724956
1580420535.47184,-0.989028763256275,-0.215091172655832,0.176028076600289
1580420535.50381,-1.01344319829099,-0.178957808804455,0.173098344396124
1580420535.53578,-0.992446784161135,-0.194583047226672,0.136476691844052
1580420535.56776,-0.959243152513924,-0.282963302052339,0.195071335927366
1580420535.59973,-0.946059357595178,-0.256595712214848,0.222903791866941
1580420535.6317,-0.945571068894484,-0.293217364766919,0.238040741588463
1580420535.66368,-0.910414282444496,-0.363530937666896,0.291752498664835
1580420535.69565,-0.896742198825056,-0.310795757991913,0.227786678873883
1580420535.72762,-0.910414282444496,-0.32300297550927,0.28442816815442
1580420535.75959,-0.967055771725033,-0.256107423514154,0.244388494697489
1580420535.79157,-0.973891813534753,-0.167727168688486,0.192141603723201
1580420535.82354,-0.967544060425727,-0.237064164187075,0.192629892423895
1580420535.85562,-0.988052185854887,-0.215091172655832,0.139894712748912
1580420535.88759,-0.959243152513924,-0.355718318455787,0.181399252307926
1580420535.91957,-0.925551232166018,-0.342046234836348,0.259525444419012
1580420535.95154,-0.936781872281987,-0.331303883421073,0.247318226901655
1580420535.98351,-0.92115663385977,-0.313237201495385,0.245365072098878
1580420536.01548,-0.923109788662547,-0.272709239337759,0.245853360799572
1580420536.04746,-0.897718776226444,-0.343999389639125,0.245853360799572
1580420536.07943,-0.905043106736859,-0.33325703822385,0.262943465323872
1580420536.1114,-0.91432059205005,-0.375249866483559,0.264408331425955
1580420536.14338,-0.918715190356298,-0.306401159685665,0.289799343862057
1580420536.17535,-0.935317006179904,-0.264896620126651,0.187258716716258
1580420536.20732,-0.947524223697261,-0.315678644998856,0.176516365300984
1580420536.2393,-0.988052185854887,-0.228763256275272,0.213138017853055
1580420536.27127,-0.966079194323644,-0.270756084534982,0.182375829709315
1580420536.30324,-0.964126039520867,-0.334721904325933,0.163332570382238
1580420536.33521,-0.948012512397955,-0.311284046692608,0.176516365300984
1580420536.36719,-0.93482871747921,-0.268802929732205,0.185793850614175
1580420536.39916,-0.911390859845884,-0.334721904325933,0.25366598001068
1580420536.43113,-0.91432059205005,-0.385992217898833,0.234134431982909
1580420536.46311,-0.901136797131304,-0.196536202029449,0.273685816739146
1580420536.49508,-0.95533684290837,-0.189700160219729,0.273685816739146
1580420536.52705,-0.966567483024338,-0.324467841611353,0.184817273212786
1580420536.55902,-0.974868390936141,-0.230716411078049,0.109620813305867
1580420536.591,-1.00953688868544,-0.0959487296864268,0.173586633096818
1580420536.62297,-0.971450370031281,-0.229251544975966,0.255619134813458
1580420536.65494,-0.928480964370184,-0.343999389639125,0.266361486228732
1580420536.68692,-0.91090257114519,-0.301518272678722,0.293217364766917
1580420536.71889,-0.921644922560464,-0.252201113908599,0.324956130312046
1580420536.75086,-0.96900892652781,-0.239505607690546,0.218997482261386
1580420536.78284,-0.956313420309758,-0.355230029755093,0.187258716716258
1580420536.81481,-0.976821545738918,-0.290287632562753,0.214114595254443
1580420536.84678,-0.935805294880598,-0.267826352330816,0.240970473792629
1580420536.87875,-0.876234073395896,-0.38110933089189,0.305424582284274
1580420536.91073,-0.85963225757229,-0.404547188525216,0.358159761959257
1580420536.9427,-0.888929579613947,-0.374761577782865,0.275150682841229
1580420536.97467,-0.90748455024033,-0.302006561379416,0.252201113908598
1580420537.00664,-0.95875486381323,-0.305424582284276,0.244876783398183
1580420537.03862,-0.92799267566949,-0.290775921263448,0.196047913328755
1580420537.07059,-0.947035934996567,-0.344487678339819,0.253177691309986
1580420537.10256,-0.922133211261158,-0.24682993820096,0.289799343862057
1580420537.13449,-0.90406652933547,-0.225833524071106,0.303959716182192
1580420537.16646,-0.931898985275044,-0.339116502632182,0.247806515602349
1580420537.19844,-0.956801709010453,-0.379156176089113,0.214602883955138
1580420537.23041,-0.961684596017395,-0.289799343862059,0.166750591287098
1580420537.26238,-0.965102616922255,-0.327885862516213,0.185305561913481
1580420537.29435,-0.936781872281987,-0.278568703746091,0.184817273212786
1580420537.32633,-0.903578240634776,-0.309330891889831,0.242435339894712
1580420537.3583,-0.865491721980622,-0.395757991912719,0.287357900358586
1580420537.39027,-0.92115663385977,-0.345464255741208,0.29126420996414
1580420537.42225,-0.923598077363241,-0.328374151216908,0.238040741588463
1580420537.45422,-0.95191882200351,-0.323491264209965,0.176516365300984
1580420537.48619,-0.930922407873656,-0.290287632562753,0.225833524071106
1580420537.51816,-0.922133211261158,-0.325932707713436,0.232669565880826
1580420537.55014,-0.893324177920196,-0.320073243305105,0.273197528038452
1580420537.58211,-0.908461127641718,-0.371343556878005,0.300053406576637
1580420537.61408,-0.945571068894484,-0.313237201495385,0.324956130312046
1580420537.64606,-0.946547646295873,-0.282963302052339,0.198001068131532
1580420537.67803,-1.01588464179446,-0.277592126344702,0.0563973449301898
1580420537.71,-1.02906843671321,-0.194583047226672,0.0515144579232469
1580420537.74197,-1.03932249942779,-0.122316319523918,0.0920424200808725
1580420537.77395,-0.984145876249332,-0.221438925764858,0.155031662470435
1580420537.80592,-0.885023270008393,-0.342046234836348,0.290775921263446
1580420537.83789,-0.860120546272984,-0.327397573815519,0.347417410543983
1580420537.86987,-0.855237659266042,-0.342046234836348,0.300053406576637
1580420537.90184,-0.874280918593119,-0.303471427481499,0.314702067597466
1580420537.93381,-0.919203479056993,-0.223880369268329,0.279056992446783
1580420537.96579,-0.959243152513924,-0.242435339894712,0.247318226901655
1580420537.99776,-0.948989089799344,-0.299565117875945,0.206790264744029
1580420538.02973,-1.03932249942779,-0.287846189059282,0.118410009918364
1580420538.0617,-0.945571068894484,-0.341557946135653,0.225833524071106
1580420538.09368,-0.851819638361182,-0.44946974898909,0.265873197528038
1580420538.12565,-0.88697642481117,-0.426031891355764,0.266361486228732
1580420538.15762,-0.894789044022279,-0.261966887922485,0.295658808270389
1580420538.1896,-0.892347600518807,-0.257084000915542,0.325932707713434
1580420538.22157,-0.929945830472267,-0.262943465323874,0.259037155718318
1580420538.25354,-0.941176470588236,-0.34009308003357,0.240482185091935
1580420538.28551,-0.92799267566949,-0.310307469291219,0.176516365300984
1580420538.31749,-0.956801709010453,-0.210696574349583,0.229739833676661
1580420538.34946,-0.951430533302815,-0.351323720149539,0.259525444419012
1580420538.38143,-0.944594491493095,-0.331792172121768,0.213626306553749
1580420538.41345,-0.930434119172961,-0.282963302052339,0.212649729152361
1580420538.44543,-0.891371023117419,-0.296635385671779,0.262943465323872
1580420538.4774,-0.895277332722973,-0.385992217898833,0.238529030289158
1580420538.50937,-0.922621499961853,-0.332280460822462,0.240482185091935
1580420538.54134,-0.96217288471809,-0.314213778896773,0.252201113908598
1580420538.57332,-0.961684596017395,-0.318608377203022,0.215091172655832
1580420538.60529,-0.905531395437553,-0.372808422980087,0.2434119172961
1580420538.63726,-0.889906157015336,-0.392828259708553,0.30835431448844
1580420538.66923,-0.899671931029221,-0.420172426947433,0.2775921263447
1580420538.70121,-0.880628671702144,-0.355718318455787,0.264896620126649
1580420538.73318,-0.911390859845884,-0.325444419012742,0.315678644998854
1580420538.76515,-0.927016098268101,-0.277592126344702,0.293705653467612
1580420538.79713,-0.924086366063936,-0.303471427481499,0.253177691309986
1580420538.8291,-0.92115663385977,-0.288822766460671,0.232669565880826
1580420538.86107,-0.92457465476463,-0.255130846112765,0.215579461356526
1580420538.89304,-0.939223315785458,-0.294682230869002,0.234622720683603
1580420538.92502,-0.949477378500038,-0.400152590218967,0.215091172655832
1580420538.95699,-0.950942244602121,-0.289799343862059,0.222415503166246
1580420538.98896,-0.943129625391013,-0.249759670405126,0.234622720683603
1580420539.02094,-0.936781872281987,-0.354253452353705,0.204348821240558
1580420539.05291,-0.95875486381323,-0.40845349813077,0.174563210498206
1580420539.08488,-0.937758449683376,-0.210696574349583,0.255619134813458
1580420539.11685,-0.932875562676433,-0.241947051194018,0.272709239337757
1580420539.14883,-0.947524223697261,-0.441168841077287,0.260990310521095
1580420539.1808,-0.864515144579233,-0.292240787365531,0.269779507133592
1580420539.21277,-0.913832303349356,-0.385992217898833,0.282475013351643
1580420539.24475,-0.968520637827115,-0.411383230334936,0.308842603189134
1580420539.27672,-0.915785458152133,-0.195071335927366,0.313725490196077
1580420539.30869,-0.93482871747921,-0.264896620126651,0.378667887388417
1580420539.34066,-0.933363851377127,-0.455329213397421,0.158449683375295
1580420539.37264,-0.92457465476463,-0.211184863050278,0.224368657969023
1580420539.40461,-0.962661173418784,-0.199465934233615,0.237064164187075
1580420539.43658,-0.933363851377127,-0.297123674372473,0.176516365300984
1580420539.46856,-0.962661173418784,-0.332768749523156,0.160402838178072
1580420539.50053,-0.950942244602121,-0.365972381170367,0.138429846646829
1580420539.5325,-0.937758449683376,-0.400152590218967,0.230228122377355
1580420539.56448,-0.906019684138247,-0.272220950637065,0.302494850080109
1580420539.59645,-0.902113374532693,-0.335698481727322,0.248783093003738
1580420539.62842,-0.891371023117419,-0.373296711680782,0.217044327458609
1580420539.66039,-0.952407110704204,-0.34351110093843,0.274662394140535
1580420539.69235,-0.93482871747921,-0.279545281147479,0.217532616159303
1580420539.72432,-0.91090257114519,-0.350835431448845,0.250736247806515
1580420539.7563,-0.898207064927139,-0.365484092469673,0.298588540474555
1580420539.78827,-0.868421454184787,-0.395269703212024,0.324956130312046
1580420539.82024,-0.885023270008393,-0.332768749523156,0.360601205462729
1580420539.85222,-0.917250324254216,-0.270756084534982,0.266849774929426
1580420539.88419,-0.898207064927139,-0.323491264209965,0.244876783398183
1580420539.91616,-0.939223315785458,-0.323979552910659,0.268802929732203
1580420539.94813,-0.940688181887541,-0.237064164187075,0.238040741588463
1580420539.98011,-0.935805294880598,-0.274174105439842,0.237064164187075
1580420540.01208,-0.922621499961853,-0.288822766460671,0.219974059662775
1580420540.04405,-0.906507972838941,-0.349370565346762,0.242923628595406
1580420540.07603,-0.91432059205005,-0.360112916762036,0.276615548943312
1580420540.108,-0.941176470588236,-0.309819180590525,0.255619134813458
1580420540.13997,-0.887464713511864,-0.296147096971085,0.295170519569695
1580420540.17194,-0.931898985275044,-0.32300297550927,0.234134431982909
1580420540.20392,-0.917250324254216,-0.354253452353705,0.304448004882886
1580420540.23589,-0.900160219729916,-0.263431754024568,0.279056992446783
1580420540.26786,-0.90748455024033,-0.44946974898909,0.285404745555809
1580420540.29984,-0.866956588082704,-0.348882276646068,0.357183184557869
1580420540.33181,-0.919203479056993,-0.226321812771801,0.296635385671777
1580420540.36378,-0.922621499961853,-0.364507515068285,0.205813687342641
1580420540.39575,-0.920668345159076,-0.306401159685665,0.268802929732203
1580420540.42773,-0.942153047989624,-0.229251544975966,0.272220950637063
1580420540.4597,-0.963637750820173,-0.465583276112001,0.130128938735027
1580420540.49167,-0.935805294880598,-0.150148775463492,0.210696574349583
1580420540.52365,-0.973891813534753,-0.136964980544747,0.205813687342641
1580420540.55562,-0.939223315785458,-0.510017547875181,0.152590218966964
1580420540.58759,-0.964126039520867,-0.24682993820096,0.155031662470435
1580420540.61957,-0.952895399404898,-0.230228122377355,0.171633478294041
1580420540.65154,-0.935317006179904,-0.447516594186313,0.240482185091935
1580420540.68351,-0.916273746852827,-0.223392080567635,0.336186770428014
1580420540.71548,-0.93824673838407,-0.151613641565575,0.275638971541923
1580420540.74746,-0.912367437247273,-0.372320134279393,0.248294804303043
1580420540.77943,-0.965102616922255,-0.306401159685665,0.182375829709315
1580420540.8114,-1.00465400167849,-0.135988403143358,0.163820859082932
1580420540.84338,-0.977798123140307,-0.206790264744029,0.219974059662775
1580420540.87535,-0.942641336690318,-0.287846189059282,0.160891126878766
1580420540.90732,-0.948989089799344,-0.281986724650951,0.191165026321812
1580420540.93929,-0.939711604486153,-0.357671473258565,0.223880369268329
1580420540.97153,-0.906019684138247,-0.33325703822385,0.35278858625162
1580420541.0035,-0.874280918593119,-0.296147096971085,0.351323720149537
1580420541.03547,-0.873792629892424,-0.352788586251622,0.379644464789806
1580420541.06745,-0.850843060959793,-0.348882276646068,0.354253452353703
1580420541.09942,-0.88355840390631,-0.37769130998703,0.310795757991912
1580420541.13139,-0.880628671702144,-0.37085526817731,0.289311055161363
1580420541.16336,-0.915297169451438,-0.326909285114825,0.249759670405126
1580420541.19534,-0.901136797131304,-0.315190356298162,0.213138017853055
1580420541.22731,-0.919691767757687,-0.34009308003357,0.224856946669718
1580420541.25928,-0.919691767757687,-0.321049820706493,0.223880369268329
1580420541.29126,-0.940199893186847,-0.292729076066225,0.200930800335698
1580420541.32323,-0.956313420309758,-0.290775921263448,0.189211871519035
1580420541.3552,-0.960219729915313,-0.297123674372473,0.203372243839169
1580420541.38717,-0.960708018616007,-0.302006561379416,0.185305561913481
1580420541.41915,-0.935317006179904,-0.303471427481499,0.209719996948195
1580420541.45112,-0.908461127641718,-0.331792172121768,0.234622720683603
1580420541.48309,-0.926039520866713,-0.317143511100939,0.184328984512092
1580420541.51507,-0.926039520866713,-0.363530937666896,0.214602883955138
1580420541.54704,-0.933852140077821,-0.349370565346762,0.263431754024566
1580420541.57901,-0.922133211261158,-0.224368657969023,0.220950637064163
1580420541.61098,-0.932875562676433,-0.291752498664836,0.197024490730143
1580420541.64296,-0.943617914091707,-0.410406652933547,0.2434119172961
1580420541.67493,-0.93824673838407,-0.32300297550927,0.247318226901655
1580420541.7069,-0.946059357595178,-0.341557946135653,0.219974059662775
1580420541.73888,-0.971450370031281,-0.327397573815519,0.161867704280155
1580420541.77085,-0.989028763256275,-0.190676737621118,0.105714503700312
1580420541.80282,-0.993911650263218,-0.221927214465552,0.132082093537804
1580420541.83479,-0.939711604486153,-0.332768749523156,0.150637064164187
1580420541.86677,-0.970473792629893,-0.295170519569696,0.137453269245441
1580420541.89874,-0.961196307316701,-0.341069657434959,0.124269474326695
1580420541.93071,-0.929457541771573,-0.275150682841231,0.231692988479438
1580420541.96269,-0.951430533302815,-0.279545281147479,0.249759670405126
1580420541.99466,-0.91432059205005,-0.300053406576639,0.213138017853055
1580420542.02663,-0.953871976806287,-0.235111009384298,0.212649729152361
1580420542.0586,-0.936293583581293,-0.322026398107882,0.225345235370412
1580420542.09058,-0.88355840390631,-0.35376516365301,0.324467841611352
1580420542.12255,-0.90406652933547,-0.331303883421073,0.330327306019683
1580420542.15452,-0.925062943465324,-0.390875104905776,0.272220950637063
1580420542.1865,-0.913832303349356,-0.315190356298162,0.231204699778743
1580420542.21847,-0.933363851377127,-0.305912870984971,0.193606469825284
1580420542.25018,-0.958266575112535,-0.237552452887769,0.246341649500266
1580420542.28216,-0.960708018616007,-0.156984817273212,0.206301976043335
1580420542.31413,-0.959731441214618,-0.206301976043335,0.236087586785686
1580420542.3461,-0.930434119172961,-0.268802929732205,0.200930800335698
1580420542.37807,-0.909437705043107,-0.361089494163425,0.219485770962081
1580420542.41005,-0.92457465476463,-0.314702067597468,0.270267795834286
1580420542.44202,-0.941176470588236,-0.289799343862059,0.237552452887769
1580420542.47399,-0.95191882200351,-0.247806515602349,0.249759670405126
1580420542.50597,-1.00074769207294,-0.136476691844052,0.148683909361409
1580420542.53794,-0.981704432745861,-0.261478599221791,0.197512779430838
1580420542.56991,-0.967055771725033,-0.332280460822462,0.198001068131532
1580420542.60188,-0.873792629892424,-0.307377737087053,0.278080415045395
1580420542.63386,-0.869398031586176,-0.353276874952316,0.302006561379415
1580420542.66583,-0.89381246662089,-0.390386816205082,0.322514686808574
1580420542.6978,-0.908949416342413,-0.311284046692608,0.313725490196077
1580420542.72978,-0.881116960402839,-0.367925535973145,0.297611963073166
1580420542.76175,-0.887953002212559,-0.428473334859236,0.284916456855115
1580420542.79372,-0.907972838941024,-0.296147096971085,0.323491264209963
1580420542.8257,-0.887953002212559,-0.292240787365531,0.343022812237734
1580420542.85767,-0.888441290913253,-0.38452735179675,0.345464255741206
1580420542.88964,-0.893324177920196,-0.358648050659953,0.310795757991912
1580420542.92161,-0.892835889219501,-0.335698481727322,0.338139925230792
1580420542.95359,-0.911879148546578,-0.314213778896773,0.284916456855115
1580420542.98556,-0.90406652933547,-0.368902113374533,0.280033569848172
1580420543.01753,-0.888929579613947,-0.303471427481499,0.286381322957197
1580420543.0495,-0.898207064927139,-0.352300297550928,0.268802929732203
1580420543.08148,-0.908461127641718,-0.38110933089189,0.336186770428014
1580420543.11345,-0.908461127641718,-0.415777828641184,0.310307469291217
1580420543.14542,-0.90748455024033,-0.325444419012742,0.255130846112763
1580420543.1774,-0.963637750820173,-0.249759670405126,0.205325398641946
1580420543.20937,-0.944106202792401,-0.404547188525216,0.173586633096818
1580420543.24134,-0.943129625391013,-0.220462348363469,0.199465934233615
1580420543.27331,-0.945571068894484,-0.363042648966202,0.251224536507209
1580420543.30529,-0.92457465476463,-0.361089494163425,0.210208285648889
1580420543.33726,-0.926527809567407,-0.253177691309988,0.273197528038452
1580420543.36923,-0.90748455024033,-0.334233615625239,0.281498435950255
1580420543.40121,-0.870862897688259,-0.371343556878005,0.251224536507209
1580420543.43318,-0.925062943465324,-0.386968795300222,0.219974059662775
1580420543.46515,-0.906019684138247,-0.348882276646068,0.23657587548638
1580420543.49712,-0.934340428778516,-0.249759670405126,0.186282139314869
1580420543.52923,-0.995376516365301,-0.254154268711376,0.155031662470435
1580420543.56121,-0.991470206759747,-0.267826352330816,0.0632333867399097
1580420543.59318,-0.98609903105211,-0.171633478294041,0.154543373769741
1580420543.62516,-0.991958495460441,-0.140383001449607,0.161867704280155
1580420543.65713,-0.929457541771573,-0.388433661402305,0.133546959639887
1580420543.6891,-0.963637750820173,-0.228274967574578,0.126710917830167
1580420543.72108,-1.01002517738613,-0.153566796368352,0.151613641565575
1580420543.75305,-0.939223315785458,-0.256595712214848,0.153078507667658
1580420543.78502,-0.95191882200351,-0.201907377737086,0.146730754558632
1580420543.817,-0.963637750820173,-0.187258716716258,0.141847867551689
1580420543.84897,-0.986587319752804,-0.381597619592585,0.175539787899595
1580420543.88094,-0.954360265506981,-0.23999389639124,0.149660486762798
1580420543.91292,-0.894300755321584,-0.183352407110704,0.226321812771801
1580420543.94489,-0.895765621423667,-0.444586861982147,0.272709239337757
1580420543.97686,-0.957778286411841,-0.219974059662775,0.187747005416952
