Timestamp_seconds,Accel_X_g,Accel_Y_g,Accel_Z_g
1580420491.26066,-0.990981918059052,0.112062256809338,-0.144777599755855
1580420491.29239,-0.971450370031281,0.0915541313801782,-0.141359578850995
1580420491.3241,-0.98609903105211,0.0856946669718468,-0.147219043259327
1580420491.3558,-0.99635309376669,0.101808194094758,-0.153566796368352
1580420491.38751,-0.98951705195697,0.108644235904478,-0.152590218966964
1580420491.41921,-0.977309834439613,0.117433432516975,-0.155031662470435
1580420491.45092,-0.986587319752804,0.0939955748836496,-0.147707331960021
1580420491.48263,-0.990981918059052,0.0842298008697639,-0.157473105973907
1580420491.51433,-0.974380102235447,0.0817883573662925,-0.178957808804455
1580420491.54604,-0.985122453650721,0.0935072861829553,-0.158449683375295
1580420491.57775,-0.985122453650721,0.105714503700312,-0.150148775463492
1580420491.60945,-0.981216144045167,0.110109102006561,-0.152590218966964
1580420491.64116,-0.987563897154192,0.103761348897535,-0.127199206530861
1580420491.67286,-0.983657587548638,0.102784771496147,-0.140383001449607
1580420491.70457,-0.98268101014725,0.0861829556725411,-0.147707331960021
1580420491.73628,-0.997329671168078,0.0930189974822611,-0.130617227435721
1580420491.76798,-0.983169298847944,0.0944838635843439,-0.141359578850995
1580420491.79969,-0.979751277943084,0.110109102006561,-0.140383001449607
1580420491.8314,-0.991470206759747,0.101808194094758,-0.127687495231555
1580420491.8631,-1.00807202258335,0.0871595330739297,-0.120363164721141
1580420491.89481,-0.98609903105211,0.0935072861829553,-0.135988403143358
1580420491.92651,-0.98951705195697,0.102296482795452,-0.141359578850995
1580420491.95822,-1.00270084687572,0.0793469138628211,-0.148195620660715
1580420491.98993,-0.988540474555581,0.096437018387121,-0.144289311055161
1580420492.02163,-0.976333257038224,0.10424963759823,-0.150148775463492
1580420492.05334,-0.981216144045167,0.0920424200808725,-0.130128938735027
1580420492.08505,-0.991958495460441,0.0842298008697639,-0.138429846646829
1580420492.11675,-0.980239566643778,0.0930189974822611,-0.143312733653772
1580420492.14846,-0.993911650263218,0.0896009765774011,-0.142824444953078
1580420492.18017,-0.987563897154192,0.0959487296864268,-0.141359578850995
1580420492.21187,-0.985122453650721,0.0881361104753182,-0.136964980544747
1580420492.24358,-0.997817959868772,0.0837415121690697,-0.125246051728084
1580420492.27529,-0.995864805065995,0.0866712443732354,-0.119386587319752
1580420492.30699,-0.98609903105211,0.0725108720531011,-0.145754177157244
1580420492.3387,-0.981704432745861,0.0866712443732354,-0.141359578850995
1580420492.3704,-0.985610742351415,0.0920424200808725,-0.121828030823224
1580420492.40211,-0.995864805065995,0.0788586251621268,-0.122316319523918
1580420492.43382,-0.997329671168078,0.0905775539787896,-0.146242465857938
1580420492.46552,-0.977798123140307,0.0754406042572668,-0.141359578850995
1580420492.49723,-0.98609903105211,0.0690928511482412,-0.133058670939192
1580420492.52894,-0.986587319752804,0.0715342946517126,-0.142824444953078
1580420492.5607,-0.995864805065995,0.0764171816586554,-0.124269474326695
1580420492.5924,-0.995376516365301,0.0778820477607383,-0.104737926298924
1580420492.62411,-0.981216144045167,0.0822766460669868,-0.099855039291981
1580420492.65582,-0.989028763256275,0.0729991607537954,-0.129640650034332
1580420492.68752,-0.986587319752804,0.0729991607537954,-0.104737926298924
1580420492.71923,-0.985610742351415,0.0578622110322726,-0.117433432516975
1580420492.75094,-0.97926298924239,0.0676279850461583,-0.144289311055161
1580420492.78264,-0.983169298847944,0.0617685206378269,-0.125734340428778
1580420492.81435,-1.01783779659724,0.0715342946517126,-0.116945143816281
1580420492.84606,-0.970962081330587,0.070557717250324,-0.112550545510032
1580420492.87776,-0.990981918059052,0.0764171816586554,-0.110597390707255
1580420492.90947,-0.990005340657664,0.0842298008697639,-0.112550545510032
1580420492.94117,-0.996841382467384,0.0832532234683754,-0.130128938735027
1580420492.97288,-1.01100175478752,0.0993667505912867,-0.0881361104753182
1580420493.00459,-0.993911650263218,0.105226214999618,-0.111573968108644
1580420493.03629,-0.983169298847944,0.0979018844892039,-0.114991989013504
1580420493.068,-0.974868390936141,0.096437018387121,-0.137941557946135
1580420493.09971,-1.0124666208896,0.0959487296864268,-0.133546959639887
1580420493.13141,-0.99977111467155,0.121828030823224,-0.127199206530861
1580420493.16312,-1.00709544518196,0.160402838178072,-0.135011825741969
1580420493.19483,-1.01197833218891,0.142824444953078,-0.154055085069047
1580420493.22653,-1.02418554970626,0.126222629129472,-0.136964980544747
1580420493.25824,-1.0036774242771,0.0925307087815668,-0.175539787899595
1580420493.28994,-0.957778286411841,0.0949721522850382,-0.195071335927366
1580420493.32165,-0.993911650263218,0.11450370031281,-0.181399252307926
1580420493.35336,-1.02320897230488,0.109132524605172,-0.128664072632944
1580420493.38506,-1.04859998474098,0.104737926298924,-0.157473105973907
1580420493.41677,-0.969497215228504,0.0847180895704582,-0.190676737621118
1580420493.44848,-0.930922407873656,0.0793469138628211,-0.194094758525978
1580420493.48018,-0.964614328221561,0.0642099641412983,-0.186770428015564
1580420493.51189,-0.977309834439613,0.0788586251621268,-0.176028076600289
1580420493.54359,-1.00660715648127,0.126222629129472,-0.165774013885709
1580420493.5753,-0.999282825970855,0.146242465857938,-0.164309147783626
1580420493.60701,-0.968520637827115,0.102296482795452,-0.203372243839169
1580420493.63871,-0.95191882200351,0.0476081483176927,-0.209719996948195
1580420493.67042,-0.923109788662547,0.0520027466239412,-0.193118181124589
1580420493.70213,-0.915785458152133,0.0559090562294955,-0.207278553444723
1580420493.73383,-0.97584496833753,0.060303654535744,-0.183352407110704
1580420493.76554,-1.0041657129778,0.0681162737468526,-0.205813687342641
1580420493.79725,-0.981704432745861,0.0676279850461583,-0.211673151750972
1580420493.82904,-0.945571068894484,0.0617685206378269,-0.203860532539863
1580420493.86075,-0.970962081330587,0.0778820477607383,-0.179934386205844
1580420493.89245,-1.00758373388266,0.0837415121690697,-0.156984817273212
1580420493.92416,-1.00025940337224,0.0876478217746239,-0.205325398641946
1580420493.95586,-0.969985503929198,0.073975738155184,-0.211184863050278
1580420493.98757,-0.969497215228504,0.0842298008697639,-0.189211871519035
1580420494.01928,-0.982192721446555,0.0842298008697639,-0.177981231403066
1580420494.05098,-0.99635309376669,0.0754406042572668,-0.182864118410009
1580420494.08269,-1.00709544518196,0.0593270771343555,-0.189211871519035
1580420494.1144,-0.985122453650721,0.0832532234683754,-0.218997482261386
1580420494.1461,-0.964126039520867,0.0837415121690697,-0.215091172655832
1580420494.17781,-0.971938658731975,0.0607919432364383,-0.220462348363469
1580420494.20952,-0.978286411841001,0.067139696345464,-0.191653315022506
1580420494.24122,-0.998794537270161,0.0944838635843439,-0.176028076600289
1580420494.27293,-0.946059357595178,0.0690928511482412,-0.255130846112765
1580420494.30463,-0.968032349126421,0.0417486839093613,-0.217532616159303
1580420494.33634,-0.968520637827115,0.0388189517051956,-0.23999389639124
1580420494.36805,-0.95875486381323,0.0402838178072784,-0.260990310521096
1580420494.39975,-0.974380102235447,0.0290531776913099,-0.239017318989852
1580420494.43146,-0.967544060425727,0.0368657969024184,-0.252201113908599
1580420494.46317,-0.952407110704204,0.0466315709163041,-0.259037155718319
1580420494.49487,-0.980239566643778,0.0441901274128327,-0.283939879453728
1580420494.52658,-0.970473792629893,0.0217288471808956,-0.274174105439842
1580420494.55829,-0.914808880750744,0.0207522697795071,-0.289799343862059
1580420494.58999,-0.945571068894484,-0.00268558785381856,-0.310307469291219
1580420494.6217,-0.987075608453498,-0.0529793240253298,-0.402594033722439
1580420494.6534,-0.908461127641718,-0.080811779964904,-0.512458991378653
1580420494.68511,-0.942153047989624,-0.138429846646829,-0.48706797894255
1580420494.71682,-0.967055771725033,-0.0710460059510183,-0.470954451819638
1580420494.74852,-0.916762035553521,-0.0236820019836728,-0.565194171053635
1580420494.78023,-0.900160219729916,-0.0271000228885327,-0.538826581216144
1580420494.81194,-0.943129625391013,-0.0256351567864499,-0.605233844510566
1580420494.84364,-0.81177996490425,-0.0778820477607383,-0.742931258106355
1580420494.87535,-0.832776379034105,-0.209719996948195,-0.677012283512626
1580420494.90705,-0.86305027847715,-0.236087586785686,-0.641367208361943
1580420494.93876,-0.693125810635538,-0.193606469825284,-0.824963759822996
1580420494.97047,-0.70826276035706,-0.178957808804455,-0.636972610055695
1580420495.00217,-0.667246509498741,-0.10424963759823,-0.550057221332112
1580420495.03388,-0.632089723048752,-0.219974059662775,-0.593026626993209
1580420495.06559,-0.715587090867475,-0.257572289616236,-0.586190585183489
1580420495.09735,-0.666269932097352,-0.0656748302433812,-0.587167162584878
1580420495.12906,-0.674570840009155,-0.0681162737468526,-0.554940108339055
1580420495.16076,-0.660410467689021,-0.0593270771343555,-0.570565346761272
1580420495.19247,-0.692637521934843,0.0314946211947813,-0.591561760891127
1580420495.22418,-0.750743877317465,-0.0544441901274126,-0.623788815136949
1580420495.25588,-0.762951094834822,-0.0915541313801782,-0.622812237735561
1580420495.28759,-0.71851682307164,-0.165774013885709,-0.656015869382772
1580420495.3193,-0.76734569314107,-0.188235294117646,-0.74244296940566
1580420495.351,-0.939223315785458,-0.263431754024568,-0.623300526436255
1580420495.38271,-0.99293507286183,-0.218020904859998,-0.633066300450141
1580420495.41442,-0.870862897688259,-0.126222629129472,-0.603768978408484
1580420495.44613,-0.964126039520867,-0.0690928511482412,-0.667246509498741
1580420495.47783,-1.05201800564584,-0.0363775082017241,-0.53150225070573
1580420495.50954,-0.829846646829939,0.0661631189440754,-0.52808422980087
1580420495.54125,-0.983169298847944,-0.0646982528419926,-0.477302204928664
1580420495.57295,-1.01734950789654,-0.108644235904478,-0.466071564812696
1580420495.60466,-1.02711528191043,-0.073975738155184,-0.429938200961319
1580420495.63637,-0.85621423666743,0.00659189745937283,-0.371831845578699
1580420495.66807,-0.854749370565347,0.0280766002899213,-0.360112916762036
1580420495.69978,-0.914808880750744,0.00903334096284425,-0.438239108873121
1580420495.73149,-0.846448462653544,0.00610360875867855,-0.406988632028687
1580420495.76319,-0.884046692607004,-0.136964980544747,-0.36743724727245
1580420495.7949,-0.910414282444496,-0.156008239871824,-0.375738155184253
1580420495.82661,-0.960708018616007,-0.0627450980392155,-0.406988632028687
1580420495.85831,-0.895765621423667,0.0417486839093613,-0.414312962539102
1580420495.89002,-0.877698939497979,0.0314946211947813,-0.433356221866179
1580420495.92173,-0.912367437247273,-0.0197756923781185,-0.46314183260853
1580420495.95343,-0.940688181887541,-0.125246051728084,-0.536385137712672
1580420495.98514,-1.0041657129778,-0.180910963607232,-0.53833829251545
1580420496.01685,-1.05494773785,-0.147707331960021,-0.535408560311284
1580420496.04855,-1.04274052033265,-0.0544441901274126,-0.600839246204318
1580420496.08026,-0.929457541771573,-0.0197756923781185,-0.608651865415426
1580420496.11197,-0.895277332722973,-0.0251468680857556,-0.549080643930724
1580420496.14367,-1.06031891355764,-0.163820859082932,-0.606210421911955
1580420496.17538,-0.884534981307699,-0.259037155718319,-0.643320363164721
1580420496.20709,-0.677012283512626,-0.160402838178072,-0.639902342259861
1580420496.2388,-0.859143968871596,-0.227786678873883,-0.446540016784924
1580420496.2705,-0.79468986037995,-0.096437018387121,-0.524177920195315
1580420496.30221,-0.633066300450141,0.0979018844892039,-0.516853589684901
1580420496.33392,-0.70826276035706,0.0134279392690928,-0.419195849546044
1580420496.36572,-0.706309605554283,-0.0988784618905925,-0.454840924696727
1580420496.39743,-0.675059128709849,-0.169680323491264,-0.703379873350118
1580420496.42914,-0.683848325322346,-0.115968566414892,-0.766857404440376
1580420496.46084,-0.650156404974441,0.0661631189440754,-0.920668345159076
1580420496.49255,-0.504646372167544,-0.0920424200808725,-0.913344014648661
1580420496.52426,-0.803967345693142,-0.23315785458152,-0.568123903257801
1580420496.55597,-0.77418173495079,-0.096437018387121,-0.633554589150835
1580420496.58767,-0.303471427481499,-0.070557717250324,-1.35182726787213
1580420496.61938,-0.505622949568933,-0.0168459601739528,-1.16676585030899
1580420496.65109,-0.464606698710613,0.111573968108644,-0.956801709010453
1580420496.68279,-0.524177920195315,0.0642099641412983,-0.96217288471809
1580420496.7145,-0.707286182955672,-0.0485847257190812,-1.02467383840696
1580420496.74621,-0.654551003280689,0.0329594872968642,-0.847425040054933
1580420496.77792,-0.602304112306401,-0.0295414663920042,-0.849866483558404
1580420496.80962,-0.623788815136949,-0.193118181124589,-0.867444876783399
1580420496.84133,-0.582284275577935,-0.215091172655832,-0.771252002746625
1580420496.87304,-0.480720225833524,-0.201907377737086,-0.668711375600823
1580420496.90475,-0.611093308918898,-0.161379415579461,-0.651132982375829
1580420496.93645,-0.665293354695963,-0.0729991607537954,-0.676523994811932
1580420496.96816,-0.509529259174487,-0.0207522697795071,-0.623788815136949
1580420496.99987,-0.453864347295339,0.0490730144197755,-0.67750057221332
1580420497.03157,-0.553963530937667,-0.0354009308003356,-0.657480735484855
1580420497.06328,-0.626230258640421,-0.152590218966964,-0.616464484626535
1580420497.09499,-0.664805065995269,-0.251712825207905,-0.651132982375829
1580420497.1267,-0.703868162050812,-0.187747005416952,-0.614511329823758
1580420497.1584,-0.682871747920958,-0.0422369726100555,-0.696055542839703
1580420497.19011,-0.793713282978562,0.0979018844892039,-0.732677195391775
1580420497.22182,-0.80494392309453,0.0632333867399097,-0.755626764324408
1580420497.25353,-0.896742198825056,0.0158693827725642,-0.789806973373008
1580420497.28523,-1.01686121919585,-0.146730754558632,-0.723399710078583
1580420497.31694,-0.972915236133364,-0.0524910353246355,-0.730724040588997
1580420497.34865,-0.877210650797284,0.173098344396124,-0.558358129243915
1580420497.38035,-1.00074769207294,0.0583504997329669,-0.536873426413367
1580420497.41206,-1.06031891355764,0.00122072175173571,-0.36060120546273
1580420497.44377,-1.13844510566873,-0.0100099183642328,-0.449958037689784
1580420497.47548,-0.923109788662547,-0.12475776302739,-0.69800869764248
1580420497.50718,-0.703379873350118,-0.0959487296864268,-0.374761577782865
1580420497.53889,-0.862561989776456,0.117433432516975,-0.158937972075989
1580420497.5706,-0.938735027084764,0.127199206530861,-0.362066071564813
1580420497.60231,-0.973403524834058,0.099855039291981,-0.204348821240558
1580420497.63403,-0.951430533302815,-0.00512703135728998,-0.339116502632182
1580420497.66574,-0.885511558709087,-0.148683909361409,-0.274174105439842
1580420497.69745,-0.892347600518807,-0.117433432516975,-0.297611963073168
1580420497.72915,-0.954360265506981,0.00610360875867855,-0.288822766460671
1580420497.76086,-1.04274052033265,0.0578622110322726,-0.211673151750972
1580420497.79257,-1.0295567254139,0.01196307316701,-0.191165026321812
1580420497.82428,-1.0720378423743,0.00561532005798426,-0.180910963607232
1580420497.85598,-0.999282825970855,0.048096437018387,-0.234134431982909
1580420497.88769,-0.91773861295491,0.101808194094758,-0.306401159685665
1580420497.9194,-0.902601663233387,0.100343327992675,-0.322026398107882
1580420497.95111,-0.991470206759747,0.134523537041275,-0.277103837644008
1580420497.98281,-0.964614328221561,0.246341649500266,-0.330815594720379
1580420498.01452,-0.941176470588236,0.372808422980086,-0.392339971007859
1580420498.04623,-0.971450370031281,0.275150682841229,-0.359624628061342
1580420498.07793,-0.988052185854887,0.259037155718318,-0.44605172808423
1580420498.10964,-0.991470206759747,0.256107423514152,-0.536385137712672
1580420498.14135,-0.942153047989624,0.266361486228732,-0.572518501564049
1580420498.17306,-0.881605249103533,0.285404745555809,-0.436774242771039
1580420498.20476,-0.97242694743267,0.216556038757915,-0.520759899290455
1580420498.23647,-0.862073701075762,0.222903791866941,-0.478767071030747
1580420498.26818,-0.84254215304799,0.283451590753032,-0.403570611123827
1580420498.29989,-0.976333257038224,0.30493629358358,-0.456794079499504
1580420498.33159,-0.744884412909132,0.402105745021743,-0.133546959639887
1580420498.3633,-0.728282597085526,0.0222171358815899,-0.463630121309224
1580420498.39501,-0.806408789196613,0.336675059128709,-0.36060120546273
1580420498.42671,-0.608651865415426,0.52222476539254,-0.612069886320286
1580420498.45842,-0.619882505531395,0.106691081101701,-0.289799343862059
1580420498.49013,-0.677988860914015,0.145265888456549,-0.582772564278629
1580420498.52184,-0.615487907225146,0.275638971541923,-0.608163576714732
1580420498.55354,-0.712657358663309,0.339604791332874,-0.42896162355993
1580420498.58525,-0.834241245136187,0.253177691309986,-0.396246280613413
1580420498.61696,-1.00856031128405,0.187258716716258,-0.535408560311284
1580420498.64867,-0.779064621957733,0.156008239871824,-0.633554589150835
1580420498.68037,-0.656015869382772,0.276127260242617,-0.428473334859236
1580420498.71208,-1.2859082932784,0.0280766002899213,-0.197512779430838
1580420498.74379,-1.37428854810407,0.456794079499502,-0.403082322423133
1580420498.77549,-0.730724040588997,1.3029983978027,-0.0764171816586554
1580420498.8072,-1.26393530174716,0.88355840390631,0.3801327534905
1580420498.83891,-0.6877546349279,0.822522316319525,-1.06324864576181
1580420498.87062,-1.21950102998398,0.077393759060044,-1.83718623636225
1580420498.9024,-0.71851682307164,0.227298390173189,-0.0549324788281069
1580420498.93411,-0.861097123674373,-1.10719462882429,0.0305180437933927
1580420498.96582,-0.99293507286183,-0.10766765850309,0.306889448386357
1580420498.99753,-0.97584496833753,1.02565041580835,-0.643320363164721
1580420499.02923,-1.11354238193332,0.565194171053637,-0.35718318455787
1580420499.06094,-0.813244831006333,-0.413824673838407,-0.662851911192492
1580420499.09265,-0.92115663385977,-0.351323720149539,-0.0251468680857556
1580420499.12435,-1.10280003051804,0.143312733653772,0.01196307316701
1580420499.15606,-0.943617914091707,0.420172426947431,-0.239017318989852
1580420499.18777,-0.981216144045167,0.507576104371712,-0.279545281147479
1580420499.21948,-1.14381628137636,0.297123674372472,-0.306889448386359
1580420499.25118,-1.05104142824445,0.0983901731898982,-0.208255130846112
1580420499.28289,-0.974380102235447,-0.0192874036774242,-0.0974135957885096
1580420499.3146,-0.840588998245213,0.591561760891128,-0.270756084534982
1580420499.34631,-0.95191882200351,0.544686045624477,-0.291264209964142
1580420499.37801,-0.917250324254216,0.244876783398183,-0.234134431982909
1580420499.40972,-0.951430533302815,0.120851453421835,-0.264896620126651
1580420499.44143,-0.967055771725033,0.184328984512092,-0.189211871519035
1580420499.47314,-1.04371709773404,0.317143511100937,-0.129152361333638
1580420499.50484,-0.925551232166018,0.300053406576637,-0.0407721065079727
1580420499.53655,-1.00660715648127,0.418219272144654,-0.0183108262760356
1580420499.56826,-1.02858014801251,0.354741741054397,0.048096437018387
1580420499.59996,-0.944594491493095,0.370366979476614,-0.00268558785381856
1580420499.63167,-0.944106202792401,0.252689402609292,0.0300297550926985
1580420499.66338,-0.937270160982681,0.292240787365529,-0.0549324788281069
1580420499.69509,-0.830823224231327,0.275150682841229,-0.0607919432364383
1580420499.72679,-0.789806973373008,0.240970473792629,-0.0764171816586554
1580420499.7585,-0.802990768291753,0.312748912794689,-0.0725108720531011
1580420499.79021,-0.857190814068819,0.439215686274508,-0.0422369726100555
1580420499.82192,-0.834241245136187,0.367925535973143,-0.063721675440604
1580420499.85362,-0.813244831006333,0.299076829175249,-0.125734340428778
1580420499.88533,-0.824475471122302,0.3630426489662,-0.077393759060044
1580420499.91704,-0.80836194399939,0.343999389639123,-0.154055085069047
1580420499.94875,-0.939223315785458,0.350835431448843,-0.0783703364614325
1580420499.98045,-1.02272068360418,0.39380483710994,-0.0505378805218584
1580420500.01216,-0.867933165484093,0.374761577782863,-0.156984817273212
1580420500.04387,-0.798596169985505,0.340581368734263,-0.139406424048218
1580420500.07557,-0.980239566643778,0.148195620660715,-0.152590218966964
1580420500.10728,-1.18580910963607,0.198489356832226,-0.200442511635003
1580420500.13899,-0.96559090562295,0.385015640497443,-0.142336156252384
1580420500.17078,-1.02516212710765,0.222415503166246,-0.102784771496147
1580420500.20248,-1.09010452429999,0.242435339894712,-0.135988403143358
1580420500.23419,-1.02858014801251,0.460700389105057,-0.0729991607537954
1580420500.2659,-0.862561989776456,0.145265888456549,-0.138918135347524
1580420500.29761,-1.04469367513542,0.314213778896772,-0.2434119172961
1580420500.32931,-1.0378576333257,0.205325398641946,-0.241947051194018
1580420500.36102,-1.02906843671321,-0.236087586785686,-0.129152361333638
1580420500.39273,-0.934340428778516,-0.104737926298924,-0.325444419012742
1580420500.42444,-0.935317006179904,0.356694895857174,-0.269291218432899
1580420500.45615,-0.95875486381323,0.37671473258564,-0.154543373769741
1580420500.48785,-1.06520180056458,0.302494850080109,-0.201907377737086
1580420500.51956,-1.01832608529793,0.109132524605172,-0.166750591287098
1580420500.55127,-1.01686121919585,-0.119386587319752,-0.158937972075989
1580420500.58298,-1.03492790112154,0.0764171816586554,-0.213138017853055
1580420500.61468,-0.88697642481117,0.210208285648889,-0.361577782864119
1580420500.64639,-0.87330434119173,-0.0368657969024184,-0.259525444419014
1580420500.6781,-1.0129549095903,-0.127687495231555,-0.130128938735027
1580420500.70981,-0.965102616922255,0.144777599755855,-0.185793850614175
1580420500.74152,-1.05494773785,0.320561532005797,-0.2434119172961
1580420500.77322,-0.968032349126421,0.306889448386357,-0.143312733653772
1580420500.80493,-1.06861982146944,0.155031662470435,-0.162355992980849
1580420500.83664,-0.991958495460441,0.146242465857938,-0.242923628595406
1580420500.86835,-1.00318913557641,0.310795757991912,-0.204837109941252
1580420500.90005,-1.07350270847639,0.23657587548638,-0.172121766994735
1580420500.93176,-1.06080720225834,0.254154268711375,-0.0710460059510183
1580420500.96347,-1.08863965819791,0.345464255741206,-0.142824444953078
1580420500.99518,-1.01100175478752,0.243900205996795,-0.136476691844052
1580420501.02689,-1.0041657129778,0.181399252307926,-0.154543373769741
1580420501.05859,-0.94850080109865,0.0393072404058898,-0.0939955748836496
1580420501.0903,-0.927504386968796,0.239505607690546,0.00854505226214997
1580420501.12201,-0.946547646295873,0.283451590753032,0.0539559014267184
1580420501.15372,-0.913344014648661,0.51538872358282,0.171633478294041
1580420501.18542,-1.02906843671321,0.436774242771037,0.28442816815442
1580420501.21713,-1.00856031128405,0.388433661402303,0.187258716716258
1580420501.24884,-0.828381780727856,0.269291218432897,0.0954604409857325
1580420501.28055,-0.724376287479972,0.144289311055161,0.01196307316701
1580420501.31225,-0.873792629892424,0.391363393606468,-0.0534676127260241
1580420501.34396,-0.785900663767453,0.331792172121766,-0.0368657969024184
1580420501.37567,-0.749767299916074,0.447516594186311,0.0129396505683985
1580420501.40738,-0.772228580148013,0.318120088502326,0.0417486839093613
1580420501.43921,-0.77418173495079,0.347905699244677,0.0495613031204698
1580420501.47092,-0.789318684672313,0.4143129625391,0.0827649347676811
1580420501.50262,-0.85963225757229,0.412359807736323,0.103761348897535
1580420501.53433,-0.881116960402839,0.410406652933546,0.0783703364614325
1580420501.56604,-0.881116960402839,0.342046234836346,0.0383306630045013
1580420501.59775,-0.902113374532693,0.367437247272449,0.0334477759975584
1580420501.62945,-0.843518730449379,0.362066071564811,-0.096437018387121
1580420501.66116,-0.946059357595178,0.382085908293277,0.00122072175173571
1580420501.69287,-1.16090638590066,0.246341649500266,0.0231937132829785
1580420501.72458,-1.13746852826734,0.34937056534676,-0.0563973449301898
1580420501.75629,-1.01930266269932,0.255130846112763,-0.0695811398489354
1580420501.78799,-1.0642252231632,0.34253452353704,-0.063721675440604
1580420501.8197,-1.03981078812848,0.101808194094758,0.0607919432364383
1580420501.85141,-1.04225223163195,-0.0158693827725642,-0.158937972075989
1580420501.88312,-0.980239566643778,0.119386587319752,-0.135011825741969
1580420501.91482,-1.01051346608682,0.0109864957656214,-0.217532616159303
1580420501.94653,-1.0295567254139,0.0817883573662925,-0.23315785458152
1580420501.97824,-0.944594491493095,-0.0261234454871442,-0.247318226901655
1580420502.00995,-1.00953688868544,0.23657587548638,-0.0915541313801782
1580420502.04166,-1.04029907682918,0.176516365300984,-0.0769054703593497
1580420502.07336,-1.03736934462501,0.0573739223315783,-0.0900892652780954
1580420502.10507,-0.988540474555581,-0.0129396505683985,-0.143801022354467
1580420502.13678,-0.972915236133364,0.080811779964904,-0.191165026321812
1580420502.16849,-1.04615854123751,0.0500495918211641,-0.140383001449607
1580420502.20019,-1.04469367513542,0.0314946211947813,-0.173098344396124
1580420502.2319,-1.0124666208896,0.103273060196841,-0.0725108720531011
1580420502.26361,-0.991470206759747,0.105714503700312,-0.129640650034332
1580420502.29532,-0.962661173418784,0.0554207675288012,-0.128664072632944
1580420502.32703,-0.997329671168078,0.0271000228885327,-0.165774013885709
1580420502.35873,-0.970962081330587,0.0495613031204698,-0.181887541008621
1580420502.39044,-1.00221255817502,0.0822766460669868,-0.133058670939192
1580420502.42215,-0.988540474555581,0.048096437018387,-0.180910963607232
1580420502.45386,-0.94166475928893,0.0393072404058898,-0.186770428015564
1580420502.48556,-0.967544060425727,0.108155947203784,-0.0905775539787896
1580420502.51727,-0.99635309376669,0.173586633096818,-0.127199206530861
1580420502.54898,-1.07789730678263,0.206790264744029,-0.145265888456549
1580420502.58069,-1.0466468299382,0.23315785458152,-0.0417486839093613
1580420502.6124,-1.05055313954376,0.106691081101701,-0.0588387884336612
1580420502.6441,-0.997329671168078,0.172121766994735,-0.128664072632944
1580420502.67581,-0.969497215228504,0.215091172655832,-0.171633478294041
1580420502.70764,-0.92115663385977,0.080811779964904,-0.107179369802395
1580420502.73935,-1.06617837796597,0.0646982528419926,-0.0813000686655982
1580420502.77106,-1.02760357061112,0.206301976043335,-0.0666514076447697
1580420502.80276,-0.987563897154192,0.245853360799572,0.0944838635843439
1580420502.83447,-1.05104142824445,0.334233615625237,0.0358892195010299
1580420502.86618,-1.02369726100557,0.337651636530097,0.0783703364614325
1580420502.89789,-0.914808880750744,0.326909285114823,-0.0393072404058898
1580420502.9296,-0.86305027847715,0.365484092469671,-0.204837109941252
1580420502.9613,-0.813244831006333,0.233646143282215,-0.278080415045396
1580420502.99301,-0.791760128175785,0.207766842145418,-0.331792172121768
1580420503.02472,-0.74244296940566,0.442633707179368,-0.363530937666896
1580420503.05643,-0.797131303883422,0.771740291447319,-0.438727397573816
1580420503.08813,-0.902113374532693,0.877698939497979,-0.409918364232853
1580420503.11984,-1.00221255817502,0.819592584115359,-0.393804837109942
1580420503.15155,-1.01637293049516,0.538826581216146,-0.560799572747387
1580420503.18326,-1.01441977569238,0.435797665369648,-0.626718547341115
1580420503.21496,-0.802014190890365,0.303959716182192,-0.632578011749446
1580420503.24667,-0.696543831540398,0.314213778896772,-0.747325856412603
1580420503.27838,-0.667734798199435,0.452887769893948,-0.762462806134128
1580420503.31009,-0.607675288014038,0.494880598153657,-0.783947508964676
1580420503.3418,-0.579842832074464,0.344487678339817,-0.783459220263982
1580420503.3735,-0.536873426413367,0.334721904325932,-0.836194399938964
1580420503.40521,-0.492927443350881,0.365972381170366,-0.871839475089647
1580420503.43692,-0.368413824673839,0.2775921263447,-0.909925993743801
1580420503.46863,-0.38110933089189,0.213626306553749,-0.821545738918136
1580420503.50033,-0.320073243305105,0.321538109407186,-0.802014190890365
1580420503.53204,-0.312748912794691,0.273685816739146,-0.877698939497979
1580420503.56375,-0.381597619592585,0.198001068131532,-0.754161898222325
1580420503.59546,-0.261966887922485,0.220950637064163,-0.853772793163959
1580420503.62717,-0.305424582284276,0.26392004272526,-0.80836194399939
1580420503.65887,-0.455817502098116,0.0725108720531011,-0.747325856412603
1580420503.69058,-0.253177691309988,0.514900434882126,-0.740001525902189
1580420503.72229,-0.225833524071106,0.152590218966964,-0.706309605554283
1580420503.754,-0.345464255741208,0.200930800335698,-0.674082551308461
1580420503.7857,-0.262943465323874,0.375249866483557,-0.663340199893186
1580420503.81741,-0.294682230869002,0.302494850080109,-0.648691538872358
1580420503.84912,-0.379644464789807,0.448981460288394,-0.683360036621652
1580420503.88083,-0.323979552910659,0.481208514534217,-0.701915007248035
1580420503.91254,-0.38794537270161,0.33228046082246,-0.802502479591059
1580420503.94424,-0.47339589532311,0.146242465857938,-0.907972838941024
1580420503.97607,-0.523689631494621,0.199954222934309,-0.89381246662089
1580420504.00778,-0.636972610055695,0.272709239337757,-0.905531395437553
1580420504.03949,-0.697032120241092,0.388433661402303,-0.968520637827115
1580420504.0712,-0.704356450751506,0.286869611657892,-0.983657587548638
1580420504.10291,-0.598397802700847,0.199954222934309,-0.94508278019379
1580420504.13461,-0.758556496528573,-0.11450370031281,-0.884046692607004
1580420504.16632,-0.892347600518807,-0.133546959639887,-0.930922407873656
1580420504.19803,-0.80152590218967,-0.0563973449301898,-0.943617914091707
1580420504.22974,-0.953871976806287,-0.133058670939192,-0.782482642862593
1580420504.26144,-0.961196307316701,-0.135500114442664,-0.76734569314107
1580420504.29315,-0.77759975585565,-0.0222171358815899,-0.891371023117419
1580420504.32486,-0.922621499961853,-0.0280766002899213,-0.705821316853589
1580420504.35657,-1.00074769207294,-0.0607919432364383,-0.550545510032807
1580420504.38827,-0.790783550774396,-0.0290531776913099,-0.559334706645304
1580420504.41998,-0.790295262073702,-0.108644235904478,-0.488044556343938
1580420504.45169,-0.85279621576257,-0.103761348897535,-0.520759899290455
1580420504.4834,-0.923109788662547,-0.0817883573662925,-0.50074006256199
1580420504.51511,-0.90406652933547,0.00854505226214997,-0.519783321889067
1580420504.54681,-0.911879148546578,0.00903334096284425,-0.431403067063401
1580420504.57852,-0.916762035553521,-0.034424353398947,-0.362066071564813
1580420504.61023,-0.927504386968796,-0.027588311589227,-0.339116502632182
1580420504.64194,-0.956313420309758,-0.0261234454871442,-0.35034714274815
1580420504.67365,-0.918715190356298,-0.0124513618677042,-0.330327306019685
1580420504.70535,-0.963149462119478,0.0124513618677042,-0.348393987945373
1580420504.73706,-0.992446784161135,-0.0432135500114441,-0.343022812237736
1580420504.76877,-0.985122453650721,-0.0476081483176927,-0.343999389639125
1580420504.80048,-0.935805294880598,-0.0847180895704582,-0.369878690775922
1580420504.83218,-0.871839475089647,-0.0822766460669868,-0.378179598687725
1580420504.86389,-0.912855725947967,-0.0935072861829553,-0.364507515068285
1580420504.8956,-0.961684596017395,-0.108644235904478,-0.355718318455787
1580420504.92731,-0.914808880750744,-0.0852063782711525,-0.385015640497445
1580420504.95901,-0.922621499961853,-0.0871595330739297,-0.385015640497445
1580420504.99072,-0.935805294880598,-0.0837415121690697,-0.413336385137713
1580420505.02243,-0.916273746852827,-0.0729991607537954,-0.385015640497445
1580420505.05414,-0.908461127641718,-0.0280766002899213,-0.384039063096056
1580420505.08585,-0.923109788662547,-0.0417486839093613,-0.386968795300222
1580420505.11755,-0.936781872281987,-0.0695811398489354,-0.36060120546273
1580420505.14926,-0.954848554207675,-0.0710460059510183,-0.372320134279393
1580420505.18097,-0.953871976806287,-0.0334477759975584,-0.397711146715496
1580420505.21268,-0.94508278019379,-0.0568856336308841,-0.398687724116884
1580420505.24454,-0.893324177920196,-0.0529793240253298,-0.46655985351339
1580420505.27624,-0.803967345693142,-0.0676279850461583,-0.553475242236972
1580420505.30795,-0.803967345693142,-0.11108567940795,-0.621347371633478
1580420505.33966,-0.789806973373008,-0.0573739223315783,-0.741466392004272
1580420505.37137,-0.802502479591059,-0.0925307087815668,-0.83912413214313
1580420505.40308,-0.795178149080645,-0.134035248340581,-0.845471885252156
1580420505.43478,-0.838147554741742,-0.0515144579232469,-0.894300755321584
1580420505.46649,-0.817151140611887,-0.0803234912642097,-0.956313420309758
1580420505.4982,-0.790295262073702,-0.148195620660715,-1.05836575875486
1580420505.52991,-0.787365529869536,-0.0842298008697639,-1.08668650339513
1580420505.56161,-0.788342107270925,0.027588311589227,-1.10035858701457
1580420505.59332,-0.6877546349279,0.0187991149767299,-1.17799649042496
1580420505.62503,-0.634531166552224,-0.0993667505912867,-1.12281986724651
1580420505.65674,-0.577401388570992,-0.0646982528419926,-1.04274052033265
1580420505.68845,-0.472419317921721,-0.0109864957656214,-0.947035934996567
1580420505.72015,-0.34351110093843,-0.000732433051041426,-0.767833981841765
1580420505.75186,-0.241947051194018,0.0329594872968642,-0.686289768825818
1580420505.78357,-0.153566796368352,0.0148928053711757,-0.566659037155718
1580420505.81528,-0.209231708247501,0.10083161669337,-0.51099412527657
1580420505.84698,-0.201907377737086,0.0407721065079727,-0.547127489127947
1580420505.87869,-0.0544441901274126,-0.0632333867399097,-0.574471656366827
1580420505.9104,0.00219729915312428,0.0783703364614325,-0.737560082398717
1580420505.94211,0.073975738155184,0.122804608224612,-0.830334935530633
1580420505.97382,0.073975738155184,0.0329594872968642,-0.957289997711147
1580420506.00552,0.0793469138628211,-0.0187991149767299,-0.993423361562524
1580420506.03723,0.0710460059510183,0.0402838178072784,-1.06813153276875
1580420506.06894,0.077393759060044,0.0178225375753414,-1.06959639887083
1580420506.10065,0.0881361104753182,0.0729991607537954,-1.08375677119097
1580420506.13235,0.10424963759823,0.0734874494544897,-1.05006485084306
1580420506.16406,0.0598153658350498,-0.0075684748607614,-1.01979095140002
1580420506.19577,0.0324711985961699,-0.0075684748607614,-1.01490806439307
1580420506.22748,0.0437018387121384,0.0222171358815899,-1.01930266269932
1580420506.25918,0.0407721065079727,0.0251468680857556,-1.00172426947433
1580420506.29089,0.0285648889906156,0.0212405584802013,-0.973891813534753
1580420506.3226,0.0139162279697871,0.00659189745937283,-1.00270084687572
1580420506.35431,0.024170290684367,0.0148928053711757,-1.02027924010071
1580420506.38602,0.0339360646982527,0.0393072404058898,-1.04518196383612
1580420506.41772,-0.00122072175173571,0.070557717250324,-1.03688105592432
1580420506.44943,0.0393072404058898,0.0769054703593497,-1.14869916838331
1580420506.48114,0.0153810940718699,-0.00805676356145568,-1.17311360341802
1580420506.51297,-0.0134279392690928,0.0192874036774242,-1.03736934462501
1580420506.54468,-0.0163576714732585,-0.0544441901274126,-1.06813153276875
1580420506.57639,-0.0407721065079727,-0.0939955748836496,-1.02418554970626
1580420506.60809,-0.00512703135728998,-0.0554207675288012,-0.89723048752575
1580420506.6398,-0.0910658426794839,-0.0681162737468526,-0.844007019150073
1580420506.67151,-0.127199206530861,-0.0734874494544897,-0.754161898222325
1580420506.70322,-0.00854505226214997,-0.115968566414892,-0.843518730449379
1580420506.73493,0.110597390707255,-0.0573739223315783,-1.06031891355764
1580420506.76664,0.181399252307926,0.0803234912642097,-1.40114442664225
1580420506.79834,0.160891126878766,-0.0852063782711525,-1.32692454413672
1580420506.83005,-0.060303654535744,-0.332768749523156,-1.08473334859235
1580420506.86176,-0.073975738155184,-0.0988784618905925,-0.977798123140307
1580420506.89347,-0.0915541313801782,0.113527122911421,-0.908461127641718
1580420506.92518,-0.034424353398947,0.0583504997329669,-0.986587319752804
1580420506.95688,0.037842374303807,-0.0910658426794839,-1.09254596780346
1580420506.98859,0.0788586251621268,-0.101808194094758,-1.08766308079652
1580420507.0203,-0.0178225375753414,-0.220950637064163,-0.823987182421607
1580420507.05201,-0.0793469138628211,-0.0856946669718468,-0.85621423666743
1580420507.08372,-0.106691081101701,-0.024170290684367,-0.719981689173723
1580420507.11543,-0.0769054703593497,0.0354009308003356,-0.798596169985505
1580420507.14713,-0.0583504997329669,0.0578622110322726,-0.756603341725796
1580420507.17884,0.0944838635843439,-0.0485847257190812,-0.888929579613947
1580420507.21055,-0.116456855115587,-0.273685816739148,-1.02516212710765
1580420507.24226,-0.241458762493323,-0.191653315022506,-0.779064621957733
1580420507.27397,-0.119386587319752,-0.114991989013504,-0.967055771725033
1580420507.30568,-0.195559624628061,0.0930189974822611,-1.00270084687572
1580420507.33738,-0.0544441901274126,0.0222171358815899,-1.23366140230411
1580420507.36909,-0.137453269245441,-0.169192034790569,-1.1233081559472
1580420507.4008,-0.120851453421835,-0.0109864957656214,-1.15114061188678
1580420507.43251,0.0109864957656214,-0.0144045166704814,-1.3884489204242
1580420507.46422,-0.0046387426565957,-0.192141603723201,-1.22780193789578
1580420507.49592,-0.0388189517051956,-0.101319905394064,-1.19801632715343
1580420507.52763,0.0144045166704814,-0.0686045624475469,-1.25612268253605
1580420507.55934,-0.027588311589227,-0.067139696345464,-1.13453879606317
1580420507.59105,-0.0437018387121384,-0.116945143816281,-1.15944151979858
1580420507.62276,-0.060303654535744,-0.131593804837109,-1.16774242771038
1580420507.65447,-0.0515144579232469,0.0476081483176927,-1.12623788815137
1580420507.68617,-0.0852063782711525,0.0769054703593497,-1.15016403448539
1580420507.71788,-0.257084000915542,0.101319905394064,-0.97926298924239
1580420507.74959,-0.330327306019685,0.0114747844663157,-0.804455634393836
1580420507.78137,-0.280033569848174,-0.0686045624475469,-0.544197756923781
1580420507.81308,-0.182864118410009,-0.0490730144197755,-0.394293125810636
1580420507.84479,-0.031006332494087,-0.277592126344702,-0.716563668268863
1580420507.8765,0.0583504997329669,-0.198977645532921,-0.899671931029221
1580420507.90821,0.172610055695429,0.0695811398489354,-1.13405050736248
1580420507.93991,0.256595712214846,0.0852063782711525,-1.43532463569085
1580420507.97162,0.0593270771343555,-0.254154268711376,-1.3371786068513
1580420508.00333,-0.044678416113527,-0.230716411078049,-1.13942168307011
1580420508.03504,-0.0949721522850382,0.00952162966353853,-0.948989089799344
1580420508.06675,-0.0529793240253298,0.0329594872968642,-1.00904859998474
1580420508.09845,0.0173342488746471,0.0217288471808956,-1.03395132372015
1580420508.13016,-0.0129396505683985,-0.110109102006561,-0.846448462653544
1580420508.16187,-0.0837415121690697,-0.203372243839169,-0.746349279011215
1580420508.19358,-0.0935072861829553,-0.209719996948195,-0.757579919127185
1580420508.22529,-0.0134279392690928,-0.00122072175173571,-0.844495307850767
1580420508.25699,-0.0568856336308841,0.0476081483176927,-0.790783550774396
1580420508.2887,-0.194094758525978,0.0974135957885096,-0.974380102235447
1580420508.32041,0.034424353398947,-0.102784771496147,-1.07789730678263
1580420508.35212,-0.138429846646829,-0.170168612191958,-0.852307927061876
1580420508.38383,0.0476081483176927,-0.177492942702372,-1.14479285877775
1580420508.41554,-0.0974135957885096,-0.154055085069047,-1.0124666208896
1580420508.44724,-0.131105516136415,-0.139406424048218,-0.97242694743267
1580420508.47895,-0.0729991607537954,0.0856946669718468,-1.15846494239719
1580420508.51066,-0.0754406042572668,0.0373540856031127,-1.0896162355993
1580420508.54237,-0.0886243991760125,-0.0168459601739528,-1.20143434805829
1580420508.57408,-0.107179369802395,-0.190676737621118,-1.12867933165484
1580420508.60579,-0.12475776302739,-0.224368657969023,-1.00758373388266
1580420508.63749,-0.0852063782711525,-0.177981231403066,-1.05885404745556
1580420508.6692,-0.0593270771343555,-0.0334477759975584,-1.05104142824445
1580420508.70091,-0.0783703364614325,-0.0334477759975584,-1.04322880903334
1580420508.73262,-0.185793850614175,-0.106202792401007,-0.903089951934081
1580420508.76433,-0.273197528038454,-0.178469520103761,-0.852307927061876
1580420508.79603,-0.213626306553749,-0.0407721065079727,-0.943617914091707
1580420508.82774,-0.239505607690546,-0.0612802319371326,-0.786877241168842
1580420508.85945,-0.292729076066225,0.0607919432364383,-0.764904249637599
1580420508.89116,-0.362554360265507,0.165285725185015,-0.768322270542459
1580420508.92287,-0.393316548409247,-0.0383306630045013,-0.615487907225146
1580420508.95458,-0.420172426947433,-0.067139696345464,-0.687266346227206
1580420508.98628,-0.640878919661249,-0.067139696345464,-0.771740291447319
1580420509.01799,-0.566659037155718,0.00512703135728998,-0.939711604486153
1580420509.04987,-0.613534752422369,-0.0485847257190812,-0.823010605020219
1580420509.08157,-0.806897077897307,-0.163332570382238,-0.73218890669108
1580420509.11328,-0.679942015716792,-0.158449683375295,-0.949477378500038
1580420509.14499,-0.703868162050812,-0.198977645532921,-0.97242694743267
1580420509.1767,-0.917250324254216,-0.182864118410009,-0.658945601586938
1580420509.20841,-1.01686121919585,-0.180910963607232,-0.709727626459143
1580420509.24011,-0.80836194399939,-0.184328984512092,-0.864026855878539
1580420509.27182,-0.729259174486915,-0.0695811398489354,-0.845471885252156
1580420509.30353,-0.950453955901427,-0.0847180895704582,-0.619882505531395
1580420509.33524,-0.675059128709849,-0.351323720149539,-0.93482871747921
1580420509.36695,-0.502693217364767,-0.184328984512092,-1.20827038986801
1580420509.39866,-0.74927901121538,-0.285404745555811,-0.933852140077821
1580420509.43036,-0.836682688639659,-0.202395666437781,-0.88355840390631
1580420509.46207,-0.74586099031052,-0.0939955748836496,-0.943617914091707
1580420509.49378,-0.672129396505683,-0.121828030823224,-1.09547570000763
1580420509.52549,-0.802502479591059,-0.178469520103761,-0.933852140077821
1580420509.5572,-0.681895170519569,-0.299565117875945,-1.11989013504234
1580420509.5889,-0.744884412909132,-0.403570611123827,-0.828381780727856
1580420509.62061,-0.553963530937667,-0.351812008850233,-1.17897306782635
1580420509.65232,-0.716563668268863,0.0417486839093613,-1.20192263675898
1580420509.68403,-0.512947280079347,0.132082093537804,-1.25661097123674
1580420509.71574,-0.52466620889601,-0.00219729915312428,-0.895765621423667
1580420509.74745,-0.479743648432136,0.110109102006561,-1.0383459220264
1580420509.77916,-0.363042648966202,-0.0920424200808725,-1.08180361638819
1580420509.81086,-0.527107652399481,-0.253177691309988,-0.637949187457084
1580420509.84257,-0.448981460288396,-0.0534676127260241,-0.41528953994049
1580420509.87428,-0.366460669871062,0.202395666437781,-0.192629892423895
1580420509.90599,-0.225345235370412,0.0114747844663157,-0.338628213931488
1580420509.9377,0.0422369726100555,-0.140383001449607,-0.783947508964676
1580420509.9694,0.113527122911421,-0.377203021286336,-0.799572747386893
1580420510.00111,0.27075608453498,-0.0715342946517126,-0.973403524834058
1580420510.03282,0.107179369802395,-0.0153810940718699,-0.992446784161135
1580420510.06453,0.23999389639124,-0.139406424048218,-1.34889753566796
1580420510.09624,0.255619134813458,-0.00952162966353853,-1.1833676661326
1580420510.12795,0.0124513618677042,-0.228274967574578,-1.04274052033265
1580420510.15965,0.147707331960021,-0.00610360875867855,-0.987075608453498
1580420510.19136,0.0627450980392155,-0.0168459601739528,-0.83228809033341
1580420510.22307,-0.0896009765774011,-0.0759288929579611,-0.74927901121538
1580420510.25478,-0.0783703364614325,-0.134035248340581,-0.74244296940566
1580420510.28649,0.0510261692225527,-0.027588311589227,-0.782482642862593
1580420510.31836,0.0949721522850382,-0.0554207675288012,-1.00123598077363
1580420510.35007,0.0202639810788128,-0.0192874036774242,-1.0466468299382
1580420510.38178,0.157473105973907,-0.133058670939192,-0.909437705043107
1580420510.41348,-0.0451667048142212,-0.226321812771801,-1.00270084687572
1580420510.44519,-0.0856946669718468,-0.0568856336308841,-1.12184328984512
1580420510.4769,-0.0153810940718699,0.208743419546806,-1.18825055313954
1580420510.50861,0.034424353398947,0.0417486839093613,-1.2087586785687
1580420510.54032,0.0280766002899213,-0.00366216525520713,-1.12233157854581
1580420510.57203,-0.0393072404058898,-0.166750591287098,-1.13600366216525
1580420510.60374,-0.0349126420996413,-0.172610055695429,-1.13112077515831
1580420510.63545,0.00415045395590141,-0.0568856336308841,-1.02223239490349
1580420510.66716,0.00317387655451284,-0.0886243991760125,-1.03932249942779
1580420510.69886,-0.0393072404058898,0.0554207675288012,-1.02662699320974
1580420510.73057,-0.0339360646982527,0.0944838635843439,-1.05690089265278
1580420510.76228,-0.0329594872968642,0.0158693827725642,-1.04322880903334
1580420510.79399,-0.0471198596169984,-0.0393072404058898,-1.05738918135348
1580420510.8257,-0.0837415121690697,-0.0896009765774011,-1.00611886778058
1580420510.85741,-0.0632333867399097,-0.133058670939192,-0.98609903105211
1580420510.88912,-0.0676279850461583,-0.136964980544747,-1.05787747005417
1580420510.92083,-0.044678416113527,0.00659189745937283,-0.946547646295873
1580420510.95253,0.0104982070649271,0.0515144579232469,-0.993911650263218
1580420510.98424,0.00366216525520713,-0.0158693827725642,-1.07643244068055
1580420511.01595,-0.0383306630045013,-0.0617685206378269,-0.997817959868772
1580420511.04766,-0.073975738155184,-0.141359578850995,-0.884046692607004
1580420511.07937,-0.122316319523918,-0.161867704280155,-0.78785381857023
1580420511.11108,-0.156984817273212,-0.0515144579232469,-0.82887006942855
1580420511.14279,0.164309147783626,0.128175783932249,-1.21412985427634
1580420511.17449,0.168703746089875,-0.0144045166704814,-1.34889753566796
1580420511.2062,0.0261234454871442,-0.216067750057221,-1.28883802548257
1580420511.23791,-0.0900892652780954,-0.251712825207905,-0.961684596017395
1580420511.26962,-0.134523537041275,0.00317387655451284,-0.891859311818113
1580420511.30133,-0.0432135500114441,0.175539787899595,-0.978286411841001
1580420511.33304,0.0891126878767068,0.0300297550926985,-1.10768291752499
1580420511.36475,0.162844281681544,-0.145265888456549,-1.15992980849927
1580420511.39645,0.0388189517051956,-0.325444419012742,-0.887464713511864
1580420511.42816,-0.144289311055161,-0.335210193026628,-0.785900663767453
1580420511.45987,0.0500495918211641,0.113038834210727,-0.923598077363241
1580420511.49158,0.152101930266269,0.0837415121690697,-0.849866483558404
1580420511.52329,0.070557717250324,0.0759288929579611,-0.870862897688259
1580420511.555,0.102784771496147,-0.107179369802395,-1.02613870450904
1580420511.58682,0.0563973449301898,-0.261966887922485,-0.82887006942855
1580420511.61853,0.159914549477378,-0.11108567940795,-1.02418554970626
1580420511.65024,0.103273060196841,0.0212405584802013,-1.14821087968261
1580420511.68195,0.0866712443732354,-0.0236820019836728,-1.01197833218891
1580420511.71366,0.0720225833524069,0.0285648889906156,-1.02760357061112
1580420511.74537,0.170168612191958,0.0656748302433812,-1.15504692149233
1580420511.77707,0.149172198062104,0.0451667048142212,-1.02858014801251
1580420511.80878,0.124269474326695,-0.154543373769741,-1.00953688868544
1580420511.84049,0.107179369802395,-0.118410009918364,-1.00660715648127
1580420511.8722,0.175051499198901,-0.0437018387121384,-1.04420538643473
1580420511.90391,0.176516365300984,-0.00952162966353853,-1.0129549095903
1580420511.93562,0.127687495231555,0.080811779964904,-0.981704432745861
1580420511.96733,0.104737926298924,0.0178225375753414,-0.983657587548638
1580420511.99903,0.0754406042572668,-0.0417486839093613,-0.969497215228504
1580420512.03074,0.0754406042572668,-0.0510261692225527,-0.946547646295873
1580420512.06245,0.0324711985961699,-0.0305180437933927,-0.942641336690318
1580420512.09416,0.0168459601739528,-0.0261234454871442,-0.88014038300145
1580420512.12587,0.0358892195010299,0.00415045395590141,-0.877698939497979
1580420512.15758,0.0754406042572668,-0.0764171816586554,-0.882093537804227
1580420512.18929,0.0568856336308841,-0.0593270771343555,-0.925551232166018
1580420512.221,0.0402838178072784,-0.0827649347676811,-0.986587319752804
1580420512.2527,0.144289311055161,-0.0227054245822842,-1.05592431525139
1580420512.28441,0.145265888456549,-0.108155947203784,-1.17360189211871
1580420512.31612,0.206301976043335,-0.0290531776913099,-1.4060273136492
1580420512.34783,0.129640650034332,-0.0905775539787896,-1.21364156557565
1580420512.37954,-0.0437018387121384,-0.160891126878766,-1.01979095140002
1580420512.41125,-0.0871595330739297,-0.0612802319371326,-0.841565575646602
1580420512.44296,0.0251468680857556,0.0573739223315783,-1.0124666208896
1580420512.47467,0.151125352864881,0.0173342488746471,-1.12867933165484
1580420512.50637,0.0437018387121384,-0.184328984512092,-1.00270084687572
1580420512.53808,-0.041260395208667,-0.219485770962081,-0.949965667200733
1580420512.56979,0.0798352025635154,-0.063721675440604,-1.02027924010071
1580420512.6015,0.0764171816586554,0.00122072175173571,-0.996841382467384
1580420512.63321,0.037842374303807,0.0295414663920042,-0.863538567177844
1580420512.66492,0.0427252613107498,-0.0813000686655982,-0.817151140611887
1580420512.69663,0.060303654535744,-0.113527122911421,-0.903089951934081
1580420512.72834,0.0422369726100555,-0.129640650034332,-0.965102616922255
1580420512.76004,-0.0363775082017241,-0.0686045624475469,-0.877698939497979
1580420512.79175,0.0246585793850613,0.096437018387121,-0.920180056458381
1580420512.82346,0.113038834210727,0.0173342488746471,-1.10914778362707
1580420512.85528,0.0358892195010299,-0.120851453421835,-1.04469367513542
1580420512.88699,0.0290531776913099,-0.113527122911421,-1.05006485084306
1580420512.9187,0.103761348897535,-0.0354009308003356,-1.10719462882429
1580420512.95041,0.0554207675288012,-0.0568856336308841,-1.06813153276875
1580420512.98212,0.0520027466239412,-0.0368657969024184,-1.07106126497291
1580420513.01383,0.0163576714732585,-0.044678416113527,-1.0378576333257
1580420513.04554,0.063721675440604,0.000244144350347142,-1.03492790112154
1580420513.07725,0.0651865415426869,-0.0397955291065841,-1.03932249942779
1580420513.10895,0.0681162737468526,-0.060303654535744,-1.02613870450904
1580420513.14066,0.0485847257190812,-0.0900892652780954,-1.01393148699168
1580420513.17237,0.0300297550926985,-0.0676279850461583,-1.00856031128405
1580420513.20408,0.00317387655451284,-0.0295414663920042,-1.02418554970626
1580420513.23579,0.0183108262760356,-0.024170290684367,-1.00025940337224
1580420513.2675,0.0246585793850613,-0.0222171358815899,-0.968520637827115
1580420513.29921,-0.0046387426565957,-0.0549324788281069,-0.959243152513924
1580420513.33092,-0.0129396505683985,-0.031006332494087,-0.954360265506981
1580420513.36262,-0.0114747844663157,-0.0251468680857556,-0.966079194323644
1580420513.39433,-0.0178225375753414,-0.0500495918211641,-0.98951705195697
1580420513.42604,-0.00952162966353853,-0.0788586251621268,-1.01686121919585
1580420513.45775,0.0109864957656214,-0.0295414663920042,-0.98609903105211
1580420513.48946,0.0314946211947813,-0.0187991149767299,-0.99977111467155
1580420513.52117,0.00659189745937283,-0.114991989013504,-0.990493629358358
1580420513.55288,-0.0168459601739528,-0.141847867551689,-1.06617837796597
1580420513.58459,0.0715342946517126,0.0124513618677042,-1.12916762035553
1580420513.61629,0.0168459601739528,0.0500495918211641,-1.11989013504234
1580420513.648,-0.0461432822156098,0.0905775539787896,-0.948012512397955
1580420513.67971,-0.0935072861829553,-0.0734874494544897,-0.907972838941024
1580420513.71142,-0.0676279850461583,-0.0925307087815668,-0.913344014648661
1580420513.74313,-0.104737926298924,-0.0559090562294955,-0.911879148546578
1580420513.77484,-0.0871595330739297,-0.0261234454871442,-0.880628671702144
1580420513.80655,-0.0627450980392155,-0.0153810940718699,-0.952895399404898
1580420513.83826,-0.0407721065079727,-0.101319905394064,-1.07887388418402
1580420513.86996,0.0075684748607614,-0.0178225375753414,-1.07740901808194
1580420513.90167,-0.0314946211947813,-0.0642099641412983,-1.0466468299382
1580420513.93338,-0.0236820019836728,-0.0227054245822842,-1.10328831921874
1580420513.96509,0.0168459601739528,-0.0168459601739528,-1.07106126497291
1580420513.9968,-0.102784771496147,-0.00170901045242999,-0.94850080109865
1580420514.02851,-0.0715342946517126,-0.00854505226214997,-1.01051346608682
1580420514.06022,-0.0852063782711525,-0.0559090562294955,-0.954848554207675
1580420514.09192,-0.106691081101701,-0.0334477759975584,-0.956313420309758
1580420514.12375,-0.00854505226214997,0.00268558785381856,-0.98268101014725
1580420514.15546,-0.00708018616006711,-0.102784771496147,-1.07643244068055
1580420514.18717,-0.0959487296864268,-0.00219729915312428,-1.14479285877775
1580420514.21888,-0.109620813305867,0.0422369726100555,-1.04078736552987
1580420514.25058,-0.0798352025635154,-0.0510261692225527,-0.987075608453498
1580420514.28229,-0.125734340428778,-0.0456549935149155,-1.01051346608682
1580420514.314,-0.10424963759823,0.113527122911421,-0.943129625391013
1580420514.34571,-0.0588387884336612,-0.0168459601739528,-1.0124666208896
1580420514.37742,-0.0554207675288012,-0.0744640268558783,-1.03297474631876
1580420514.40913,-0.0568856336308841,-0.0515144579232469,-1.04420538643473
1580420514.44084,-0.00610360875867855,0.00317387655451284,-1.07838559548333
1580420514.47255,-0.0676279850461583,-0.0144045166704814,-0.99635309376669
1580420514.50426,-0.0993667505912867,0.0451667048142212,-0.927016098268101
1580420514.53597,-0.114991989013504,0.0358892195010299,-0.916273746852827
1580420514.56768,-0.106202792401007,-0.0163576714732585,-0.957778286411841
1580420514.59939,-0.0271000228885327,-0.0837415121690697,-1.00709544518196
1580420514.6311,-0.0544441901274126,-0.0666514076447697,-1.03883421072709
1580420514.6628,-0.102784771496147,-0.0593270771343555,-0.984634164950027
1580420514.69451,-0.0524910353246355,-0.0271000228885327,-1.0041657129778
1580420514.72622,-0.0314946211947813,0.0222171358815899,-1.01100175478752
1580420514.75793,-0.108155947203784,-0.00366216525520713,-1.00270084687572
1580420514.78964,-0.0451667048142212,-0.00805676356145568,-1.05104142824445
1580420514.82135,-0.0534676127260241,-0.0593270771343555,-1.00025940337224
1580420514.85306,-0.0949721522850382,-0.0754406042572668,-0.974868390936141
1580420514.88477,-0.077393759060044,0.0451667048142212,-1.03541618982223
1580420514.91648,-0.130128938735027,-0.0100099183642328,-0.984634164950027
1580420514.94819,-0.0349126420996413,-0.0251468680857556,-1.02369726100557
1580420514.9799,-0.0886243991760125,-0.0544441901274126,-1.02418554970626
1580420515.01161,-0.0607919432364383,-0.024170290684367,-1.00953688868544
1580420515.04331,-0.00317387655451284,-0.0354009308003356,-1.02906843671321
1580420515.07502,-0.110109102006561,-0.0578622110322726,-0.995376516365301
1580420515.10673,-0.11450370031281,-0.0397955291065841,-0.961684596017395
1580420515.13844,-0.0896009765774011,-0.0183108262760356,-1.04615854123751
1580420515.17015,-0.0974135957885096,-0.0124513618677042,-0.990981918059052
1580420515.20186,-0.0769054703593497,0.0432135500114441,-0.988540474555581
1580420515.23357,-0.0422369726100555,-0.0710460059510183,-1.0124666208896
1580420515.26528,-0.0788586251621268,-0.169192034790569,-1.01344319829099
1580420515.29699,-0.127199206530861,-0.0187991149767299,-1.00953688868544
1580420515.3287,-0.0744640268558783,0.0700694285496297,-1.03297474631876
1580420515.36041,-0.080811779964904,0.0539559014267184,-1.0207675288014
1580420515.39221,-0.077393759060044,-0.0393072404058898,-0.983657587548638
1580420515.42392,-0.102296482795452,-0.034424353398947,-1.00611886778058
1580420515.45563,-0.109132524605172,0.000244144350347142,-0.977798123140307
1580420515.48734,-0.127199206530861,-0.0803234912642097,-0.94508278019379
1580420515.51905,-0.108155947203784,-0.0227054245822842,-0.96559090562295
1580420515.55076,-0.0915541313801782,0.037842374303807,-0.981216144045167
1580420515.58247,-0.0935072861829553,-0.136476691844052,-1.03053330281529
1580420515.61418,-0.0856946669718468,-0.0803234912642097,-1.0383459220264
1580420515.64588,-0.0417486839093613,0.0212405584802013,-1.02369726100557
1580420515.67759,-0.0539559014267184,-0.0339360646982527,-1.0642252231632
1580420515.7093,-0.127199206530861,-0.0612802319371326,-0.999282825970855
1580420515.74101,-0.110597390707255,-0.0383306630045013,-0.973403524834058
1580420515.77272,-0.108644235904478,-0.0134279392690928,-1.01344319829099
1580420515.80443,-0.127199206530861,-0.0280766002899213,-0.990005340657664
1580420515.83614,-0.147707331960021,-0.0485847257190812,-0.925062943465324
1580420515.86785,-0.147219043259327,-0.0559090562294955,-1.01002517738613
1580420515.89956,-0.144289311055161,-0.0437018387121384,-1.03736934462501
1580420515.93127,-0.118898298619058,0.031006332494087,-0.943129625391013
1580420515.96298,-0.0944838635843439,0.0441901274128327,-1.00709544518196
1580420515.99469,-0.0661631189440754,-0.0822766460669868,-1.08229190508888
1580420516.02639,-0.0920424200808725,-0.120363164721141,-1.04274052033265
1580420516.0581,-0.117433432516975,-0.0207522697795071,-1.01393148699168
1580420516.08981,-0.152590218966964,-0.0715342946517126,-0.949965667200733
1580420516.12152,-0.172121766994735,-0.0148928053711757,-0.952895399404898
1580420516.15323,-0.099855039291981,0.0593270771343555,-0.96217288471809
1580420516.18494,-0.113527122911421,-0.0349126420996413,-0.992446784161135
1580420516.21665,-0.149660486762798,-0.0617685206378269,-1.01686121919585
1580420516.24836,-0.116945143816281,-0.101808194094758,-0.993423361562524
1580420516.28007,-0.102784771496147,-0.0104982070649271,-1.04615854123751
1580420516.31178,-0.156984817273212,0.0124513618677042,-1.03102159151598
1580420516.34349,-0.121828030823224,0.0046387426565957,-1.02760357061112
1580420516.3752,-0.145754177157244,0.00512703135728998,-0.967055771725033
1580420516.40691,-0.165285725185015,-0.0769054703593497,-0.898207064927139
1580420516.43861,-0.0876478217746239,-0.0578622110322726,-1.07692072938125
1580420516.47032,-0.126710917830167,-0.113527122911421,-1.00172426947433
1580420516.50203,-0.158449683375295,-0.0598153658350498,-0.97926298924239
1580420516.53374,-0.0729991607537954,-0.0471198596169984,-1.07057297627222
1580420516.56545,-0.0988784618905925,-0.0158693827725642,-1.09059281300069
1580420516.59716,-0.147707331960021,0.0207522697795071,-0.94850080109865
1580420516.62887,-0.105714503700312,-0.00903334096284425,-1.0036774242771
1580420516.6607,-0.142336156252384,-0.0632333867399097,-0.976821545738918
1580420516.69241,-0.126222629129472,-0.0510261692225527,-0.949965667200733
1580420516.72412,-0.0915541313801782,0.00512703135728998,-0.968520637827115
1580420516.75583,-0.134523537041275,-0.00122072175173571,-1.0041657129778
1580420516.78754,-0.119874876020447,-0.0358892195010299,-0.99635309376669
1580420516.81925,-0.112062256809338,-0.0534676127260241,-0.986587319752804
1580420516.85096,-0.116945143816281,-0.00122072175173571,-1.00318913557641
1580420516.88267,-0.116945143816281,-0.0314946211947813,-0.971450370031281
1580420516.91438,-0.136476691844052,-0.044678416113527,-0.967544060425727
1580420516.94609,-0.128664072632944,0.0222171358815899,-1.02662699320974
1580420516.9778,-0.128664072632944,-0.0588387884336612,-1.0295567254139
1580420517.00951,-0.148683909361409,-0.0500495918211641,-1.02613870450904
1580420517.04122,-0.0847180895704582,-0.0319829098954756,-0.969497215228504
1580420517.07293,-0.0852063782711525,0.0715342946517126,-1.03150988021668
1580420517.10464,-0.115480277714198,-0.0627450980392155,-1.07692072938125
1580420517.13635,-0.109132524605172,-0.104737926298924,-1.00660715648127
1580420517.16806,-0.127199206530861,-0.00219729915312428,-0.978774700541695
1580420517.19977,-0.0876478217746239,-0.0202639810788128,-1.04274052033265
1580420517.23148,-0.148195620660715,-0.0314946211947813,-0.961684596017395
1580420517.26319,-0.166750591287098,-0.0529793240253298,-0.900160219729916
1580420517.2949,-0.138429846646829,0.00512703135728998,-0.971450370031281
1580420517.32661,-0.101319905394064,-0.0124513618677042,-0.992446784161135
1580420517.35832,-0.12475776302739,-0.0266117341878385,-1.03932249942779
1580420517.39003,-0.0979018844892039,-0.00659189745937283,-1.07057297627222
1580420517.42174,-0.106691081101701,-0.0827649347676811,-0.994888227664607
1580420517.45345,-0.191165026321812,-0.070557717250324,-0.965102616922255
1580420517.48516,-0.122316319523918,0.0129396505683985,-0.999282825970855
1580420517.51687,-0.130128938735027,0.0144045166704814,-0.935317006179904
1580420517.54858,-0.122804608224612,-0.0427252613107498,-0.999282825970855
1580420517.58029,-0.0778820477607383,-0.0915541313801782,-1.10426489662013
1580420517.61199,-0.121828030823224,-0.0974135957885096,-1.04469367513542
1580420517.6437,-0.119386587319752,-0.0163576714732585,-1.01686121919585
1580420517.67542,-0.127199206530861,-0.0075684748607614,-1.01979095140002
1580420517.70712,-0.143312733653772,-0.0173342488746471,-0.987075608453498
1580420517.73883,-0.136964980544747,-0.0163576714732585,-0.990493629358358
1580420517.77054,-0.122804608224612,-0.0334477759975584,-0.990981918059052
1580420517.80225,-0.134523537041275,-0.0354009308003356,-0.997817959868772
1580420517.83396,-0.122316319523918,-0.0715342946517126,-0.984634164950027
1580420517.86567,-0.132570382238498,-0.0168459601739528,-0.978286411841001
1580420517.89738,-0.149172198062104,-0.000244144350347142,-0.969985503929198
1580420517.92923,-0.148195620660715,-0.0246585793850613,-0.990005340657664
1580420517.96094,-0.101808194094758,-0.0227054245822842,-0.994888227664607
1580420517.99265,-0.134523537041275,-0.0402838178072784,-0.981704432745861
1580420518.02436,-0.119874876020447,-0.0915541313801782,-1.00611886778058
1580420518.05607,-0.161867704280155,-0.0871595330739297,-1.01881437399863
1580420518.08778,-0.142336156252384,0.044678416113527,-1.03688105592432
1580420518.11949,-0.0905775539787896,-0.00659189745937283,-1.0036774242771
1580420518.1512,-0.0974135957885096,-0.0290531776913099,-1.04859998474098
1580420518.18291,-0.108155947203784,-0.0949721522850382,-1.07154955367361
1580420518.21462,-0.101808194094758,-0.080811779964904,-0.996841382467384
1580420518.24633,-0.0983901731898982,-0.0046387426565957,-1.04420538643473
1580420518.27804,-0.138429846646829,-0.0476081483176927,-0.966079194323644
1580420518.30974,-0.193606469825284,-0.0646982528419926,-0.918715190356298
1580420518.34145,-0.126222629129472,-0.0266117341878385,-0.981704432745861
1580420518.37316,-0.129152361333638,-0.0666514076447697,-0.954360265506981
1580420518.40487,-0.151613641565575,-0.0305180437933927,-1.00953688868544
1580420518.43658,-0.0881361104753182,-0.0642099641412983,-1.05445944914931
1580420518.46829,-0.125246051728084,-0.0656748302433812,-0.942641336690318
1580420518.5,-0.128664072632944,-0.00317387655451284,-0.996841382467384
1580420518.53171,-0.137941557946135,-0.0563973449301898,-1.01832608529793
1580420518.56342,-0.189700160219729,-0.0383306630045013,-0.960219729915313
1580420518.59513,-0.109132524605172,-0.0207522697795071,-1.03981078812848
1580420518.62684,-0.0949721522850382,-0.041260395208667,-1.02418554970626
1580420518.65855,-0.131105516136415,-0.0822766460669868,-1.03932249942779
1580420518.69026,-0.0456549935149155,-0.0568856336308841,-1.07057297627222
1580420518.72197,-0.138918135347524,0.0046387426565957,-0.954848554207675
1580420518.75368,-0.157961394674601,0.0485847257190812,-0.980727855344472
1580420518.78539,-0.116456855115587,-0.0192874036774242,-1.03199816891737
1580420518.8171,-0.159426260776684,-0.0563973449301898,-0.984634164950027
1580420518.84881,-0.135988403143358,-0.0393072404058898,-0.948989089799344
1580420518.88052,-0.139894712748912,0.00317387655451284,-1.00465400167849
1580420518.91223,-0.127687495231555,-0.00708018616006711,-1.0041657129778
1580420518.94394,-0.142824444953078,-0.0256351567864499,-0.963637750820173
1580420518.97565,-0.135500114442664,0.00805676356145568,-1.02174410620279
1580420519.00736,-0.138918135347524,-0.0427252613107498,-0.985122453650721
1580420519.03907,-0.177981231403066,-0.0251468680857556,-0.984145876249332
1580420519.07078,-0.134035248340581,0.00952162966353853,-0.994399938963912
1580420519.10249,-0.187747005416952,-0.0266117341878385,-0.995864805065995
1580420519.1342,-0.135988403143358,-0.00415045395590141,-1.07740901808194
1580420519.16591,-0.107179369802395,-0.0329594872968642,-1.00904859998474
1580420519.19775,-0.132082093537804,0.0231937132829785,-1.04322880903334
1580420519.22946,-0.118410009918364,-0.0207522697795071,-1.05299458304723
1580420519.26117,-0.172610055695429,-0.0607919432364383,-0.954360265506981
1580420519.29288,-0.164797436484321,0.00170901045242999,-0.968032349126421
1580420519.32459,-0.150637064164187,0.0178225375753414,-0.96559090562295
1580420519.3563,-0.185793850614175,-0.0607919432364383,-0.928480964370184
1580420519.38801,-0.150148775463492,-0.0646982528419926,-0.959731441214618
1580420519.41972,-0.130128938735027,0.00317387655451284,-0.993423361562524
1580420519.45143,-0.143312733653772,0.0349126420996413,-1.05104142824445
1580420519.48314,-0.175051499198901,-0.0212405584802013,-0.96559090562295
1580420519.51485,-0.144289311055161,-0.0500495918211641,-0.954848554207675
1580420519.54656,-0.114991989013504,-0.0363775082017241,-1.07301441977569
1580420519.57827,-0.153566796368352,-0.0490730144197755,-1.04615854123751
1580420519.60998,-0.157473105973907,-0.0617685206378269,-0.984145876249332
1580420519.6417,-0.108644235904478,0.041260395208667,-1.03688105592432
1580420519.67341,-0.10766765850309,0.00903334096284425,-1.06080720225834
1580420519.70512,-0.134523537041275,-0.0417486839093613,-1.07057297627222
1580420519.73683,-0.178957808804455,-0.0510261692225527,-0.935317006179904
1580420519.76854,-0.150637064164187,-0.0114747844663157,-0.987075608453498
1580420519.80025,-0.184328984512092,0.0222171358815899,-0.972915236133364
1580420519.83196,-0.165774013885709,-0.0114747844663157,-0.974380102235447
1580420519.86367,-0.162844281681544,-0.0632333867399097,-0.940688181887541
1580420519.89538,-0.165774013885709,-0.0490730144197755,-0.98951705195697
1580420519.92709,-0.154543373769741,-0.0148928053711757,-0.987563897154192
1580420519.9588,-0.169680323491264,-0.00659189745937283,-0.992446784161135
1580420519.99051,-0.140871290150301,0.0100099183642328,-0.976333257038224
1580420520.02222,-0.172121766994735,-0.0520027466239412,-1.01783779659724
1580420520.05393,-0.161379415579461,-0.0373540856031127,-0.985122453650721
1580420520.08564,-0.168215457389181,-0.00708018616006711,-0.957778286411841
1580420520.11735,-0.140383001449607,0.0261234454871442,-0.998306248569467
1580420520.14906,-0.177981231403066,-0.0368657969024184,-1.03492790112154
1580420520.18077,-0.169680323491264,-0.0100099183642328,-0.96900892652781
1580420520.21248,-0.10766765850309,-0.000732433051041426,-1.02906843671321
1580420520.24419,-0.0837415121690697,-0.00170901045242999,-1.13649195086595
1580420520.2759,-0.162355992980849,-0.0144045166704814,-1.02320897230488
1580420520.30761,-0.143312733653772,-0.034424353398947,-0.946059357595178
1580420520.33932,-0.165774013885709,-0.063721675440604,-0.92799267566949
1580420520.37103,-0.227298390173189,-0.041260395208667,-0.957289997711147
1580420520.40274,-0.177492942702372,0.00317387655451284,-0.919203479056993
1580420520.43445,-0.163820859082932,0.0290531776913099,-0.956801709010453
1580420520.46628,-0.137941557946135,-0.0363775082017241,-1.09987029831388
1580420520.49799,-0.149660486762798,-0.0949721522850382,-1.02174410620279
1580420520.5297,-0.234134431982909,-0.00170901045242999,-0.907972838941024
1580420520.56141,-0.157961394674601,0.0129396505683985,-0.994399938963912
1580420520.59312,-0.148683909361409,-0.0236820019836728,-1.01588464179446
1580420520.62483,-0.176028076600289,-0.0046387426565957,-1.072526131075
1580420520.65654,-0.0983901731898982,-0.067139696345464,-1.05250629434653
1580420520.68825,-0.154055085069047,-0.0607919432364383,-1.00074769207294
1580420520.71996,-0.237552452887769,-0.0354009308003356,-0.952407110704204
1580420520.75167,-0.182375829709315,-0.00366216525520713,-0.967055771725033
1580420520.78338,-0.169680323491264,-0.0158693827725642,-1.02809185931182
1580420520.81509,-0.185793850614175,0.00561532005798426,-1.01881437399863
1580420520.8468,-0.132570382238498,-0.0583504997329669,-1.00465400167849
1580420520.87852,-0.0905775539787896,-0.0715342946517126,-1.11012436102846
1580420520.91023,-0.180422674906538,-0.0559090562294955,-0.994888227664607
1580420520.94194,-0.184328984512092,0.0153810940718699,-0.939223315785458
1580420520.97365,-0.0993667505912867,0.0686045624475469,-1.01539635309377
1580420521.00536,-0.142824444953078,-0.0593270771343555,-0.97242694743267
1580420521.03707,-0.195559624628061,-0.080811779964904,-0.959731441214618
1580420521.06878,-0.177492942702372,-0.00952162966353853,-1.03053330281529
1580420521.10049,-0.163332570382238,0.00854505226214997,-0.978286411841001
1580420521.1322,-0.149660486762798,0.0158693827725642,-0.943129625391013
1580420521.16391,-0.113527122911421,0.0300297550926985,-0.954360265506981
1580420521.19562,-0.211673151750972,0.0222171358815899,-0.877210650797284
1580420521.22733,-0.182375829709315,-0.0827649347676811,-0.964614328221561
1580420521.25904,-0.0837415121690697,-0.0856946669718468,-1.09938200961318
1580420521.29075,-0.117433432516975,-0.0192874036774242,-1.00465400167849
1580420521.32246,-0.112062256809338,-0.000244144350347142,-1.05885404745556
1580420521.35417,-0.118410009918364,-0.0324711985961699,-0.997817959868772
1580420521.38589,-0.216067750057221,-0.0559090562294955,-0.914808880750744
1580420521.4176,-0.173586633096818,0.0251468680857556,-0.935805294880598
1580420521.44931,-0.144289311055161,0.0495613031204698,-0.972915236133364
1580420521.48102,-0.201907377737086,-0.0329594872968642,-0.984634164950027
1580420521.51273,-0.164309147783626,-0.0969253070878153,-1.05201800564584
1580420521.54444,-0.169192034790569,-0.0920424200808725,-0.995376516365301
1580420521.57615,-0.10424963759823,-0.0163576714732585,-1.05738918135348
1580420521.60786,-0.137941557946135,-0.00512703135728998,-1.01100175478752
1580420521.63957,-0.191165026321812,0.0222171358815899,-0.984145876249332
1580420521.67128,-0.150148775463492,-0.00805676356145568,-1.03053330281529
1580420521.70299,-0.144289311055161,-0.00903334096284425,-1.04322880903334
1580420521.73477,-0.176028076600289,-0.00903334096284425,-1.01832608529793
1580420521.76648,-0.172121766994735,-0.0354009308003356,-0.99635309376669
1580420521.79819,-0.182864118410009,-0.0534676127260241,-0.985122453650721
1580420521.8299,-0.161379415579461,-0.00512703135728998,-0.98951705195697
1580420521.86161,-0.139406424048218,0.0495613031204698,-0.982192721446555
1580420521.89332,-0.168703746089875,0.0168459601739528,-0.948012512397955
1580420521.92503,-0.149660486762798,-0.0734874494544897,-1.00465400167849
1580420521.95675,-0.158937972075989,-0.0168459601739528,-0.994888227664607
1580420521.98846,-0.206301976043335,0.0271000228885327,-0.978286411841001
1580420522.02017,-0.189700160219729,0.0144045166704814,-0.960219729915313
1580420522.05188,-0.167238879987792,-0.00854505226214997,-0.957289997711147
1580420522.08359,-0.168215457389181,0.0280766002899213,-1.01100175478752
1580420522.1153,-0.204348821240558,-0.0280766002899213,-1.00465400167849
1580420522.14701,-0.157961394674601,0.0251468680857556,-0.983169298847944
1580420522.17872,-0.0983901731898982,-0.0466315709163041,-1.09596398870832
1580420522.21043,-0.110597390707255,-0.0476081483176927,-1.08033875028611
1580420522.24214,-0.180422674906538,0.00659189745937283,-0.994399938963912
1580420522.27385,-0.228274967574578,0.0329594872968642,-0.936781872281987
1580420522.30556,-0.187747005416952,0.0515144579232469,-0.891859311818113
1580420522.33727,-0.138918135347524,0.0759288929579611,-0.96217288471809
1580420522.36898,-0.109620813305867,-0.0134279392690928,-1.09742885481041
1580420522.40069,-0.186770428015564,-0.149660486762798,-0.984145876249332
1580420522.4324,-0.192141603723201,-0.129152361333638,-0.978774700541695
1580420522.46412,-0.106202792401007,-0.000732433051041426,-1.04811169604028
1580420522.49583,-0.157473105973907,0.0715342946517126,-0.980727855344472
1580420522.52754,-0.168703746089875,0.0866712443732354,-0.956313420309758
1580420522.55925,-0.143801022354467,-0.0046387426565957,-0.974380102235447
1580420522.59096,-0.176028076600289,-0.0651865415426869,-1.06617837796597
1580420522.62267,-0.158449683375295,-0.0100099183642328,-1.02906843671321
1580420522.65438,-0.11450370031281,0.0236820019836728,-0.99635309376669
1580420522.68609,-0.157473105973907,0.0158693827725642,-0.991958495460441
1580420522.7178,-0.169192034790569,0.00415045395590141,-0.94508278019379
1580420522.74951,-0.191165026321812,-0.00854505226214997,-0.97926298924239
1580420522.78122,-0.190188448920424,-0.00903334096284425,-1.00025940337224
1580420522.81293,-0.153566796368352,0.0539559014267184,-1.00025940337224
1580420522.84464,-0.119874876020447,-0.0554207675288012,-1.00611886778058
1580420522.87635,-0.140871290150301,-0.00708018616006711,-0.997817959868772
1580420522.90806,-0.167727168688486,-0.00366216525520713,-0.947035934996567
1580420522.93977,-0.207278553444723,-0.00268558785381856,-1.01588464179446
1580420522.97149,-0.186770428015564,-0.0305180437933927,-1.04811169604028
1580420523.00336,-0.164309147783626,-0.0207522697795071,-0.958266575112535
1580420523.03507,-0.164797436484321,-0.0212405584802013,-0.995864805065995
1580420523.06678,-0.122316319523918,0.0319829098954756,-1.0720378423743
1580420523.09849,-0.116456855115587,-0.0437018387121384,-1.00953688868544
1580420523.1302,-0.171145189593346,-0.0568856336308841,-1.00074769207294
1580420523.16191,-0.153078507667658,-0.0402838178072784,-0.96559090562295
1580420523.19362,-0.144777599755855,0.00268558785381856,-1.02613870450904
1580420523.22533,-0.182864118410009,-0.0422369726100555,-0.94850080109865
1580420523.25705,-0.188235294117646,-0.0666514076447697,-0.94508278019379
1580420523.28876,-0.210696574349583,-0.00122072175173571,-0.974868390936141
1580420523.32047,-0.142336156252384,0.00903334096284425,-1.04225223163195
1580420523.35218,-0.141847867551689,-0.0207522697795071,-0.966079194323644
1580420523.38389,-0.184328984512092,0.0490730144197755,-0.984145876249332
1580420523.4156,-0.197024490730143,0.0251468680857556,-0.984145876249332
1580420523.44731,-0.196536202029449,-0.0881361104753182,-0.952895399404898
1580420523.47902,-0.188723582818341,0.00561532005798426,-1.01002517738613
1580420523.51073,-0.102784771496147,0.0891126878767068,-1.06617837796597
1580420523.54244,-0.0554207675288012,-0.0949721522850382,-1.09498741130693
1580420523.57416,-0.188235294117646,-0.139406424048218,-1.01637293049516
1580420523.60587,-0.136964980544747,-0.00805676356145568,-0.978774700541695
1580420523.63758,-0.183352407110704,0.0529793240253298,-0.967055771725033
1580420523.66929,-0.217532616159303,0.0944838635843439,-0.930434119172961
1580420523.701,-0.174074921797512,-0.0144045166704814,-0.946059357595178
1580420523.73271,-0.163820859082932,-0.113527122911421,-1.03492790112154
1580420523.76442,-0.177981231403066,-0.0759288929579611,-1.00953688868544
1580420523.79613,-0.194094758525978,-0.00122072175173571,-1.00709544518196
1580420523.82784,-0.169680323491264,-0.0109864957656214,-0.998306248569467
1580420523.85956,-0.127687495231555,-0.0837415121690697,-1.00270084687572
1580420523.89127,-0.132570382238498,-0.0402838178072784,-1.03053330281529
1580420523.92298,-0.156496528572518,0.0329594872968642,-1.01344319829099
1580420523.95469,-0.206790264744029,0.0778820477607383,-1.00074769207294
1580420523.9864,-0.244876783398183,-0.0148928053711757,-0.838147554741742
1580420524.01811,-0.185305561913481,-0.0886243991760125,-0.952407110704204
1580420524.04982,-0.163332570382238,-0.0373540856031127,-1.02174410620279
1580420524.08153,-0.210696574349583,-0.0515144579232469,-1.01393148699168
1580420524.11325,-0.118410009918364,0.031006332494087,-1.01197833218891
1580420524.14496,-0.130128938735027,-0.0349126420996413,-1.09352254520485
1580420524.17667,-0.136964980544747,-0.0871595330739297,-1.10719462882429
1580420524.20838,-0.139894712748912,0.0217288471808956,-0.984145876249332
1580420524.24009,-0.193606469825284,-0.0593270771343555,-0.960708018616007
1580420524.27188,-0.201419089036392,-0.0124513618677042,-0.978774700541695
1580420524.30359,-0.157473105973907,-0.0549324788281069,-0.968032349126421
1580420524.3353,-0.153078507667658,0.00805676356145568,-0.93482871747921
1580420524.36701,-0.179446097505149,-0.0749523155565726,-0.981704432745861
1580420524.39873,-0.168215457389181,-0.114991989013504,-0.95191882200351
1580420524.43044,-0.201907377737086,-0.0207522697795071,-0.926527809567407
1580420524.46215,-0.184817273212786,0.070557717250324,-1.00904859998474
1580420524.49386,-0.203860532539863,-0.0173342488746471,-0.995864805065995
1580420524.52557,-0.153078507667658,-0.106202792401007,-0.993423361562524
1580420524.55728,-0.137941557946135,-0.0588387884336612,-1.01441977569238
1580420524.58899,-0.142824444953078,0.0144045166704814,-1.08375677119097
1580420524.6207,-0.168215457389181,0.117433432516975,-1.04274052033265
1580420524.65241,-0.175539787899595,0.0622568093385212,-0.971450370031281
1580420524.68412,-0.146730754558632,-0.0788586251621268,-1.00758373388266
1580420524.71584,-0.149660486762798,-0.109620813305867,-1.01393148699168
1580420524.74755,-0.221927214465552,-0.109620813305867,-0.974380102235447
1580420524.77926,-0.251224536507211,-0.0104982070649271,-0.955825131609064
1580420524.81097,-0.184817273212786,0.044678416113527,-0.964614328221561
1580420524.84268,-0.156984817273212,0.0485847257190812,-0.994399938963912
1580420524.87439,-0.212649729152361,-0.0456549935149155,-0.97242694743267
1580420524.9061,-0.135988403143358,-0.0822766460669868,-0.988540474555581
1580420524.93781,-0.137941557946135,-0.0114747844663157,-1.0295567254139
1580420524.96952,-0.203372243839169,-0.109132524605172,-1.07154955367361
1580420525.00124,-0.169192034790569,0.0622568093385212,-0.983657587548638
1580420525.03295,-0.137941557946135,0.0295414663920042,-0.948012512397955
1580420525.06466,-0.160402838178072,-0.0954604409857325,-1.02418554970626
1580420525.09637,-0.178469520103761,-0.126222629129472,-0.96559090562295
1580420525.12808,-0.144289311055161,-0.0153810940718699,-1.0129549095903
1580420525.15979,-0.147707331960021,-0.103761348897535,-0.985122453650721
1580420525.1915,-0.172610055695429,-0.0485847257190812,-0.977309834439613
1580420525.22321,-0.202883955138475,0.0339360646982527,-0.980239566643778
1580420525.25493,-0.184328984512092,-0.0173342488746471,-1.00172426947433
1580420525.28664,-0.193606469825284,-0.0549324788281069,-1.0300450141146
1580420525.31835,-0.156984817273212,-0.0163576714732585,-0.976333257038224
1580420525.35006,-0.0856946669718468,-0.00659189745937283,-1.03297474631876
1580420525.38177,-0.139406424048218,-0.0959487296864268,-1.05592431525139
1580420525.41348,-0.207766842145418,-0.034424353398947,-0.970962081330587
1580420525.44519,-0.161867704280155,-0.0153810940718699,-0.92457465476463
1580420525.4769,-0.152590218966964,-0.0651865415426869,-0.983657587548638
1580420525.50861,-0.209719996948195,-0.0349126420996413,-0.976333257038224
1580420525.54043,-0.182864118410009,-0.0202639810788128,-0.977798123140307
1580420525.57215,-0.158449683375295,-0.00219729915312428,-0.987075608453498
1580420525.60386,-0.204837109941252,-0.0266117341878385,-0.94508278019379
1580420525.63557,-0.196536202029449,-0.0466315709163041,-1.05299458304723
1580420525.66728,-0.152590218966964,-0.0305180437933927,-0.999282825970855
1580420525.69899,-0.136476691844052,-0.0261234454871442,-0.997329671168078
1580420525.7307,-0.177981231403066,-0.073975738155184,-1.00221255817502
1580420525.76241,-0.191165026321812,-0.0822766460669868,-0.974868390936141
1580420525.79412,-0.156496528572518,0.00512703135728998,-0.98609903105211
1580420525.82583,-0.160402838178072,-0.063721675440604,-1.06031891355764
1580420525.85755,-0.172121766994735,-0.0710460059510183,-1.01832608529793
1580420525.88926,-0.109132524605172,-0.105714503700312,-1.00611886778058
1580420525.92097,-0.132082093537804,-0.077393759060044,-1.03199816891737
1580420525.95268,-0.178469520103761,-0.0305180437933927,-0.966567483024338
1580420525.98439,-0.162844281681544,-0.0368657969024184,-0.96900892652781
1580420526.0161,-0.148683909361409,-0.0715342946517126,-0.993911650263218
1580420526.04781,-0.163332570382238,-0.0793469138628211,-0.959731441214618
1580420526.07952,-0.177492942702372,-0.0720225833524069,-0.993423361562524
1580420526.11123,-0.173098344396124,-0.0417486839093613,-0.97926298924239
1580420526.14295,-0.176516365300984,-0.0187991149767299,-1.00758373388266
1580420526.17466,-0.201419089036392,0.00170901045242999,-1.03492790112154
1580420526.20637,-0.168703746089875,-0.0349126420996413,-1.04615854123751
1580420526.23808,-0.12475776302739,-0.096437018387121,-0.98609903105211
1580420526.26979,-0.104737926298924,-0.0676279850461583,-1.01930266269932
1580420526.3015,-0.127687495231555,-0.0104982070649271,-1.06861982146944
1580420526.33321,-0.178469520103761,-0.00219729915312428,-0.929945830472267
1580420526.36492,-0.178957808804455,-0.0520027466239412,-0.97242694743267
1580420526.39663,-0.180910963607232,-0.077393759060044,-0.985122453650721
1580420526.42835,-0.233646143282215,0.0515144579232469,-0.925062943465324
1580420526.46006,-0.297611963073168,-0.00903334096284425,-0.838147554741742
1580420526.49177,-0.106691081101701,0.0632333867399097,-1.06031891355764
1580420526.52348,-0.140383001449607,-0.0441901274128327,-1.04518196383612
1580420526.55519,-0.211673151750972,-0.131105516136415,-1.03053330281529
1580420526.5869,-0.185305561913481,-0.113038834210727,-0.939223315785458
1580420526.61861,-0.140383001449607,0.0319829098954756,-1.05299458304723
1580420526.65032,-0.207766842145418,0.0554207675288012,-0.991470206759747
1580420526.68203,-0.159426260776684,-0.0261234454871442,-1.00709544518196
1580420526.71375,-0.154055085069047,-0.0827649347676811,-1.01783779659724
1580420526.74546,-0.169192034790569,-0.105226214999618,-1.04322880903334
1580420526.77717,-0.219485770962081,-0.0788586251621268,-0.945571068894484
1580420526.80896,-0.225345235370412,-0.099855039291981,-0.906507972838941
1580420526.84067,-0.244388494697489,-0.0100099183642328,-0.936781872281987
1580420526.87238,-0.270267795834288,0.0236820019836728,-0.894300755321584
1580420526.90409,-0.265384908827345,0.00561532005798426,-0.90748455024033
1580420526.93581,-0.192141603723201,-0.148683909361409,-0.986587319752804
1580420526.96752,-0.252689402609294,-0.0822766460669868,-0.942641336690318
1580420526.99923,-0.282475013351645,0.01196307316701,-0.963149462119478
1580420527.03094,-0.243900205996795,-0.10424963759823,-0.971938658731975
1580420527.06265,-0.265873197528039,-0.122804608224612,-0.960708018616007
1580420527.09436,-0.311772335393302,-0.0046387426565957,-0.82203402761883
1580420527.12608,-0.371831845578699,0.109620813305867,-0.833264667734799
1580420527.15779,-0.486091401541161,0.0134279392690928,-0.727794308384832
1580420527.1895,-0.564217593652247,-0.101808194094758,-0.663828488593881
1580420527.22121,-0.506111238269627,-0.153566796368352,-0.784924086366065
1580420527.25292,-0.596932936598764,-0.0710460059510183,-0.747814145113297
1580420527.28463,-0.748302433813992,-0.259037155718319,-0.818127718013276
1580420527.31634,-0.650156404974441,-0.187747005416952,-0.799084458686199
1580420527.34806,-0.657480735484855,-0.101319905394064,-0.856702525368124
1580420527.37977,-0.795178149080645,-0.198977645532921,-0.862073701075762
1580420527.41148,-0.780041199359122,-0.0588387884336612,-0.818127718013276
1580420527.44319,-0.82545204852369,-0.146242465857938,-0.80152590218967
1580420527.4749,-0.828381780727856,-0.209231708247501,-0.779552910658428
1580420527.50661,-0.901625085831999,-0.147219043259327,-0.56910048065919
1580420527.53833,-1.0466468299382,-0.105714503700312,-0.437262531471733
1580420527.57004,-0.990005340657664,-0.0886243991760125,-0.560799572747387
1580420527.60175,-0.810315098802167,-0.0720225833524069,-0.665293354695963
1580420527.63346,-0.947035934996567,-0.205325398641946,-0.542244602121004
1580420527.66517,-0.941176470588236,-0.155031662470435,-0.560799572747387
1580420527.69688,-0.806897077897307,-0.077393759060044,-0.596932936598764
1580420527.7286,-0.933363851377127,-0.0856946669718468,-0.469001297016861
1580420527.76031,-0.966079194323644,-0.106691081101701,-0.311772335393302
1580420527.79202,-0.93482871747921,-0.0373540856031127,-0.354253452353705
1580420527.82373,-0.884534981307699,0.024170290684367,-0.310795757991913
1580420527.85544,-0.970962081330587,0.0524910353246355,-0.237064164187075
1580420527.88715,-1.05348287174792,0.0598153658350498,-0.218997482261386
1580420527.91886,-1.00611886778058,-0.0124513618677042,-0.241947051194018
1580420527.95058,-0.906996261539636,-0.0407721065079727,-0.368413824673839
1580420527.98229,-0.982192721446555,-0.00122072175173571,-0.216067750057221
1580420528.014,-1.04567025253681,0.158937972075989,-0.0622568093385212
1580420528.04571,-0.935317006179904,0.0134279392690928,-0.272220950637065
1580420528.07751,-0.936781872281987,-0.0520027466239412,-0.264896620126651
1580420528.10923,-0.996841382467384,0.0495613031204698,-0.175051499198901
1580420528.14094,-1.00514229037919,0.0334477759975584,-0.241947051194018
1580420528.17265,-0.989028763256275,0.0295414663920042,-0.224368657969023
1580420528.20436,-0.927016098268101,0.0144045166704814,-0.283939879453728
1580420528.23607,-0.964126039520867,0.0388189517051956,-0.205813687342641
1580420528.26778,-0.988052185854887,0.0593270771343555,-0.244388494697489
1580420528.29949,-0.954848554207675,0.0290531776913099,-0.276127260242619
1580420528.3312,-0.977798123140307,0.0285648889906156,-0.227298390173189
1580420528.36291,-1.06569008926528,0.0363775082017241,-0.159426260776684
1580420528.39462,-0.96900892652781,-0.00268558785381856,-0.321538109407188
1580420528.42634,-0.944106202792401,-0.0319829098954756,-0.321049820706493
1580420528.45805,-1.07643244068055,0.0695811398489354,-0.0920424200808725
1580420528.48976,-1.0720378423743,0.101319905394064,-0.120851453421835
1580420528.52147,-0.911390859845884,0.0715342946517126,-0.354253452353705
1580420528.55318,-0.948012512397955,0.0256351567864499,-0.231204699778743
1580420528.58489,-0.99635309376669,-0.070557717250324,-0.129640650034332
1580420528.6166,-0.942153047989624,-0.0817883573662925,-0.200442511635003
1580420528.64831,-0.932387273975738,0.0114747844663157,-0.23999389639124
1580420528.68002,-0.98268101014725,0.0949721522850382,-0.206301976043335
1580420528.71174,-0.990493629358358,0.0485847257190812,-0.203372243839169
1580420528.74345,-0.964126039520867,-0.00610360875867855,-0.167727168688486
1580420528.77516,-0.996841382467384,-0.0866712443732354,-0.0969253070878153
1580420528.80687,-1.00709544518196,-0.122804608224612,-0.0900892652780954
1580420528.83858,-0.992446784161135,-0.0749523155565726,-0.115480277714198
1580420528.87029,-0.991958495460441,0.01196307316701,-0.149172198062104
1580420528.902,-0.989028763256275,0.00805676356145568,-0.202883955138475
1580420528.93371,-0.980727855344472,-0.0505378805218584,-0.210696574349583
1580420528.96543,-0.97926298924239,-0.0871595330739297,-0.193118181124589
1580420528.99714,-0.976333257038224,-0.0803234912642097,-0.227786678873883
1580420529.02885,-0.972915236133364,-0.063721675440604,-0.227786678873883
1580420529.06056,-0.990005340657664,-0.0373540856031127,-0.241458762493323
1580420529.09227,-0.983169298847944,-0.0749523155565726,-0.226810101472495
1580420529.12398,-0.969985503929198,-0.131105516136415,-0.203372243839169
1580420529.15569,-0.967544060425727,-0.127199206530861,-0.197512779430838
1580420529.1874,-0.99293507286183,-0.112062256809338,-0.204837109941252
1580420529.21911,-0.990981918059052,-0.0837415121690697,-0.176028076600289
1580420529.25082,-0.994399938963912,-0.0939955748836496,-0.171633478294041
1580420529.28254,-0.987563897154192,-0.0935072861829553,-0.171633478294041
1580420529.31425,-0.985610742351415,-0.0690928511482412,-0.186770428015564
1580420529.34613,-0.985610742351415,-0.0715342946517126,-0.201419089036392
1580420529.37784,-0.985122453650721,-0.0568856336308841,-0.181399252307926
1580420529.40955,-0.982192721446555,-0.0837415121690697,-0.184817273212786
1580420529.44126,-0.983169298847944,-0.0891126878767068,-0.163820859082932
1580420529.47298,-0.987563897154192,-0.100343327992675,-0.160891126878766
1580420529.50469,-0.990981918059052,-0.0759288929579611,-0.156008239871824
1580420529.5364,-0.998794537270161,-0.041260395208667,-0.161379415579461
1580420529.56811,-0.987075608453498,-0.0500495918211641,-0.149172198062104
1580420529.59982,-1.00318913557641,-0.0856946669718468,-0.163332570382238
1580420529.63153,-1.00025940337224,-0.0627450980392155,-0.165285725185015
1580420529.66325,-0.998794537270161,-0.0451667048142212,-0.139894712748912
1580420529.69496,-0.981216144045167,-0.0617685206378269,-0.146730754558632
1580420529.72667,-0.987563897154192,-0.0725108720531011,-0.147707331960021
1580420529.75838,-0.995864805065995,-0.067139696345464,-0.134035248340581
1580420529.79009,-0.984145876249332,-0.0681162737468526,-0.135988403143358
1580420529.8218,-1.01197833218891,-0.0666514076447697,-0.130128938735027
1580420529.85351,-0.980239566643778,-0.0534676127260241,-0.136964980544747
1580420529.88523,-0.994399938963912,-0.0437018387121384,-0.144777599755855
1580420529.91694,-0.999282825970855,-0.0349126420996413,-0.151613641565575
1580420529.94865,-0.977798123140307,-0.0495613031204698,-0.143801022354467
1580420529.98036,-0.99635309376669,-0.0617685206378269,-0.131105516136415
1580420530.01207,-1.00807202258335,-0.0646982528419926,-0.107179369802395
1580420530.04378,-0.991958495460441,-0.0222171358815899,-0.125246051728084
1580420530.0755,-0.985610742351415,-0.0187991149767299,-0.135500114442664
1580420530.10721,-1.00123598077363,-0.0441901274128327,-0.132570382238498
1580420530.13892,-1.00953688868544,-0.0202639810788128,-0.144777599755855
1580420530.17063,-1.0041657129778,0.00366216525520713,-0.153566796368352
1580420530.20234,-0.995864805065995,0.0144045166704814,-0.171633478294041
1580420530.23405,-0.968032349126421,-0.0290531776913099,-0.155031662470435
1580420530.26577,-0.98609903105211,-0.0593270771343555,-0.180910963607232
1580420530.29748,-1.00709544518196,-0.0593270771343555,-0.166750591287098
1580420530.32919,-0.977798123140307,-0.00659189745937283,-0.156008239871824
1580420530.3609,-0.97926298924239,-0.0197756923781185,-0.136476691844052
1580420530.39261,-1.03297474631876,-0.0524910353246355,-0.135988403143358
1580420530.42432,-0.978774700541695,0.0134279392690928,-0.100343327992675
1580420530.45603,-0.993911650263218,0.0134279392690928,-0.112550545510032
1580420530.48775,-1.0295567254139,-0.00610360875867855,-0.118898298619058
1580420530.51946,-0.998306248569467,-0.0168459601739528,-0.0896009765774011
1580420530.55117,-0.98609903105211,-0.0554207675288012,-0.116945143816281
1580420530.58288,-0.99635309376669,-0.0715342946517126,-0.112062256809338
1580420530.61471,-0.98268101014725,-0.0432135500114441,-0.115480277714198
1580420530.64643,-0.995376516365301,-0.0588387884336612,-0.144777599755855
1580420530.67814,-0.990005340657664,-0.063721675440604,-0.128664072632944
1580420530.70985,-0.970473792629893,-0.0681162737468526,-0.142824444953078
1580420530.74156,-0.98268101014725,-0.0939955748836496,-0.131593804837109
1580420530.77327,-0.988052185854887,-0.0759288929579611,-0.11792172121767
1580420530.80499,-0.982192721446555,-0.024170290684367,-0.107179369802395
1580420530.8367,-0.970473792629893,-0.0324711985961699,-0.119386587319752
1580420530.86841,-1.0129549095903,-0.0417486839093613,-0.134523537041275
1580420530.90012,-1.03639276722362,0.0231937132829785,-0.171145189593346
1580420530.93183,-1.00221255817502,0.0158693827725642,-0.181399252307926
1580420530.96354,-0.977309834439613,-0.0549324788281069,-0.178957808804455
1580420530.99525,-0.990981918059052,-0.0505378805218584,-0.211673151750972
1580420531.02697,-0.98609903105211,-0.0368657969024184,-0.214114595254443
1580420531.05868,-0.967055771725033,-0.0876478217746239,-0.195559624628061
1580420531.09039,-0.959731441214618,-0.0749523155565726,-0.203860532539863
1580420531.1221,-0.977309834439613,-0.0715342946517126,-0.182375829709315
1580420531.15381,-0.956313420309758,-0.0788586251621268,-0.217532616159303
1580420531.18552,-0.961196307316701,-0.0627450980392155,-0.229739833676661
1580420531.21723,-0.97926298924239,-0.0720225833524069,-0.280521858548868
1580420531.24895,-0.948012512397955,-0.048096437018387,-0.331303883421073
1580420531.28066,-0.90748455024033,-0.0183108262760356,-0.306401159685665
1580420531.31237,-0.938735027084764,-0.0163576714732585,-0.234622720683603
1580420531.34408,-1.0041657129778,0.00317387655451284,-0.177981231403066
1580420531.37579,-1.04078736552987,0.00170901045242999,-0.228274967574578
1580420531.40751,-1.03736934462501,0.00903334096284425,-0.215091172655832
1580420531.43922,-0.987563897154192,-0.0681162737468526,-0.171145189593346
1580420531.47093,-1.07301441977569,0.0417486839093613,-0.175051499198901
1580420531.50264,-0.927016098268101,0.146730754558632,-0.299076829175251
1580420531.53435,-0.993911650263218,-0.0803234912642097,-0.274174105439842
1580420531.56606,-1.02613870450904,-0.00268558785381856,-0.227298390173189
1580420531.59777,-0.99977111467155,0.0251468680857556,-0.254154268711376
1580420531.62949,-0.895277332722973,0.0954604409857325,-0.261478599221791
1580420531.6612,-0.95191882200351,0.0520027466239412,-0.241947051194018
1580420531.69291,-1.00758373388266,-0.0646982528419926,-0.209231708247501
1580420531.72462,-0.957778286411841,-0.116456855115587,-0.225345235370412
1580420531.75633,-0.945571068894484,-0.0656748302433812,-0.305424582284276
1580420531.78804,-0.984145876249332,0.00805676356145568,-0.202883955138475
1580420531.81975,-0.960708018616007,0.0539559014267184,-0.203372243839169
1580420531.85147,-0.94850080109865,0.0402838178072784,-0.239505607690546
1580420531.8833,-0.97242694743267,-0.0222171358815899,-0.241458762493323
1580420531.91501,-0.969497215228504,-0.0925307087815668,-0.225833524071106
1580420531.94672,-1.0041657129778,-0.0954604409857325,-0.141359578850995
1580420531.97844,-1.01539635309377,-0.0524910353246355,-0.140871290150301
1580420532.01015,-1.01100175478752,0.00659189745937283,-0.136476691844052
1580420532.04186,-1.00856031128405,0.0368657969024184,-0.143312733653772
1580420532.07357,-0.977798123140307,0.0251468680857556,-0.157961394674601
1580420532.10528,-0.991470206759747,-0.0383306630045013,-0.181887541008621
1580420532.13699,-0.990493629358358,-0.0749523155565726,-0.169192034790569
1580420532.1687,-0.972915236133364,-0.0676279850461583,-0.181887541008621
1580420532.20042,-0.936781872281987,-0.0583504997329669,-0.181399252307926
1580420532.23213,-0.933363851377127,-0.0529793240253298,-0.225345235370412
1580420532.26384,-0.960219729915313,-0.0437018387121384,-0.206301976043335
1580420532.29555,-1.04371709773404,-0.0617685206378269,-0.106202792401007
1580420532.32726,-1.04957656214237,-0.0729991607537954,-0.154055085069047
1580420532.35897,-1.00074769207294,-0.0695811398489354,-0.232181277180132
1580420532.39069,-1.01197833218891,-0.0187991149767299,-0.169680323491264
1580420532.4224,-1.02467383840696,-0.0314946211947813,-0.139406424048218
1580420532.45411,-1.03395132372015,-0.0891126878767068,-0.144289311055161
1580420532.48582,-1.02174410620279,-0.132082093537804,-0.103273060196841
1580420532.51753,-1.00660715648127,-0.0891126878767068,-0.156008239871824
1580420532.54924,-0.990005340657664,-0.0285648889906156,-0.169192034790569
1580420532.58096,-0.988052185854887,-0.0202639810788128,-0.147219043259327
1580420532.61267,-0.97584496833753,-0.0109864957656214,-0.152590218966964
1580420532.64438,-0.981216144045167,-0.0798352025635154,-0.193118181124589
1580420532.67609,-0.97242694743267,-0.134035248340581,-0.152590218966964
1580420532.7078,-0.987075608453498,-0.0974135957885096,-0.149660486762798
1580420532.73951,-1.00758373388266,-0.0437018387121384,-0.0529793240253298
1580420532.77122,-0.994399938963912,-0.0490730144197755,-0.044678416113527
1580420532.80294,-0.997817959868772,-0.0485847257190812,-0.060303654535744
1580420532.83465,-1.0036774242771,-0.0676279850461583,-0.0388189517051956
1580420532.86636,-0.989028763256275,-0.0754406042572668,-0.0251468680857556
1580420532.89807,-1.0041657129778,-0.0466315709163041,-0.0222171358815899
1580420532.92978,-0.999282825970855,-0.0192874036774242,0.00415045395590141
1580420532.96149,-0.98268101014725,-0.01196307316701,-0.0358892195010299
1580420532.99321,-1.02760357061112,-0.0563973449301898,-0.0505378805218584
1580420533.02492,-1.02418554970626,0.00122072175173571,-0.0109864957656214
1580420533.05663,-1.00709544518196,0.0397955291065841,0.0163576714732585
1580420533.08834,-0.984145876249332,0.0046387426565957,-0.0148928053711757
1580420533.12005,-1.00123598077363,-0.0588387884336612,-0.0231937132829785
1580420533.15192,-1.00953688868544,-0.060303654535744,0.00268558785381856
1580420533.18363,-0.978774700541695,-0.0402838178072784,0.0158693827725642
1580420533.21534,-0.99635309376669,-0.0124513618677042,0.0314946211947813
1580420533.24705,-1.0041657129778,0.0529793240253298,0.101319905394064
1580420533.27876,-1.00025940337224,0.0573739223315783,0.0759288929579611
1580420533.31047,-0.990981918059052,0.0124513618677042,0.0354009308003356
1580420533.34219,-0.97584496833753,-0.0046387426565957,0.0075684748607614
1580420533.3739,-1.00318913557641,0.0197756923781185,-0.0349126420996413
1580420533.40561,-1.01979095140002,0.0187991149767299,-0.0363775082017241
1580420533.43732,-1.00221255817502,0.0534676127260241,-0.0373540856031127
1580420533.46903,-1.0036774242771,0.0441901274128327,-0.0148928053711757
1580420533.50074,-1.00318913557641,0.0217288471808956,0.0197756923781185
1580420533.53245,-0.994399938963912,-0.0104982070649271,0.0280766002899213
1580420533.56417,-0.99977111467155,-0.00317387655451284,0.0554207675288012
1580420533.59588,-1.00221255817502,-0.00415045395590141,0.0734874494544897
1580420533.62759,-1.00807202258335,0.00317387655451284,0.0563973449301898
1580420533.6593,-1.00807202258335,-0.00219729915312428,0.0334477759975584
1580420533.69101,-0.995376516365301,-0.000732433051041426,0.00561532005798426
1580420533.72272,-1.00123598077363,0.0227054245822842,0.00805676356145568
1580420533.75444,-0.99635309376669,0.0324711985961699,-0.0134279392690928
1580420533.78615,-0.991958495460441,0.0314946211947813,-0.00659189745937283
1580420533.81786,-1.01539635309377,0.0622568093385212,0.0437018387121384
1580420533.84957,-1.01832608529793,0.00415045395590141,0.044678416113527
1580420533.88128,-1.02174410620279,-0.0222171358815899,0.024170290684367
1580420533.91299,-1.0212558175021,-0.00170901045242999,-0.000732433051041426
1580420533.94471,-0.973403524834058,-0.00415045395590141,-0.0153810940718699
1580420533.97642,-0.978774700541695,-0.0813000686655982,-0.130128938735027
1580420534.00813,-1.01100175478752,-0.10766765850309,-0.167238879987792
1580420534.03984,-0.987075608453498,0.00659189745937283,0.0451667048142212
1580420534.07155,-0.965102616922255,0.0871595330739297,0.00317387655451284
1580420534.10326,-1.03639276722362,0.073975738155184,-0.0339360646982527
1580420534.13497,-1.0036774242771,-0.0227054245822842,0.0251468680857556
1580420534.16669,-0.995864805065995,-0.0432135500114441,-0.00805676356145568
1580420534.1984,-0.997817959868772,-0.0314946211947813,-0.01196307316701
1580420534.23011,-0.97242694743267,0.00512703135728998,-0.041260395208667
1580420534.26182,-1.00270084687572,0.0178225375753414,-0.0363775082017241
1580420534.29353,-0.972915236133364,-0.00219729915312428,-0.0246585793850613
1580420534.32524,-1.01441977569238,-0.000244144350347142,-0.0549324788281069
1580420534.35696,-0.984145876249332,-0.0100099183642328,-0.0358892195010299
1580420534.38867,-1.05397116044862,-0.0114747844663157,0.0163576714732585
1580420534.42047,-1.05690089265278,-0.0124513618677042,0.0192874036774242
1580420534.45218,-0.993423361562524,0.0476081483176927,0.0407721065079727
1580420534.48389,-1.00611886778058,0.077393759060044,-0.0456549935149155
1580420534.51561,-1.01393148699168,0.0388189517051956,-0.0437018387121384
1580420534.54732,-1.01881437399863,-0.0163576714732585,-0.0686045624475469
1580420534.57903,-0.985122453650721,-0.041260395208667,-0.027588311589227
1580420534.61074,-1.00953688868544,-0.0485847257190812,-0.0183108262760356
1580420534.64245,-1.0207675288014,-0.0607919432364383,-0.0109864957656214
1580420534.67417,-0.998794537270161,-0.0256351567864499,-0.024170290684367
1580420534.70588,-0.967544060425727,0.0554207675288012,-0.0290531776913099
1580420534.73759,-0.986587319752804,0.0192874036774242,-0.00268558785381856
1580420534.7693,-1.00465400167849,-0.0207522697795071,-0.0256351567864499
1580420534.80101,-0.991958495460441,-0.0529793240253298,-0.0305180437933927
1580420534.83273,-1.00904859998474,0.00170901045242999,0.0339360646982527
1580420534.86444,-1.00514229037919,0.0334477759975584,-0.0104982070649271
1580420534.89615,-0.983169298847944,0.024170290684367,-0.0422369726100555
1580420534.92786,-1.00172426947433,0.0178225375753414,-0.0104982070649271
1580420534.95958,-0.999282825970855,0.0388189517051956,0.0192874036774242
1580420534.99129,-0.993423361562524,0.0573739223315783,-0.037842374303807
1580420535.023,-1.00758373388266,-0.0187991149767299,-0.0822766460669868
1580420535.05471,-0.959731441214618,-0.131105516136415,-0.0876478217746239
1580420535.08642,-1.0212558175021,-0.0236820019836728,-0.0104982070649271
1580420535.11814,-1.03981078812848,0.0334477759975584,0.0495613031204698
1580420535.14985,-1.01441977569238,0.0544441901274126,-0.0109864957656214
1580420535.18156,-1.03590447852293,-0.0441901274128327,0.000244144350347142
1580420535.21327,-1.02565041580835,-0.161379415579461,0.0197756923781185
1580420535.24498,-0.983169298847944,-0.163820859082932,-0.0490730144197755
1580420535.2767,-0.970473792629893,-0.0632333867399097,-0.0520027466239412
1580420535.30841,-1.00953688868544,-0.0563973449301898,-0.0427252613107498
1580420535.34012,-1.01393148699168,-0.0593270771343555,0.0515144579232469
1580420535.37183,-1.02516212710765,-0.041260395208667,0.0822766460669868
1580420535.40354,-1.00123598077363,0.031006332494087,0.0720225833524069
1580420535.43526,-1.00904859998474,0.0563973449301898,0.0363775082017241
1580420535.46697,-0.99635309376669,-0.0192874036774242,-0.0271000228885327
1580420535.49868,-0.987075608453498,-0.0681162737468526,-0.103273060196841
1580420535.53039,-0.984145876249332,-0.0642099641412983,-0.0549324788281069
1580420535.5621,-0.992446784161135,-0.080811779964904,-0.0505378805218584
1580420535.59382,-1.01393148699168,-0.0681162737468526,-0.0217288471808956
1580420535.62553,-0.998306248569467,-0.0441901274128327,0.0544441901274126
1580420535.65724,-1.02760357061112,-0.0720225833524069,0.0954604409857325
1580420535.68899,-0.998306248569467,-0.0524910353246355,0.106202792401007
1580420535.72071,-1.0300450141146,0.00854505226214997,0.0734874494544897
1580420535.75242,-0.990005340657664,0.0622568093385212,-0.00708018616006711
1580420535.78413,-0.98951705195697,-0.00952162966353853,-0.0651865415426869
1580420535.81584,-0.965102616922255,-0.10083161669337,-0.0515144579232469
1580420535.84755,-0.950453955901427,-0.121828030823224,-0.0139162279697871
1580420535.87926,-1.00465400167849,-0.060303654535744,-0.0544441901274126
1580420535.91098,-1.0383459220264,-0.0417486839093613,-0.01196307316701
1580420535.94269,-1.00758373388266,-0.0319829098954756,0.0139162279697871
1580420535.9744,-1.00465400167849,-0.041260395208667,-0.034424353398947
1580420536.00611,-0.97926298924239,-0.0563973449301898,-0.0305180437933927
1580420536.03782,-0.990981918059052,-0.077393759060044,-0.00610360875867855
1580420536.06953,-1.01930266269932,-0.0979018844892039,0.037842374303807
1580420536.10125,-1.00807202258335,-0.060303654535744,-0.0187991149767299
1580420536.13296,-1.03639276722362,-0.0856946669718468,-0.0295414663920042
1580420536.16467,-1.02027924010071,-0.0524910353246355,-0.099855039291981
1580420536.19638,-0.976333257038224,-0.114015411612115,-0.0651865415426869
1580420536.22809,-0.977798123140307,-0.0354009308003356,-0.0881361104753182
1580420536.2598,-1.02809185931182,-0.0778820477607383,-0.096437018387121
1580420536.29151,-1.02858014801251,-0.177492942702372,-0.0764171816586554
1580420536.32323,-0.993423361562524,-0.141847867551689,-0.101319905394064
1580420536.35494,-1.00953688868544,-0.0837415121690697,-0.0920424200808725
1580420536.38665,-1.03443961242084,-0.0524910353246355,-0.048096437018387
1580420536.41836,-1.02418554970626,-0.0920424200808725,-0.00170901045242999
1580420536.45007,-0.974380102235447,-0.0305180437933927,0.0153810940718699
1580420536.48178,-0.960708018616007,0.0397955291065841,-0.0256351567864499
1580420536.5135,-1.03395132372015,0.0168459601739528,-0.0441901274128327
1580420536.54521,-0.962661173418784,-0.132082093537804,-0.0593270771343555
1580420536.57692,-0.930434119172961,-0.123781185626001,-0.127199206530861
1580420536.60863,-0.978286411841001,-0.0153810940718699,-0.10083161669337
1580420536.64034,-1.01979095140002,0.0187991149767299,0.0075684748607614
1580420536.67205,-1.00953688868544,-0.0349126420996413,0.0500495918211641
1580420536.70376,-1.01197833218891,-0.00903334096284425,0.0134279392690928
1580420536.73548,-1.02027924010071,0.0114747844663157,-0.0144045166704814
1580420536.76719,-0.968520637827115,-0.155031662470435,-0.10083161669337
1580420536.7989,-0.985610742351415,-0.115480277714198,-0.0813000686655982
1580420536.83061,-1.02858014801251,-0.0793469138628211,-0.0886243991760125
1580420536.86232,-1.00221255817502,-0.027588311589227,-0.00317387655451284
1580420536.89403,-1.03443961242084,-0.00219729915312428,0.0539559014267184
1580420536.92575,-1.02711528191043,-0.0422369726100555,0.0402838178072784
1580420536.95758,-0.939711604486153,-0.174563210498206,-0.0427252613107498
1580420536.98929,-1.03541618982223,-0.145265888456549,-0.0524910353246355
1580420537.021,-0.998794537270161,-0.00415045395590141,-0.0651865415426869
1580420537.05272,-0.97926298924239,-0.0847180895704582,-0.0690928511482412
1580420537.08443,-1.00709544518196,-0.0939955748836496,-0.067139696345464
1580420537.11614,-1.00807202258335,-0.01196307316701,-0.0300297550926985
1580420537.14785,-0.975356679636835,0.0114747844663157,-0.041260395208667
1580420537.17956,-0.992446784161135,-0.00708018616006711,-0.0402838178072784
1580420537.21128,-1.03297474631876,-0.169192034790569,-0.0559090562294955
1580420537.24299,-0.987563897154192,-0.196047913328755,-0.0505378805218584
1580420537.2747,-0.996841382467384,-0.0969253070878153,-0.0676279850461583
1580420537.30641,-0.978286411841001,-0.0285648889906156,-0.041260395208667
1580420537.33812,-1.01051346608682,-0.0954604409857325,0.00415045395590141
1580420537.36984,-1.02223239490349,-0.0876478217746239,0.0295414663920042
1580420537.40155,-1.0207675288014,-0.077393759060044,-0.00122072175173571
1580420537.43326,-0.98609903105211,-0.122316319523918,-0.048096437018387
1580420537.46497,-0.982192721446555,-0.126222629129472,-0.0393072404058898
1580420537.49669,-0.985610742351415,-0.113527122911421,-0.0046387426565957
1580420537.5284,-1.02369726100557,-0.118410009918364,0.00854505226214997
1580420537.56011,-1.0041657129778,-0.0866712443732354,0.0271000228885327
1580420537.59182,-1.02516212710765,-0.0349126420996413,0.0759288929579611
1580420537.62353,-1.04078736552987,-0.00854505226214997,0.0280766002899213
1580420537.65524,-0.980239566643778,-0.0549324788281069,0.0573739223315783
1580420537.68696,-1.00611886778058,-0.0979018844892039,-0.0822766460669868
1580420537.71867,-0.944594491493095,-0.159914549477378,-0.215091172655832
1580420537.75038,-0.97926298924239,-0.129152361333638,-0.134035248340581
1580420537.78209,-0.976333257038224,-0.115968566414892,0.0158693827725642
1580420537.81381,-0.976821545738918,-0.0842298008697639,0.125734340428778
1580420537.84552,-1.01100175478752,-0.00854505226214997,0.139406424048218
1580420537.87723,-1.00953688868544,-0.00610360875867855,0.0349126420996413
1580420537.90894,-1.00025940337224,-0.0432135500114441,0.0285648889906156
1580420537.94065,-1.01441977569238,0.0153810940718699,-0.0217288471808956
1580420537.97237,-1.00709544518196,-0.0485847257190812,-0.0329594872968642
1580420538.00408,-0.950453955901427,-0.166750591287098,-0.0524910353246355
1580420538.03579,-0.955825131609064,-0.245365072098878,-0.149660486762798
1580420538.0675,-1.05055313954376,-0.187747005416952,-0.0505378805218584
1580420538.09921,-1.06764324406805,-0.120363164721141,0.10766765850309
1580420538.13093,-0.995864805065995,0.0319829098954756,0.041260395208667
1580420538.16264,-1.03590447852293,0.0197756923781185,-0.00219729915312428
1580420538.19435,-1.01881437399863,0.0153810940718699,-0.0207522697795071
1580420538.2261,-0.993911650263218,-0.0920424200808725,-0.0271000228885327
1580420538.25782,-0.983169298847944,-0.0959487296864268,-0.0290531776913099
1580420538.28953,-0.954360265506981,-0.0544441901274126,-0.0788586251621268
1580420538.32124,-1.0124666208896,0.0295414663920042,-0.0920424200808725
1580420538.35295,-1.06031891355764,-0.0227054245822842,-0.0358892195010299
1580420538.38467,-0.992446784161135,-0.127687495231555,-0.0397955291065841
1580420538.41638,-0.95875486381323,-0.10083161669337,-0.0183108262760356
1580420538.44809,-0.988052185854887,-0.0349126420996413,0.0124513618677042
1580420538.4798,-1.04518196383612,-0.0793469138628211,0.0524910353246355
1580420538.51151,-0.999282825970855,-0.0485847257190812,0.0104982070649271
1580420538.54322,-0.983169298847944,-0.0339360646982527,0.0246585793850613
1580420538.57494,-1.00660715648127,-0.10424963759823,-0.0407721065079727
1580420538.60665,-1.00270084687572,-0.203860532539863,0.00561532005798426
1580420538.63836,-0.97584496833753,-0.132082093537804,0.0847180895704582
1580420538.67007,-1.00318913557641,-0.0676279850461583,0.11792172121767
1580420538.70178,-1.01149004348821,-0.127199206530861,0.0451667048142212
1580420538.7335,-1.00807202258335,-0.129640650034332,0.0505378805218584
1580420538.76521,-0.970473792629893,-0.0295414663920042,0.0969253070878153
1580420538.79692,-1.02369726100557,-0.0236820019836728,0.0520027466239412
1580420538.82863,-0.971450370031281,-0.0788586251621268,-0.0227054245822842
1580420538.86034,-0.968520637827115,-0.0939955748836496,0.0192874036774242
1580420538.89206,-0.988540474555581,-0.0891126878767068,0.0251468680857556
1580420538.92377,-1.0212558175021,-0.156984817273212,-0.0075684748607614
1580420538.95548,-0.979751277943084,-0.160402838178072,-0.0500495918211641
1580420538.98719,-1.00807202258335,-0.101808194094758,-0.0339360646982527
1580420539.01891,-0.983657587548638,-0.0397955291065841,-0.0314946211947813
1580420539.05062,-1.04274052033265,-0.131593804837109,-0.0104982070649271
1580420539.08233,-0.976821545738918,-0.0813000686655982,-0.0422369726100555
1580420539.11404,-0.967055771725033,0.0437018387121384,-0.0925307087815668
1580420539.14575,-1.05445944914931,-0.077393759060044,0.0896009765774011
1580420539.17747,-0.948989089799344,-0.125734340428778,0.0417486839093613
1580420539.20918,-1.01539635309377,-0.0646982528419926,0.0544441901274126
1580420539.24089,-1.09596398870832,-0.146242465857938,0.0607919432364383
1580420539.2726,-0.907972838941024,-0.0617685206378269,-0.143801022354467
1580420539.30431,-0.996841382467384,0.0163576714732585,-0.103761348897535
1580420539.33603,-1.10182345311665,-0.241458762493323,0.00659189745937283
1580420539.36774,-0.926527809567407,-0.199954222934309,-0.180910963607232
1580420539.39945,-0.993911650263218,0.0397955291065841,-0.11108567940795
1580420539.43116,-1.00953688868544,0.0407721065079727,-0.0305180437933927
1580420539.46287,-0.990493629358358,0.0046387426565957,-0.104737926298924
1580420539.49463,-1.02223239490349,-0.109620813305867,-0.048096437018387
1580420539.52634,-0.99977111467155,-0.203860532539863,-0.0271000228885327
1580420539.55805,-0.969985503929198,-0.166750591287098,-0.0681162737468526
1580420539.58976,-0.998794537270161,-0.0852063782711525,0.0261234454871442
1580420539.62148,-1.00904859998474,-0.077393759060044,-0.0437018387121384
1580420539.65319,-1.01783779659724,-0.106691081101701,0.0500495918211641
1580420539.6849,-0.99293507286183,-0.154055085069047,-0.0983901731898982
1580420539.71661,-0.93141069657435,-0.183840695811398,-0.041260395208667
1580420539.74832,-1.06715495536736,-0.138429846646829,0.109620813305867
1580420539.78004,-1.0207675288014,-0.0324711985961699,0.0798352025635154
1580420539.81175,-1.02272068360418,-0.0246585793850613,0.0227054245822842
1580420539.84346,-0.999282825970855,-0.0183108262760356,-0.0197756923781185
1580420539.87517,-0.997329671168078,-0.0368657969024184,-0.0114747844663157
1580420539.90688,-0.988540474555581,-0.106202792401007,-0.0573739223315783
1580420539.9386,-1.00221255817502,-0.0886243991760125,-0.0622568093385212
1580420539.97031,-0.964126039520867,-0.0515144579232469,-0.0778820477607383
1580420540.00202,-0.988052185854887,-0.080811779964904,-0.0534676127260241
1580420540.03373,-0.993423361562524,-0.112062256809338,0.0046387426565957
1580420540.06545,-1.00758373388266,-0.108644235904478,0.0495613031204698
1580420540.09716,-1.03053330281529,-0.0993667505912867,0.0300297550926985
1580420540.12887,-0.947524223697261,-0.0871595330739297,0.0144045166704814
1580420540.16058,-0.988540474555581,-0.118410009918364,0.0251468680857556
1580420540.19229,-1.01734950789654,-0.168215457389181,0.0075684748607614
1580420540.22401,-0.993423361562524,-0.134035248340581,-0.0437018387121384
1580420540.25572,-1.03199816891737,-0.060303654535744,0.0349126420996413
1580420540.28743,-1.09254596780346,-0.0578622110322726,0.0979018844892039
1580420540.31914,-1.0041657129778,0.00610360875867855,-0.063721675440604
1580420540.35085,-0.999282825970855,0.00415045395590141,-0.0983901731898982
1580420540.38257,-0.985122453650721,-0.107179369802395,-0.0549324788281069
1580420540.41428,-0.99635309376669,-0.11108567940795,-0.0456549935149155
1580420540.44599,-0.985610742351415,-0.0822766460669868,-0.048096437018387
1580420540.4777,-1.03346303501946,-0.172610055695429,-0.0354009308003356
1580420540.50941,-0.923109788662547,0.0075684748607614,-0.196047913328755
1580420540.54113,-1.05006485084306,-0.0788586251621268,-0.00659189745937283
1580420540.57284,-1.0300450141146,-0.219485770962081,-0.0363775082017241
1580420540.60455,-0.864026855878539,-0.202395666437781,-0.184817273212786
1580420540.63626,-1.06617837796597,-0.132082093537804,0.0339360646982527
1580420540.66797,-1.04274052033265,-0.100343327992675,-0.0280766002899213
1580420540.69969,-0.983169298847944,-0.0471198596169984,-0.096437018387121
1580420540.7314,-1.01344319829099,-0.0246585793850613,-0.0217288471808956
1580420540.76321,-1.03297474631876,-0.0485847257190812,-0.0583504997329669
1580420540.79493,-0.97926298924239,-0.0876478217746239,-0.070557717250324
1580420540.82664,-0.96559090562295,-0.0329594872968642,-0.136476691844052
1580420540.85835,-0.966567483024338,-0.031006332494087,-0.0549324788281069
1580420540.89006,-0.999282825970855,-0.144777599755855,-0.0280766002899213
1580420540.92178,-0.99977111467155,-0.160891126878766,-0.0524910353246355
1580420540.95349,-1.02320897230488,-0.143312733653772,-0.0134279392690928
1580420540.9852,-1.05152971694514,-0.135988403143358,0.0383306630045013
1580420541.01691,-1.0041657129778,-0.000732433051041426,0.099855039291981
1580420541.04863,-1.01490806439307,0.0319829098954756,0.0300297550926985
1580420541.08034,-1.0036774242771,-0.0749523155565726,0.0427252613107498
1580420541.11205,-1.04859998474098,-0.147219043259327,0.0769054703593497
1580420541.14376,-0.995376516365301,-0.169192034790569,0.0329594872968642
1580420541.17548,-0.975356679636835,-0.145265888456549,-0.0407721065079727
1580420541.20719,-0.976333257038224,-0.120363164721141,-0.0329594872968642
1580420541.2389,-1.00221255817502,-0.120363164721141,0.0148928053711757
1580420541.27061,-0.970473792629893,-0.0954604409857325,0.000732433051041426
1580420541.30233,-1.00025940337224,-0.113527122911421,-0.0368657969024184
1580420541.33404,-1.01686121919585,-0.148683909361409,-0.0729991607537954
1580420541.36575,-0.978286411841001,-0.172121766994735,-0.0900892652780954
1580420541.39746,-0.981704432745861,-0.132570382238498,-0.0578622110322726
1580420541.42918,-1.03053330281529,-0.103761348897535,0.0207522697795071
1580420541.46089,-0.981704432745861,-0.0881361104753182,0.0510261692225527
1580420541.4926,-0.977798123140307,-0.108155947203784,0.01196307316701
1580420541.52431,-1.02906843671321,-0.12133974212253,0.0271000228885327
1580420541.55603,-1.02906843671321,-0.139894712748912,-0.0158693827725642
1580420541.58774,-0.95533684290837,-0.0642099641412983,-0.0783703364614325
1580420541.61945,-0.999282825970855,-0.0305180437933927,0.0583504997329669
1580420541.65117,-1.0642252231632,-0.0759288929579611,0.0729991607537954
1580420541.68288,-1.02223239490349,-0.131105516136415,0.0266117341878385
1580420541.71459,-0.996841382467384,-0.114991989013504,-0.0402838178072784
1580420541.7463,-1.01393148699168,-0.171145189593346,-0.00708018616006711
1580420541.77801,-0.952407110704204,-0.171145189593346,-0.219974059662775
1580420541.80973,-1.00660715648127,-0.101319905394064,-0.156008239871824
1580420541.84144,-0.999282825970855,-0.115968566414892,-0.0295414663920042
1580420541.87315,-1.01832608529793,-0.140871290150301,-0.0544441901274126
1580420541.90487,-0.983169298847944,-0.113527122911421,-0.0109864957656214
1580420541.93658,-0.965102616922255,-0.0876478217746239,0.0100099183642328
1580420541.96829,-1.08668650339513,-0.0832532234683754,-0.0656748302433812
1580420542,-0.944594491493095,-0.115968566414892,-0.0212405584802013
1580420542.03174,-0.974380102235447,-0.120363164721141,-0.131593804837109
1580420542.06345,-0.998306248569467,-0.0979018844892039,-0.0261234454871442
1580420542.09516,-1.03443961242084,-0.0178225375753414,0.110597390707255
1580420542.12688,-1.05445944914931,0.0109864957656214,0.0793469138628211
1580420542.15859,-1.01930266269932,-0.0910658426794839,-0.0559090562294955
1580420542.1903,-0.969497215228504,-0.175539787899595,-0.0334477759975584
1580420542.22201,-0.978774700541695,-0.10766765850309,-0.0651865415426869
1580420542.25373,-0.99977111467155,-0.0437018387121384,-0.138429846646829
1580420542.28544,-0.973403524834058,0.0168459601739528,-0.108644235904478
1580420542.31715,-1.00953688868544,-0.00415045395590141,-0.106202792401007
1580420542.34886,-0.988540474555581,-0.0593270771343555,-0.0983901731898982
1580420542.38058,-1.00221255817502,-0.10766765850309,-0.00708018616006711
1580420542.41229,-1.02711528191043,-0.142336156252384,-0.027588311589227
1580420542.444,-0.998306248569467,-0.0744640268558783,-0.0925307087815668
1580420542.47571,-0.999282825970855,-0.070557717250324,-0.0930189974822611
1580420542.50743,-0.986587319752804,-0.0573739223315783,-0.138429846646829
1580420542.53914,-0.968520637827115,-0.0827649347676811,-0.169680323491264
1580420542.57085,-1.0212558175021,-0.131593804837109,-0.0900892652780954
1580420542.60256,-0.983169298847944,-0.160891126878766,-0.0534676127260241
1580420542.63428,-0.996841382467384,-0.0251468680857556,0.0407721065079727
1580420542.66599,-1.0300450141146,-0.00415045395590141,0.0187991149767299
1580420542.6977,-1.02565041580835,-0.0544441901274126,0.0256351567864499
1580420542.72941,-0.987563897154192,-0.139406424048218,0.0261234454871442
