Timestamp_seconds,Accel_X_g,Accel_Y_g,Accel_Z_g
1580420491.28296,-0.961684596017395,0.271732661936369,-0.0383306630045013
1580420491.31501,-0.971450370031281,0.268314641031509,-0.0485847257190812
1580420491.34706,-0.967055771725033,0.272709239337757,-0.0388189517051956
1580420491.3791,-0.971450370031281,0.298588540474555,-0.0437018387121384
1580420491.41115,-0.961684596017395,0.312260624093994,-0.0534676127260241
1580420491.4432,-0.952895399404898,0.294193942168306,-0.0476081483176927
1580420491.47524,-0.971450370031281,0.275638971541923,-0.0646982528419926
1580420491.50729,-0.964126039520867,0.282475013351643,-0.070557717250324
1580420491.53934,-0.966079194323644,0.289311055161363,-0.0764171816586554
1580420491.57138,-0.964614328221561,0.302006561379415,-0.044678416113527
1580420491.60343,-0.960219729915313,0.296635385671777,-0.0417486839093613
1580420491.63548,-0.970962081330587,0.283939879453726,-0.0354009308003356
1580420491.66753,-0.981216144045167,0.28442816815442,-0.0388189517051956
1580420491.69957,-0.968520637827115,0.275638971541923,-0.0432135500114441
1580420491.73162,-0.973891813534753,0.280033569848172,-0.0578622110322726
1580420491.76367,-0.968032349126421,0.281986724650949,-0.0559090562294955
1580420491.79571,-0.95875486381323,0.284916456855115,-0.0520027466239412
1580420491.82776,-0.975356679636835,0.280033569848172,-0.063721675440604
1580420491.85981,-0.98268101014725,0.273197528038452,-0.0515144579232469
1580420491.89185,-0.967544060425727,0.279056992446783,-0.0456549935149155
1580420491.92383,-0.966567483024338,0.273197528038452,-0.0632333867399097
1580420491.95587,-0.97926298924239,0.273685816739146,-0.0471198596169984
1580420491.98792,-0.97584496833753,0.278080415045395,-0.0607919432364383
1580420492.01997,-0.96217288471809,0.281986724650949,-0.0476081483176927
1580420492.05201,-0.964126039520867,0.271244373235675,-0.0666514076447697
1580420492.08406,-0.971938658731975,0.2775921263447,-0.0583504997329669
1580420492.11611,-0.952895399404898,0.276127260242617,-0.0339360646982527
1580420492.14815,-0.977798123140307,0.279056992446783,-0.0510261692225527
1580420492.1802,-0.967055771725033,0.272709239337757,-0.0593270771343555
1580420492.21225,-0.976821545738918,0.264896620126649,-0.0466315709163041
1580420492.2443,-0.976821545738918,0.255130846112763,-0.0539559014267184
1580420492.27634,-0.976821545738918,0.257572289616235,-0.0485847257190812
1580420492.30839,-0.977798123140307,0.26392004272526,-0.0549324788281069
1580420492.34044,-0.974380102235447,0.259037155718318,-0.0627450980392155
1580420492.37248,-0.97926298924239,0.253177691309986,-0.0617685206378269
1580420492.40453,-0.973403524834058,0.2605020218204,-0.0578622110322726
1580420492.43658,-0.974380102235447,0.265873197528038,-0.0554207675288012
1580420492.46862,-0.969497215228504,0.262455176623178,-0.048096437018387
1580420492.50067,-0.971938658731975,0.26733806363012,-0.0783703364614325
1580420492.53272,-0.967055771725033,0.259037155718318,-0.0583504997329669
1580420492.56476,-0.982192721446555,0.258060578316929,-0.0749523155565726
1580420492.59681,-0.97584496833753,0.233646143282215,-0.0422369726100555
1580420492.62886,-0.973891813534753,0.248783093003738,-0.0549324788281069
1580420492.6609,-0.968032349126421,0.247318226901655,-0.0690928511482412
1580420492.69295,-0.98951705195697,0.241947051194018,-0.0505378805218584
1580420492.725,-0.976333257038224,0.243900205996795,-0.0749523155565726
1580420492.75704,-0.963637750820173,0.256595712214846,-0.0827649347676811
1580420492.78909,-0.988540474555581,0.251224536507209,-0.0759288929579611
1580420492.82114,-0.983657587548638,0.244388494697489,-0.0783703364614325
1580420492.85318,-0.968032349126421,0.251224536507209,-0.060303654535744
1580420492.88523,-0.985610742351415,0.241947051194018,-0.0520027466239412
1580420492.91728,-0.978774700541695,0.260990310521095,-0.0632333867399097
1580420492.94932,-0.988540474555581,0.259037155718318,-0.0539559014267184
1580420492.98137,-0.99293507286183,0.266849774929426,-0.0402838178072784
1580420493.01342,-0.973891813534753,0.254154268711375,-0.027588311589227
1580420493.04547,-0.959731441214618,0.25708400091554,-0.0163576714732585
1580420493.07751,-0.955825131609064,0.274662394140535,-0.0598153658350498
1580420493.10956,-0.99977111467155,0.282475013351643,-0.0500495918211641
1580420493.14161,-0.97584496833753,0.294193942168306,-0.031006332494087
1580420493.17365,-1.00904859998474,0.310307469291217,-0.0280766002899213
1580420493.20593,-0.988540474555581,0.305424582284274,-0.0554207675288012
1580420493.23798,-1.03443961242084,0.293217364766917,-0.0441901274128327
1580420493.27003,-0.95533684290837,0.300541695277332,-0.0754406042572668
1580420493.30207,-0.930922407873656,0.322514686808574,-0.0495613031204698
1580420493.33412,-0.973891813534753,0.300541695277332,-0.0622568093385212
1580420493.36617,-1.01051346608682,0.291752498664835,-0.0539559014267184
1580420493.39822,-0.969985503929198,0.308842603189134,-0.0813000686655982
1580420493.43026,-0.896253910124361,0.334233615625237,-0.0886243991760125
1580420493.46231,-0.926039520866713,0.280033569848172,-0.0476081483176927
1580420493.49436,-0.948989089799344,0.281986724650949,-0.0515144579232469
1580420493.5264,-0.958266575112535,0.313237201495383,-0.0720225833524069
1580420493.55845,-0.97584496833753,0.339604791332874,-0.0515144579232469
1580420493.5905,-0.967544060425727,0.345464255741206,-0.0588387884336612
1580420493.62255,-0.94166475928893,0.337163347829403,-0.0935072861829553
1580420493.65459,-0.917250324254216,0.298588540474555,-0.0969253070878153
1580420493.68664,-0.895765621423667,0.295170519569695,-0.0925307087815668
1580420493.71869,-0.909925993743801,0.303959716182192,-0.0886243991760125
1580420493.75074,-0.969985503929198,0.299565117875943,-0.0959487296864268
1580420493.78278,-0.960708018616007,0.319096665903714,-0.0930189974822611
1580420493.81483,-0.928969253070878,0.319096665903714,-0.126710917830167
1580420493.84688,-0.923109788662547,0.325932707713434,-0.113527122911421
1580420493.87892,-0.956801709010453,0.321538109407186,-0.0974135957885096
1580420493.91097,-0.984145876249332,0.315678644998854,-0.0788586251621268
1580420493.94302,-0.944106202792401,0.338139925230792,-0.0866712443732354
1580420493.97507,-0.944106202792401,0.31860837720302,-0.0954604409857325
1580420494.00711,-0.953383688105593,0.321538109407186,-0.108644235904478
1580420494.03916,-0.968520637827115,0.30151827267872,-0.0832532234683754
1580420494.07121,-0.990981918059052,0.277103837644006,-0.0729991607537954
1580420494.10326,-0.96217288471809,0.320561532005797,-0.0725108720531011
1580420494.1353,-0.937758449683376,0.355718318455786,-0.10083161669337
1580420494.16735,-0.933363851377127,0.338628213931486,-0.0969253070878153
1580420494.1994,-0.96217288471809,0.297123674372472,-0.0813000686655982
1580420494.23144,-0.980727855344472,0.304448004882886,-0.135500114442664
1580420494.26349,-0.932387273975738,0.348393987945371,-0.0969253070878153
1580420494.29554,-0.911879148546578,0.323491264209963,-0.142824444953078
1580420494.32759,-0.93824673838407,0.313237201495383,-0.135011825741969
1580420494.35963,-0.939711604486153,0.339604791332874,-0.111573968108644
1580420494.39168,-0.93482871747921,0.31519035629816,-0.133546959639887
1580420494.42373,-0.918226901655604,0.333257038223849,-0.200442511635003
1580420494.45578,-0.906019684138247,0.358159761959257,-0.203860532539863
1580420494.48792,-0.94166475928893,0.37329671168078,-0.204348821240558
1580420494.51996,-0.95191882200351,0.321049820706492,-0.173098344396124
1580420494.55201,-0.884534981307699,0.346929121843289,-0.222903791866941
1580420494.58406,-0.921644922560464,0.353765163653009,-0.263920042725262
1580420494.61611,-0.956801709010453,0.354741741054397,-0.261478599221791
1580420494.64815,-0.901136797131304,0.435309376668954,-0.318608377203022
1580420494.6802,-0.884534981307699,0.439703974975203,-0.464606698710613
1580420494.71225,-0.909925993743801,0.429449912260623,-0.407965209430076
1580420494.7443,-0.89039444571603,0.526619363698789,-0.390875104905776
1580420494.77634,-0.840100709544519,0.55640497444114,-0.451422903791867
1580420494.80839,-0.870374608987564,0.60083924620432,-0.505622949568933
1580420494.84044,-0.757579919127185,0.646250095368888,-0.540779736018921
1580420494.87249,-0.818127718013276,0.506599526970323,-0.510505836575875
1580420494.90453,-0.823498893720913,0.433844510566871,-0.563729304951552
1580420494.93658,-0.635507743953612,0.604745555809874,-0.620370794232089
1580420494.96863,-0.635996032654306,0.461188677805751,-0.485603112840467
1580420495.00068,-0.622812237735561,0.393316548409246,-0.362554360265507
1580420495.03273,-0.570565346761272,0.394293125810634,-0.46997787441825
1580420495.06477,-0.602304112306401,0.411871519035628,-0.56226443884947
1580420495.09682,-0.594979781795987,0.486579690241854,-0.396246280613413
1580420495.12887,-0.601815823605707,0.498786907759211,-0.379156176089113
1580420495.16092,-0.545662623025864,0.571053635461968,-0.488044556343938
1580420495.19297,-0.599862668802929,0.616464484626537,-0.419684138246739
1580420495.22501,-0.654551003280689,0.588632028686963,-0.454352635996033
1580420495.25706,-0.643320363164721,0.510505836575877,-0.486579690241856
1580420495.28911,-0.643808651865415,0.468513008316165,-0.518806744487678
1580420495.32116,-0.748302433813992,0.482673380636299,-0.472907606622416
1580420495.3532,-0.864515144579233,0.337163347829403,-0.478278782330053
1580420495.38525,-1.00856031128405,0.44165712977798,-0.530525673304341
1580420495.4173,-0.847913328755627,0.499275196459905,-0.555916685740444
1580420495.44935,-0.945571068894484,0.533455405508509,-0.419684138246739
1580420495.4814,-0.980727855344472,0.52222476539254,-0.477790493629358
1580420495.51344,-0.84937819485771,0.601815823605708,-0.414801251239796
1580420495.54549,-0.937758449683376,0.416754406042571,-0.38452735179675
1580420495.57754,-0.981216144045167,0.422613870450903,-0.373296711680782
1580420495.60959,-0.972915236133364,0.368902113374531,-0.31958495460441
1580420495.64163,-0.804455634393836,0.415289539940488,-0.362066071564813
1580420495.67368,-0.796154726482033,0.43482108796826,-0.327885862516213
1580420495.70573,-0.889906157015336,0.399664301518271,-0.200930800335698
1580420495.73778,-0.849866483558404,0.415777828641183,-0.289799343862059
1580420495.7699,-0.836682688639659,0.310307469291217,-0.403570611123827
1580420495.80194,-0.857190814068819,0.319584954604409,-0.38110933089189
1580420495.83399,-0.917250324254216,0.389898527504386,-0.335210193026628
1580420495.86604,-0.86305027847715,0.45874723430228,-0.310795757991913
1580420495.89809,-0.844983596551462,0.469977874418248,-0.306401159685665
1580420495.93014,-0.864026855878539,0.456794079499502,-0.417242694743267
1580420495.96218,-0.920180056458381,0.442633707179368,-0.462165255207141
1580420495.99423,-0.974380102235447,0.42456702525368,-0.491950865949493
1580420496.02628,-1.02516212710765,0.481208514534217,-0.502693217364767
1580420496.05833,-0.939711604486153,0.56324101625086,-0.439703974975204
1580420496.09037,-0.864515144579233,0.540291447318229,-0.421149004348822
1580420496.12242,-0.903578240634776,0.50513466086824,-0.427008468757153
1580420496.15447,-0.959243152513924,0.451422903791865,-0.482673380636301
1580420496.18652,-0.714122224765392,0.466071564812694,-0.55201037613489
1580420496.21857,-0.720958266575112,0.381109330891888,-0.34351110093843
1580420496.25061,-0.792736705577173,0.301029983978026,-0.36743724727245
1580420496.28266,-0.622812237735561,0.54615091172656,-0.440680552376593
1580420496.31471,-0.537850003814755,0.572518501564051,-0.310307469291219
1580420496.34676,-0.654062714579995,0.387457084000914,-0.332280460822462
1580420496.3788,-0.611581597619592,0.503669794766157,-0.54517433432517
1580420496.41085,-0.613534752422369,0.530525673304343,-0.495368886854353
1580420496.4429,-0.599862668802929,0.712169069962616,-0.561776150148775
1580420496.47495,-0.493415732051576,0.899671931029221,-0.549080643930724
1580420496.50699,-0.611581597619592,0.492927443350879,-0.382574196993973
1580420496.53904,-0.830334935530633,0.326420996414129,-0.55884641794461
1580420496.57109,-0.507087815671015,0.846448462653544,-0.659433890287632
1580420496.60314,-0.326909285114825,0.989028763256275,-0.752208743419548
1580420496.63519,-0.455329213397421,0.84254215304799,-0.602792401007095
1580420496.66723,-0.397222858014802,0.896253910124361,-0.644296940566109
1580420496.69928,-0.514900434882124,0.928969253070878,-0.839612420843824
1580420496.73133,-0.585214007782101,0.823987182421607,-0.496833752956436
1580420496.76338,-0.586678873884184,0.645761806668194,-0.448493171587701
1580420496.79542,-0.55542839703975,0.595468070496683,-0.570565346761272
1580420496.82747,-0.499763485160601,0.565682459754331,-0.613046463721675
1580420496.85952,-0.412359807736324,0.489997711146714,-0.529549095902953
1580420496.89157,-0.503669794766155,0.346440833142594,-0.404058899824522
1580420496.92362,-0.535896849011978,0.531502250705731,-0.489509422446021
1580420496.95566,-0.387457084000916,0.633554589150837,-0.582772564278629
1580420496.98771,-0.322514686808576,0.712657358663311,-0.552986953536278
1580420497.01976,-0.351812008850233,0.665293354695965,-0.485603112840467
1580420497.05191,-0.527595941100175,0.459235523002974,-0.349858854047456
1580420497.08396,-0.608163576714732,0.388433661402303,-0.388921950102999
1580420497.11601,-0.651621271076523,0.415289539940488,-0.53833829251545
1580420497.14805,-0.592050049591821,0.559334706645306,-0.45630579079881
1580420497.1801,-0.688731212329289,0.640390630960557,-0.458258945601587
1580420497.21215,-0.706309605554283,0.738048371099413,-0.476325627527276
1580420497.2442,-0.729259174486915,0.669687953002214,-0.47681391622797
1580420497.27625,-0.875745784695201,0.608163576714734,-0.563729304951552
1580420497.3083,-0.991958495460441,0.687266346227208,-0.510017547875181
1580420497.34034,-0.784924086366065,0.623300526436257,-0.416754406042573
1580420497.37239,-0.894300755321584,0.478278782330051,-0.315190356298162
1580420497.40444,-1.02320897230488,0.430426489662011,-0.241458762493323
1580420497.43649,-1.11647211413748,0.35620660715648,-0.240970473792629
1580420497.46854,-0.991470206759747,0.491950865949491,-0.224856946669718
1580420497.50058,-0.709239337758449,0.415289539940488,-0.444098573281453
1580420497.53263,-0.796643015182728,0.334721904325932,-0.362554360265507
1580420497.56468,-0.95533684290837,0.473395895323108,-0.204348821240558
1580420497.59673,-0.942153047989624,0.415777828641183,-0.172610055695429
1580420497.62878,-0.963149462119478,0.330815594720377,-0.135988403143358
1580420497.66083,-0.873792629892424,0.266361486228732,-0.287846189059282
1580420497.69287,-0.902601663233387,0.274662394140535,-0.192141603723201
1580420497.72492,-0.932387273975738,0.306889448386357,-0.173586633096818
1580420497.75697,-0.976821545738918,0.392828259708551,-0.211184863050278
1580420497.78902,-1.00514229037919,0.283451590753032,-0.150148775463492
1580420497.82107,-1.05983062485695,0.255619134813458,-0.0974135957885096
1580420497.85312,-0.982192721446555,0.299565117875943,-0.108644235904478
1580420497.88516,-0.932875562676433,0.394293125810634,-0.104737926298924
1580420497.91721,-0.927016098268101,0.40405889982452,-0.0710460059510183
1580420497.94926,-0.991470206759747,0.418219272144654,-0.129640650034332
1580420497.98131,-0.968520637827115,0.5256427862974,-0.0944838635843439
1580420498.01336,-0.948989089799344,0.633066300450142,-0.0114747844663157
1580420498.0454,-0.966567483024338,0.53589684901198,-0.0798352025635154
1580420498.07745,-0.936781872281987,0.623788815136951,-0.184817273212786
1580420498.1095,-0.944594491493095,0.660898756389717,-0.171633478294041
1580420498.14155,-0.906019684138247,0.686778057526514,-0.133058670939192
1580420498.1736,-0.881605249103533,0.546639200427254,-0.0583504997329669
1580420498.20565,-0.889906157015336,0.585702296482797,-0.176516365300984
1580420498.23769,-0.800549324788282,0.561776150148777,-0.118410009918364
1580420498.26974,-0.812268253604945,0.545174334325171,-0.0803234912642097
1580420498.30179,-0.729259174486915,0.670176241702908,-0.0544441901274126
1580420498.33377,-0.698496986343175,0.417242694743265,0.0852063782711525
1580420498.36582,-0.654551003280689,0.432379644464788,-0.099855039291981
1580420498.39787,-0.500251773861295,0.698985275043871,-0.341069657434959
1580420498.42991,-0.53492027161059,0.782482642862593,0.154543373769741
1580420498.46196,-0.510017547875181,0.444098573281451,-0.342046234836348
1580420498.49401,-0.548104066529335,0.537361715114063,-0.188235294117646
1580420498.52606,-0.498786907759213,0.696055542839705,-0.116945143816281
1580420498.55811,-0.564217593652247,0.635996032654308,-0.157961394674601
1580420498.59016,-0.730724040588997,0.53589684901198,-0.134035248340581
1580420498.6222,-0.968032349126421,0.587655451285574,-0.175539787899595
1580420498.65425,-0.664316777294575,0.639414053559168,-0.118410009918364
1580420498.6863,-0.775646601052873,0.512458991378654,0.0900892652780954
1580420498.71835,-1.39333180743114,0.107179369802395,-0.0432135500114441
1580420498.7504,-1.15309376668955,0.868421454184787,0.0983901731898982
1580420498.78245,-0.707774471656366,1.25709925993744,0.106691081101701
1580420498.81449,-1.1067063401236,0.4314030670634,0.243900205996795
1580420498.84654,-0.642832074464026,1.62087434195468,-0.6877546349279
1580420498.87859,-1.10328831921874,0.848401617456322,0.273197528038452
1580420498.91064,-1.05983062485695,-0.147707331960021,0.238529030289158
1580420498.94269,-0.761486228732739,-0.696055542839703,-0.371343556878005
1580420498.97474,-0.776623178454262,0.207766842145418,-0.403570611123827
1580420499.00678,-1.09010452429999,1.14625772487983,0.674082551308462
1580420499.03883,-0.92115663385977,0.796643015182728,-0.484626535439078
1580420499.07088,-0.863538567177844,0.150148775463492,-0.305912870984971
1580420499.10293,-1.00953688868544,-0.206301976043335,0.0285648889906156
1580420499.13498,-1.03639276722362,0.310795757991912,-0.0075684748607614
1580420499.16702,-0.89039444571603,0.692149233234151,-0.133058670939192
1580420499.19907,-0.922133211261158,0.694102388036928,-0.00903334096284425
1580420499.23112,-1.07545586327916,0.506599526970323,0.0612802319371326
1580420499.26317,-1.02760357061112,0.163820859082932,0.129152361333638
1580420499.29522,-0.917250324254216,0.155031662470435,0.0476081483176927
1580420499.32727,-0.843030441748684,0.983169298847944,-0.0173342488746471
1580420499.35931,-0.838147554741742,0.586190585183491,0.0100099183642328
1580420499.39136,-0.89723048752575,0.405523765926603,-0.0251468680857556
1580420499.42341,-0.88697642481117,0.336675059128709,-0.0466315709163041
1580420499.45546,-1.00856031128405,0.331792172121766,0.110597390707255
1580420499.48751,-0.959731441214618,0.473884184023802,0.185305561913481
1580420499.51955,-0.926527809567407,0.370855268177309,0.10083161669337
1580420499.5516,-1.00611886778058,0.357183184557869,0.282963302052337
1580420499.58365,-0.966567483024338,0.33228046082246,0.267826352330815
1580420499.61591,-0.93824673838407,0.254154268711375,0.244876783398183
1580420499.64795,-0.967055771725033,0.264408331425955,0.254642557412069
1580420499.68,-0.892835889219501,0.331792172121766,0.179446097505149
1580420499.71205,-0.802990768291753,0.311284046692606,0.123781185626001
1580420499.7441,-0.724376287479972,0.329350728618294,0.096437018387121
1580420499.77615,-0.776623178454262,0.46216525520714,0.0832532234683754
1580420499.8082,-0.778088044556345,0.412848096437017,0.165774013885709
1580420499.84025,-0.840588998245213,0.310795757991912,0.217532616159303
1580420499.87229,-0.781994354161899,0.373785000381474,0.173098344396124
1580420499.90434,-0.802502479591059,0.391363393606468,0.180910963607232
1580420499.93639,-0.829358358129245,0.41773098344396,0.152590218966964
1580420499.96844,-0.973891813534753,0.37671473258564,0.237552452887769
1580420500.00049,-0.929457541771573,0.45191119249256,0.163820859082932
1580420500.03254,-0.81177996490425,0.479743648432134,0.0749523155565726
1580420500.06459,-0.931898985275044,0.34253452353704,0.149172198062104
1580420500.09664,-1.06569008926528,0.336675059128709,-0.0646982528419926
1580420500.12868,-1.01051346608682,0.520271610589763,0.143801022354467
1580420500.16073,-1.01490806439307,0.303959716182192,0.143801022354467
1580420500.19278,-1.09449912260624,0.288822766460669,-0.0520027466239412
1580420500.22483,-1.04029907682918,0.533943694209203,0.203372243839169
1580420500.25688,-0.850843060959793,0.358648050659951,0.0388189517051956
1580420500.28893,-0.826916914625773,0.40405889982452,0.0505378805218584
1580420500.32098,-1.23414969100481,0.444586861982145,0.077393759060044
1580420500.35303,-0.981216144045167,0.135500114442664,0.00708018616006711
1580420500.38507,-0.931898985275044,0.0046387426565957,0.00415045395590141
1580420500.41712,-0.927504386968796,0.595956359197377,-0.130617227435721
1580420500.44917,-0.802502479591059,0.55640497444114,-0.198977645532921
1580420500.48122,-1.0383459220264,0.529549095902954,0.044678416113527
1580420500.51327,-1.0041657129778,0.385015640497443,0.0187991149767299
1580420500.54532,-0.937758449683376,0.0822766460669868,-0.133546959639887
1580420500.57737,-0.976821545738918,0.26733806363012,-0.0749523155565726
1580420500.60941,-0.930922407873656,0.531013962005037,-0.0134279392690928
1580420500.64146,-0.824475471122302,0.365484092469671,-0.173098344396124
1580420500.67351,-0.98609903105211,0.156984817273212,-0.211184863050278
1580420500.70556,-0.92115663385977,0.254154268711375,-0.034424353398947
1580420500.73761,-1.04518196383612,0.491462577248797,0.10083161669337
1580420500.76966,-0.932387273975738,0.528572518501566,-0.0441901274128327
1580420500.80171,-1.04615854123751,0.300053406576637,0.0554207675288012
1580420500.83376,-1.00563057907988,0.360601205462729,-0.0578622110322726
1580420500.8658,-0.995376516365301,0.481208514534217,0.0114747844663157
1580420500.89789,-1.05201800564584,0.361089494163423,0.155031662470435
1580420500.92994,-1.05104142824445,0.348393987945371,-0.00805676356145568
1580420500.96198,-1.05934233615625,0.406012054627297,0.172121766994735
1580420500.99403,-0.959243152513924,0.436285954070343,-0.00170901045242999
1580420501.02608,-0.995864805065995,0.337163347829403,0.0461432822156098
1580420501.05813,-0.905043106736859,0.144289311055161,0.0656748302433812
1580420501.09018,-0.926527809567407,0.233646143282215,0.192141603723201
1580420501.12223,-0.962661173418784,0.218997482261386,0.237064164187075
1580420501.15428,-0.959731441214618,0.275638971541923,0.389898527504386
1580420501.18633,-1.05787747005417,0.168703746089875,0.42114900434882
1580420501.21837,-1.00709544518196,0.212649729152361,0.403082322423131
1580420501.25042,-0.837659266041047,0.190676737621118,0.23657587548638
1580420501.28247,-0.753185320820936,0.175539787899595,0.106202792401007
1580420501.31452,-0.814709697108416,0.358159761959257,0.242435339894712
1580420501.34657,-0.740489814602883,0.343999389639123,0.165285725185015
1580420501.37862,-0.720469977874417,0.390875104905774,0.231692988479438
1580420501.41067,-0.765880827038988,0.247318226901655,0.236087586785686
1580420501.44272,-0.751232166018159,0.261966887922483,0.308842603189134
1580420501.47476,-0.802502479591059,0.298588540474555,0.325932707713434
1580420501.50681,-0.82545204852369,0.293705653467612,0.338139925230792
1580420501.53886,-0.868909742885482,0.305424582284274,0.298588540474555
1580420501.57091,-0.877698939497979,0.302494850080109,0.254154268711375
1580420501.60296,-0.931898985275044,0.305424582284274,0.285404745555809
1580420501.63501,-0.864515144579233,0.354741741054397,0.208255130846112
1580420501.66706,-1.0036774242771,0.34253452353704,0.203860532539863
1580420501.69911,-1.09694056610971,0.26392004272526,0.121828030823224
1580420501.73115,-1.07643244068055,0.443610284580757,0.105714503700312
1580420501.7632,-0.998794537270161,0.336186770428014,0.114015411612115
1580420501.79525,-1.07154955367361,0.28784618905928,0.132082093537804
1580420501.8273,-1.0466468299382,0.122804608224612,-0.0393072404058898
1580420501.85935,-1.05494773785,0.176028076600289,0.0529793240253298
1580420501.8914,-0.952895399404898,0.297611963073166,-0.0700694285496297
1580420501.92345,-1.01686121919585,0.343511100938429,-0.096437018387121
1580420501.95549,-0.97584496833753,0.320073243305103,-0.135011825741969
1580420501.98754,-0.927504386968796,0.262455176623178,-0.0441901274128327
1580420502.01959,-1.00709544518196,0.382574196993971,-0.0183108262760356
1580420502.05164,-1.04567025253681,0.238529030289158,0.031006332494087
1580420502.08369,-0.990005340657664,0.198001068131532,-0.063721675440604
1580420502.11574,-0.94508278019379,0.281986724650949,-0.143801022354467
1580420502.14779,-1.00563057907988,0.278080415045395,-0.0515144579232469
1580420502.1799,-1.04127565423056,0.239505607690546,-0.0866712443732354
1580420502.21195,-0.984634164950027,0.294193942168306,-0.0988784618905925
1580420502.244,-1.01344319829099,0.241947051194018,-0.0256351567864499
1580420502.27605,-0.933852140077821,0.2775921263447,-0.0354009308003356
1580420502.3081,-0.953871976806287,0.272220950637063,-0.0681162737468526
1580420502.34014,-0.953871976806287,0.254154268711375,-0.0959487296864268
1580420502.37219,-0.98951705195697,0.281986724650949,-0.12475776302739
1580420502.40424,-0.985610742351415,0.268314641031509,-0.0729991607537954
1580420502.43629,-0.923109788662547,0.293217364766917,-0.0974135957885096
1580420502.46834,-0.956801709010453,0.268802929732203,-0.143312733653772
1580420502.50039,-0.960219729915313,0.241458762493323,0.0104982070649271
1580420502.53244,-0.973891813534753,0.33228046082246,-0.00903334096284425
1580420502.56448,-1.07887388418402,0.363530937666894,0.0520027466239412
1580420502.59653,-1.06861982146944,0.223880369268329,0.157473105973907
1580420502.62858,-0.978774700541695,0.188723582818341,0.0676279850461583
1580420502.66063,-0.991470206759747,0.37671473258564,0.0437018387121384
1580420502.69268,-0.918715190356298,0.337163347829403,-0.134035248340581
1580420502.72473,-1.03443961242084,0.218997482261386,0.0271000228885327
1580420502.75678,-1.06080720225834,0.190676737621118,0.152590218966964
1580420502.78883,-1.03248645761807,0.265384908827343,0.165774013885709
1580420502.82087,-1.0207675288014,0.157961394674601,0.200930800335698
1580420502.85292,-1.03639276722362,0.31860837720302,0.213626306553749
1580420502.88497,-0.942641336690318,0.333745326924543,0.205813687342641
1580420502.91702,-0.889417868314641,0.372320134279391,0.205813687342641
1580420502.94907,-0.947035934996567,0.389898527504386,0.266849774929426
1580420502.98112,-0.887464713511864,0.310795757991912,0.223880369268329
1580420503.01317,-0.825940337224385,0.461188677805751,0.102296482795452
1580420503.04522,-0.715587090867475,0.823987182421607,0.0656748302433812
1580420503.07726,-0.800549324788282,1.05836575875486,0.138429846646829
1580420503.10931,-0.86646829938201,0.948012512397955,0.201419089036392
1580420503.14136,-0.971938658731975,0.878675516899367,0.0681162737468526
1580420503.17341,-0.893324177920196,0.871839475089647,-0.0334477759975584
1580420503.20546,-0.775646601052873,0.702891584649425,-0.210696574349583
1580420503.23751,-0.561776150148775,0.746837567711911,-0.242923628595406
1580420503.26956,-0.543709468223087,0.901625085831999,-0.300053406576639
1580420503.3016,-0.50074006256199,0.958266575112535,-0.164797436484321
1580420503.33365,-0.404547188525216,0.87330434119173,-0.352788586251622
1580420503.3657,-0.40503547722591,0.826916914625773,-0.413336385137713
1580420503.39775,-0.423590447852293,0.848401617456322,-0.325444419012742
1580420503.4298,-0.196536202029449,0.848401617456322,-0.515388723582818
1580420503.46191,-0.156984817273212,0.731212329289693,-0.514900434882124
1580420503.49396,-0.139894712748912,0.740978103303579,-0.50415808346685
1580420503.52601,-0.113527122911421,0.742931258106356,-0.52124818799115
1580420503.55806,-0.151125352864881,0.643808651865417,-0.566170748455024
1580420503.59011,-0.135011825741969,0.636484321355002,-0.573983367666132
1580420503.62216,-0.115480277714198,0.702403295948731,-0.527107652399481
1580420503.65421,-0.277103837644008,0.507576104371712,-0.587167162584878
1580420503.68626,-0.112550545510032,0.864026855878539,-0.391851682307164
1580420503.71831,-0.0769054703593497,0.54615091172656,-0.481696803234913
1580420503.75036,-0.270756084534982,0.542244602121006,-0.412359807736324
1580420503.7824,-0.254154268711376,0.637949187457085,-0.253665980010682
1580420503.81446,-0.149172198062104,0.700938429846648,-0.398687724116884
1580420503.8465,-0.243900205996795,0.736095216296636,-0.352788586251622
1580420503.87855,-0.252201113908599,0.849866483558404,-0.399664301518273
1580420503.9106,-0.304936293583582,0.833752956435493,-0.400640878919662
1580420503.94265,-0.327397573815519,0.735118638895248,-0.494880598153658
1580420503.9747,-0.416266117341879,0.775646601052873,-0.563729304951552
1580420504.00675,-0.508064393072404,0.82887006942855,-0.575936522468909
1580420504.0388,-0.595956359197375,0.97926298924239,-0.45630579079881
1580420504.07085,-0.575936522468909,1.00172426947433,-0.587655451285572
1580420504.1029,-0.498786907759213,0.87330434119173,-0.611581597619592
1580420504.13495,-0.670664530403601,0.648203250171665,-0.578377965972381
1580420504.167,-0.827405203326467,0.645761806668194,-0.699473563744563
1580420504.19904,-0.735118638895246,0.709239337758451,-0.710215915159838
1580420504.23109,-0.922621499961853,0.581307698176548,-0.502204928664073
1580420504.26314,-0.888441290913253,0.63160143434806,-0.638925764858472
1580420504.29519,-0.768322270542459,0.740978103303579,-0.747814145113297
1580420504.32724,-0.891371023117419,0.626718547341117,-0.497810330357824
1580420504.35929,-0.910414282444496,0.509040970473794,-0.47681391622797
1580420504.39134,-0.765392538338293,0.517341878385597,-0.363042648966202
1580420504.42339,-0.788342107270925,0.4143129625391,-0.470954451819638
1580420504.45544,-0.850843060959793,0.407965209430074,-0.435309376668956
1580420504.48749,-0.875257495994507,0.463630121309222,-0.390875104905776
1580420504.51954,-0.859143968871596,0.51197070267796,-0.351323720149539
1580420504.55159,-0.870862897688259,0.430426489662011,-0.300053406576639
1580420504.58363,-0.878187228198673,0.353765163653009,-0.330815594720379
1580420504.61568,-0.906996261539636,0.374761577782863,-0.283451590753033
1580420504.64773,-0.909437705043107,0.357671473258563,-0.242923628595406
1580420504.67978,-0.893324177920196,0.37329671168078,-0.254642557412071
1580420504.71183,-0.929945830472267,0.358648050659951,-0.265873197528039
1580420504.74374,-0.948012512397955,0.348393987945371,-0.299565117875945
1580420504.77579,-0.940199893186847,0.364019226367589,-0.306401159685665
1580420504.80784,-0.875257495994507,0.345464255741206,-0.277592126344702
1580420504.83989,-0.834729533836882,0.350347142748149,-0.328862439917602
1580420504.87194,-0.908461127641718,0.334233615625237,-0.294193942168308
1580420504.90399,-0.903089951934081,0.303959716182192,-0.32300297550927
1580420504.93604,-0.88697642481117,0.35278858625162,-0.342046234836348
1580420504.96809,-0.905043106736859,0.3630426489662,-0.331303883421073
1580420505.00014,-0.895277332722973,0.378667887388417,-0.356694895857176
1580420505.03219,-0.849866483558404,0.375249866483557,-0.308354314488442
1580420505.06423,-0.878187228198673,0.390875104905774,-0.308354314488442
1580420505.09628,-0.898695353627833,0.361089494163423,-0.293217364766919
1580420505.12833,-0.908949416342413,0.329350728618294,-0.311772335393302
1580420505.16038,-0.919203479056993,0.373785000381474,-0.312748912794691
1580420505.19243,-0.89723048752575,0.397711146715494,-0.303471427481499
1580420505.22448,-0.86646829938201,0.384527351796748,-0.384039063096056
1580420505.25653,-0.812268253604945,0.485603112840465,-0.423590447852293
1580420505.28858,-0.717540245670252,0.493904020752268,-0.474372472724498
1580420505.32063,-0.725841153582055,0.579354543373771,-0.614023041123064
1580420505.35268,-0.743419546807049,0.649179827573054,-0.629159990844586
1580420505.38473,-0.747325856412603,0.65210955977722,-0.635996032654306
1580420505.41678,-0.770275425345236,0.676035706111239,-0.696055542839703
1580420505.44882,-0.799572747386893,0.705821316853591,-0.660410467689021
1580420505.48088,-0.766857404440376,0.726817730983445,-0.691660944533455
1580420505.51292,-0.717540245670252,0.820569161516747,-0.819592584115359
1580420505.54497,-0.668223086900129,0.863538567177844,-0.814221408407722
1580420505.57702,-0.679453727016098,0.878675516899367,-0.821057450217442
1580420505.60907,-0.576424811169604,0.819592584115359,-0.827893492027162
1580420505.64112,-0.492439154650187,0.712657358663311,-0.77759975585565
1580420505.67317,-0.419684138246739,0.685313191424431,-0.678965438315403
1580420505.70522,-0.286381322957199,0.626230258640422,-0.638925764858472
1580420505.73727,-0.241458762493323,0.467048142214082,-0.479743648432136
1580420505.76932,-0.0783703364614325,0.448004882887005,-0.44946974898909
1580420505.80137,-0.105714503700312,0.4314030670634,-0.397222858014802
1580420505.83342,-0.141359578850995,0.493415732051574,-0.41528953994049
1580420505.86546,-0.0163576714732585,0.37671473258564,-0.498298619058518
1580420505.89751,0.0319829098954756,0.44165712977798,-0.458747234302281
1580420505.92956,0.0993667505912867,0.605722133211263,-0.485114824139773
1580420505.96161,0.178957808804455,0.740978103303579,-0.591073472190432
1580420505.99366,0.161379415579461,0.647714961470971,-0.630624856946669
1580420506.02603,0.162844281681544,0.754650186923019,-0.669687953002212
1580420506.05808,0.166750591287098,0.768810559243153,-0.660898756389715
1580420506.09013,0.190676737621118,0.842053864347296,-0.697520408941786
1580420506.12218,0.207278553444723,0.842053864347296,-0.667246509498741
1580420506.15423,0.178469520103761,0.769787136644542,-0.690196078431372
1580420506.18628,0.150148775463492,0.744396124208439,-0.655039291981383
1580420506.21833,0.144289311055161,0.769298847943848,-0.626230258640421
1580420506.25038,0.145754177157244,0.76734569314107,-0.661875333791103
1580420506.28243,0.144777599755855,0.743907835507745,-0.622812237735561
1580420506.31448,0.137453269245441,0.757579919127185,-0.642832074464026
1580420506.34653,0.107179369802395,0.746837567711911,-0.648203250171663
1580420506.37858,0.115968566414892,0.792248416876479,-0.642343785763332
1580420506.41063,0.10424963759823,0.826428625925079,-0.618905928130006
1580420506.44268,0.10083161669337,0.890882734416724,-0.636972610055695
1580420506.47473,0.0837415121690697,0.967055771725033,-0.651621271076523
1580420506.50678,0.0686045624475469,0.871351186388953,-0.644785229266803
1580420506.53883,0.0417486839093613,0.86305027847715,-0.669687953002212
1580420506.57087,0.0451667048142212,0.77759975585565,-0.551522087434195
1580420506.60292,0.0588387884336612,0.768322270542459,-0.614511329823758
1580420506.63497,-0.00268558785381856,0.639902342259862,-0.486091401541161
1580420506.66702,-0.0236820019836728,0.594979781795988,-0.526619363698787
1580420506.69907,0.0744640268558783,0.653086137178608,-0.627206836041809
1580420506.73112,0.169192034790569,0.758556496528573,-0.672129396505683
1580420506.76317,0.199954222934309,1.13746852826734,-0.713633936064697
1580420506.79522,0.158937972075989,1.12965590905623,-0.74927901121538
1580420506.82727,0.0271000228885327,0.653574425879302,-0.703868162050812
1580420506.85932,0.00366216525520713,0.745860990310522,-0.683360036621652
1580420506.89137,-0.00366216525520713,0.812268253604945,-0.584725719081407
1580420506.92342,0.0295414663920042,0.860120546272984,-0.593514915693904
1580420506.95547,0.0759288929579611,0.855725947966736,-0.657480735484855
1580420506.98752,0.0852063782711525,0.766857404440376,-0.519295033188373
1580420507.01957,0.0803234912642097,0.560311284046694,-0.696055542839703
1580420507.05162,0.0246585793850613,0.614023041123065,-0.514900434882124
1580420507.08367,0.0192874036774242,0.5940032043946,-0.516365300984207
1580420507.11572,-0.0129396505683985,0.776134889753568,-0.512458991378653
1580420507.14777,0.10424963759823,0.558358129243917,-0.483161669336996
1580420507.17982,0.159914549477378,0.783459220263982,-0.542732890821698
1580420507.21187,-0.0407721065079727,0.556893263141834,-0.514900434882124
1580420507.24392,-0.127687495231555,0.584237430380714,-0.606210421911955
1580420507.27597,-0.152101930266269,0.820569161516747,-0.599374380102235
1580420507.30792,-0.0935072861829553,0.860608834973679,-0.590096894789044
1580420507.33997,-0.027588311589227,1.02369726100557,-0.719493400473029
1580420507.37202,-0.0939955748836496,0.835217822537576,-0.743907835507743
1580420507.40407,-0.0788586251621268,1.04567025253681,-0.72877088578622
1580420507.43612,-0.000732433051041426,1.14381628137636,-0.736095216296635
1580420507.46817,0.0402838178072784,0.950453955901427,-0.873792629892424
1580420507.50022,0.0368657969024184,0.949477378500038,-0.782970931563288
1580420507.53227,0.0393072404058898,1.0300450141146,-0.772228580148013
1580420507.56432,0.0749523155565726,0.898695353627833,-0.798596169985505
1580420507.59637,0.0334477759975584,0.80836194399939,-0.694102388036926
1580420507.62842,0.0339360646982527,0.857190814068819,-0.757091630426491
1580420507.66047,0.0295414663920042,0.840100709544519,-0.716075379568169
1580420507.69252,-0.0363775082017241,0.836194399938964,-0.614511329823758
1580420507.72457,-0.198001068131532,0.725352864881362,-0.486091401541161
1580420507.75662,-0.196047913328755,0.691660944533457,-0.446540016784924
1580420507.78867,-0.133058670939192,0.490974288548102,-0.518806744487678
1580420507.82072,-0.0476081483176927,0.293217364766917,-0.426031891355764
1580420507.85277,0.037842374303807,0.341069657434957,-0.331303883421073
1580420507.88482,0.168703746089875,0.696543831540399,-0.658457312886243
1580420507.91686,0.225345235370412,1.08424505989166,-0.758068207827879
1580420507.94892,0.244388494697489,1.18629739833677,-0.770275425345236
1580420507.98096,0.11792172121767,0.895277332722973,-0.941176470588236
1580420508.01301,-0.0207522697795071,0.780041199359122,-0.656992446784161
1580420508.04506,-0.00805676356145568,0.731700617990388,-0.614023041123064
1580420508.07711,0.0578622110322726,0.913832303349356,-0.644785229266803
1580420508.10916,0.0915541313801782,0.84596017395285,-0.615487907225146
1580420508.14121,0.0471198596169984,0.582772564278631,-0.527107652399481
1580420508.17326,-0.0144045166704814,0.438727397573814,-0.502693217364767
1580420508.20531,-0.0153810940718699,0.517341878385597,-0.503181506065461
1580420508.23736,0.102784771496147,0.728282597085528,-0.621835660334172
1580420508.26941,-0.0612802319371326,0.78785381857023,-0.381597619592585
1580420508.30146,-0.0427252613107498,0.783459220263982,-0.611093308918898
1580420508.33351,-0.00854505226214997,0.818127718013276,-0.615976195925841
1580420508.36556,0.0578622110322726,0.612558175020983,-0.7219348439765
1580420508.39761,0.00805676356145568,0.856702525368124,-0.516853589684901
1580420508.42966,-0.0578622110322726,0.738536659800108,-0.721446555275806
1580420508.46171,-0.144289311055161,0.821545738918136,-0.625253681239032
1580420508.49376,-0.0334477759975584,1.18239108873121,-0.642343785763332
1580420508.52581,-0.0256351567864499,0.920668345159076,-0.674570840009155
1580420508.55786,-0.112550545510032,0.939223315785458,-0.669199664301518
1580420508.59006,-0.096437018387121,0.885511558709087,-0.799572747386893
1580420508.62211,-0.0397955291065841,0.771252002746625,-0.749767299916074
1580420508.65416,0.00610360875867855,0.803479056992447,-0.630624856946669
1580420508.68621,-0.0290531776913099,0.795666437781339,-0.522713054093233
1580420508.71826,-0.0124513618677042,0.786877241168842,-0.672129396505683
1580420508.7503,-0.126710917830167,0.563729304951554,-0.668711375600823
1580420508.78235,-0.177981231403066,0.649179827573054,-0.594979781795987
1580420508.8144,-0.101808194094758,0.583260852979326,-0.575936522468909
1580420508.84645,-0.0988784618905925,0.624277103837645,-0.525642786297398
1580420508.8785,-0.199954222934309,0.673594262607768,-0.676523994811932
1580420508.91055,-0.253665980010682,0.598397802700848,-0.442145418478676
1580420508.9426,-0.291752498664836,0.453864347295337,-0.558358129243915
1580420508.97465,-0.484138246738384,0.56324101625086,-0.556893263141832
1580420509.0067,-0.486091401541161,0.711192492561228,-0.620859082932784
1580420509.03875,-0.51441214618143,0.694102388036928,-0.542244602121004
1580420509.0708,-0.643320363164721,0.603280689707791,-0.740001525902189
1580420509.10285,-0.618905928130006,0.627695124742505,-0.685801480125123
1580420509.1349,-0.663828488593881,0.603280689707791,-0.494392309452964
1580420509.16695,-0.879163805600061,0.568123903257803,-0.573495078965438
1580420509.199,-0.99293507286183,0.464606698710611,-0.632089723048752
1580420509.23105,-0.861585412375067,0.564217593652248,-0.642832074464026
1580420509.2631,-0.677012283512626,0.746837567711911,-0.658457312886243
1580420509.29515,-0.850843060959793,0.624277103837645,-0.509040970473793
1580420509.3272,-0.753185320820936,0.509040970473794,-0.823010605020219
1580420509.35925,-0.470466163118944,0.94166475928893,-0.815686274509805
1580420509.3913,-0.622812237735561,0.673105973907074,-0.761486228732739
1580420509.42335,-0.769787136644542,0.692637521934845,-0.681895170519569
1580420509.4554,-0.730235751888303,0.773693446250096,-0.805920500495919
1580420509.48745,-0.545662623025864,0.899671931029221,-0.785900663767453
1580420509.5195,-0.70826276035706,0.790783550774396,-0.79127183947509
1580420509.55155,-0.79468986037995,0.617441062027925,-0.662851911192492
1580420509.5836,-0.612069886320286,0.640878919661251,-0.976333257038224
1580420509.61565,-0.553475242236972,0.516365300984209,-1.01051346608682
1580420509.6477,-0.591073472190432,0.766369115739682,-0.768322270542459
1580420509.67974,-0.415777828641184,1.11158922713054,-0.760021362630656
1580420509.71179,-0.258548867017625,0.784924086366065,-0.996841382467384
1580420509.74384,-0.552498664835584,0.597909514000154,-0.575936522468909
1580420509.77589,-0.349858854047456,0.708262760357062,-0.516365300984207
1580420509.80794,-0.333745326924545,0.426520180056457,-0.568123903257801
1580420509.83999,-0.337651636530099,0.32544441901274,-0.413336385137713
1580420509.87204,-0.297611963073168,0.305912870984969,-0.145754177157244
1580420509.90409,-0.10766765850309,0.387457084000914,-0.386480506599527
1580420509.93614,0.110597390707255,0.484138246738382,-0.40161745632105
1580420509.96819,0.220462348363469,0.500251773861297,-0.820080872816053
1580420510.00024,0.256595712214846,0.752208743419548,-0.473884184023804
1580420510.03229,0.156496528572518,0.637460898756391,-0.750743877317465
1580420510.06434,0.277103837644006,1.01686121919585,-0.809826810101473
1580420510.09639,0.2605020218204,0.97242694743267,-0.777111467154956
1580420510.12844,0.0930189974822611,0.560311284046694,-0.701915007248035
1580420510.16049,0.214114595254443,0.908949416342413,-0.678965438315403
1580420510.19254,0.187747005416952,0.671641107804991,-0.557869840543221
1580420510.22459,0.0373540856031127,0.561287861448083,-0.532967116807813
1580420510.25664,0.000244144350347142,0.493415732051574,-0.445563439383536
1580420510.28869,0.150148775463492,0.682383459220265,-0.615976195925841
1580420510.32074,0.0627450980392155,0.802014190890365,-0.445075150682841
1580420510.35279,0.103761348897535,0.682871747920959,-0.451422903791867
1580420510.38484,0.249271381704432,0.82203402761883,-0.846936751354239
1580420510.41689,0.0871595330739297,0.727306019684139,-0.724376287479972
1580420510.44894,-0.113038834210727,0.846448462653544,-0.506599526970321
1580420510.48099,-0.0339360646982527,1.10328831921874,-0.660410467689021
1580420510.51304,0.0563973449301898,0.984145876249332,-0.566659037155718
1580420510.54509,0.0368657969024184,0.970962081330587,-0.688242923628595
1580420510.57714,0.0100099183642328,0.858167391470207,-0.740001525902189
1580420510.60919,0.0559090562294955,0.848889906157016,-0.755138475623713
1580420510.64124,0.0690928511482412,0.744884412909133,-0.649668116273746
1580420510.67329,0.0861829556725411,0.802014190890365,-0.695567254139009
1580420510.70534,0.00512703135728998,0.826428625925079,-0.589608606088349
1580420510.73739,0.0524910353246355,0.938735027084764,-0.620859082932784
1580420510.76944,0.0256351567864499,0.821545738918136,-0.649179827573052
1580420510.80149,-0.0236820019836728,0.789318684672313,-0.56910048065919
1580420510.83354,-0.0314946211947813,0.77418173495079,-0.616952773327229
1580420510.86559,0.0109864957656214,0.806408789196613,-0.726817730983443
1580420510.89764,0.0163576714732585,0.713145647364005,-0.542732890821698
1580420510.92969,0.037842374303807,0.833752956435493,-0.575936522468909
1580420510.96174,0.0788586251621268,0.893324177920196,-0.611581597619592
1580420510.99379,0.0437018387121384,0.848889906157016,-0.588143739986267
1580420511.02584,0.0280766002899213,0.751232166018159,-0.575936522468909
1580420511.05789,-0.0168459601739528,0.601815823605708,-0.543709468223087
1580420511.08994,-0.0866712443732354,0.6110933089189,-0.496833752956436
1580420511.12199,0.0397955291065841,0.757579919127185,-0.80494392309453
1580420511.15408,0.196536202029449,1.02662699320974,-0.600839246204318
1580420511.18613,0.150637064164187,1.10084687571527,-0.788830395971619
1580420511.21818,0.00903334096284425,0.793713282978562,-0.778088044556345
1580420511.25023,-0.027588311589227,0.568123903257803,-0.615487907225146
1580420511.28228,-0.0109864957656214,0.845471885252156,-0.612069886320286
1580420511.31433,0.0983901731898982,0.970473792629893,-0.644296940566109
1580420511.34638,0.132082093537804,0.893324177920196,-0.685313191424429
1580420511.37843,0.132570382238498,0.749767299916076,-0.579842832074464
1580420511.41048,0.00903334096284425,0.312260624093994,-0.649668116273746
1580420511.44253,0.0437018387121384,0.654551003280691,-0.604745555809872
1580420511.47458,0.198001068131532,0.929945830472267,-0.650644693675135
1580420511.50663,0.211673151750972,0.678965438315405,-0.441168841077287
1580420511.53868,0.166750591287098,0.769787136644542,-0.568123903257801
1580420511.57073,0.0939955748836496,0.575936522468911,-0.588143739986267
1580420511.60278,0.229739833676661,0.721446555275808,-0.710215915159838
1580420511.63484,0.163332570382238,0.747814145113299,-0.54175631342031
1580420511.66688,0.108644235904478,0.91773861295491,-0.616952773327229
1580420511.69894,0.114015411612115,0.802014190890365,-0.638437476157778
1580420511.73098,0.147219043259327,0.977798123140307,-0.634531166552224
1580420511.76303,0.196536202029449,0.925062943465324,-0.591561760891127
1580420511.79509,0.171633478294041,0.843030441748684,-0.69117265583276
1580420511.82714,0.150148775463492,0.706797894254979,-0.661387045090409
1580420511.85919,0.197512779430838,0.822522316319525,-0.638437476157778
1580420511.89124,0.245365072098878,0.792248416876479,-0.660898756389715
1580420511.92329,0.184817273212786,0.782970931563288,-0.545662623025864
1580420511.95534,0.164309147783626,0.821057450217442,-0.562752727550164
1580420511.98739,0.134523537041275,0.766369115739682,-0.595956359197375
1580420512.01944,0.118410009918364,0.781506065461205,-0.593514915693904
1580420512.05149,0.0915541313801782,0.761486228732739,-0.584725719081407
1580420512.08354,0.0769054703593497,0.726329442282751,-0.492439154650187
1580420512.11559,0.108644235904478,0.699961852445259,-0.512947280079347
1580420512.14764,0.136964980544747,0.724864576180668,-0.535408560311284
1580420512.17969,0.162844281681544,0.706797894254979,-0.614999618524452
1580420512.21174,0.112062256809338,0.728770885786222,-0.529549095902953
1580420512.24379,0.175051499198901,0.80494392309453,-0.632578011749446
1580420512.27584,0.218509193560692,0.807385366598002,-0.737071793698023
1580420512.30789,0.234134431982909,1.07789730678263,-0.795178149080645
1580420512.33994,0.198489356832226,0.987075608453498,-0.72535286488136
1580420512.37199,0.0524910353246355,0.788830395971619,-0.672617685206378
1580420512.40404,-0.00122072175173571,0.652597848477914,-0.626230258640421
1580420512.43613,0.0695811398489354,0.79127183947509,-0.626718547341115
1580420512.46818,0.204348821240558,0.981704432745861,-0.659433890287632
1580420512.50023,0.0871595330739297,0.740978103303579,-0.607186999313344
1580420512.53228,0.0402838178072784,0.571053635461968,-0.608651865415426
1580420512.56433,0.126222629129472,0.811291676203556,-0.687266346227206
1580420512.59638,0.163332570382238,0.841077286945907,-0.636484321355001
1580420512.62843,0.110109102006561,0.753673609521631,-0.520759899290455
1580420512.66048,0.0817883573662925,0.599374380102237,-0.497810330357824
1580420512.69253,0.138429846646829,0.682871747920959,-0.588143739986267
1580420512.72458,0.114015411612115,0.737071793698025,-0.621835660334172
1580420512.75663,0.0217288471808956,0.680918593118182,-0.513435568780041
1580420512.78868,0.0510261692225527,0.79127183947509,-0.553475242236972
1580420512.82073,0.134035248340581,0.934340428778516,-0.578377965972381
1580420512.85278,0.148683909361409,0.829846646829939,-0.693614099336232
1580420512.88483,0.0803234912642097,0.776623178454262,-0.683360036621652
1580420512.91688,0.124269474326695,0.869398031586176,-0.600839246204318
1580420512.94893,0.128175783932249,0.851819638361182,-0.587655451285572
1580420512.98098,0.0866712443732354,0.900160219729916,-0.673594262607766
1580420513.01303,0.0749523155565726,0.846448462653544,-0.609628442816815
1580420513.04508,0.106202792401007,0.841077286945907,-0.596444647898069
1580420513.07713,0.126222629129472,0.843518730449379,-0.604745555809872
1580420513.10918,0.136476691844052,0.840588998245213,-0.642343785763332
1580420513.14123,0.0988784618905925,0.767833981841765,-0.609628442816815
1580420513.17328,0.080811779964904,0.806897077897307,-0.615487907225146
1580420513.20533,0.077393759060044,0.814221408407722,-0.603768978408484
1580420513.23738,0.0783703364614325,0.826916914625773,-0.599374380102235
1580420513.26943,0.0813000686655982,0.775158312352179,-0.578866254673075
1580420513.30148,0.0598153658350498,0.76734569314107,-0.567147325856412
1580420513.33353,0.0295414663920042,0.766369115739682,-0.547127489127947
1580420513.36558,0.0407721065079727,0.79127183947509,-0.549080643930724
1580420513.39763,0.0700694285496297,0.816174563210499,-0.635019455252918
1580420513.42968,0.0627450980392155,0.805920500495919,-0.623300526436255
1580420513.46173,0.0612802319371326,0.778088044556345,-0.568123903257801
1580420513.49378,0.0715342946517126,0.802990768291753,-0.590096894789044
1580420513.52583,0.0876478217746239,0.767833981841765,-0.731700617990386
1580420513.55788,0.0959487296864268,0.816174563210499,-0.7048447394522
1580420513.58993,0.0813000686655982,0.902601663233387,-0.594979781795987
1580420513.62198,0.0388189517051956,0.950453955901427,-0.51783016708629
1580420513.65403,0.00708018616006711,0.796154726482033,-0.548104066529335
1580420513.68608,0.0163576714732585,0.729259174486916,-0.602304112306401
1580420513.71814,0.00561532005798426,0.798596169985505,-0.672129396505683
1580420513.75019,-0.0686045624475469,0.646738384069582,-0.477790493629358
1580420513.78224,-0.0314946211947813,0.726329442282751,-0.516853589684901
1580420513.81429,0.000732433051041426,0.692149233234151,-0.638437476157778
1580420513.84634,0.0598153658350498,0.980727855344472,-0.748790722514686
1580420513.87839,0.0339360646982527,0.80152590218967,-0.577401388570992
1580420513.91044,0.0109864957656214,0.827893492027162,-0.622812237735561
1580420513.94249,0.0485847257190812,0.888929579613947,-0.707774471656366
1580420513.97454,0.0349126420996413,0.804455634393836,-0.584725719081407
1580420514.00659,-0.037842374303807,0.802990768291753,-0.577401388570992
1580420514.03864,-0.0129396505683985,0.816174563210499,-0.603768978408484
1580420514.07069,-0.0441901274128327,0.738536659800108,-0.603280689707789
1580420514.10274,0.00659189745937283,0.760997940032045,-0.571053635461967
1580420514.13479,0.0686045624475469,0.806897077897307,-0.684824902723735
1580420514.16684,0.00708018616006711,0.848401617456322,-0.665781643396658
1580420514.19889,-0.0974135957885096,0.901136797131304,-0.53492027161059
1580420514.23094,-0.0251468680857556,0.802014190890365,-0.607675288014038
1580420514.26299,0.0183108262760356,0.813244831006333,-0.693125810635538
1580420514.29504,-0.0505378805218584,0.814709697108416,-0.567147325856412
1580420514.32709,-0.0109864957656214,0.821057450217442,-0.565194171053635
1580420514.35914,0.0046387426565957,0.823010605020219,-0.588632028686961
1580420514.39119,0.00561532005798426,0.788342107270925,-0.655527580682078
1580420514.42324,0.00610360875867855,0.85963225757229,-0.602304112306401
1580420514.45529,0.0197756923781185,0.806897077897307,-0.564217593652247
1580420514.48734,-0.0163576714732585,0.813244831006333,-0.591561760891127
1580420514.51939,-0.0422369726100555,0.783459220263982,-0.530037384603647
1580420514.55144,-0.0422369726100555,0.78443579766537,-0.537361715114061
1580420514.58349,0.0129396505683985,0.785412375066759,-0.628183413443198
1580420514.61554,0.0349126420996413,0.785900663767453,-0.664316777294575
1580420514.64759,-0.0490730144197755,0.793224994277868,-0.549568932631418
1580420514.67964,-0.0197756923781185,0.754161898222325,-0.588632028686961
1580420514.71169,0.0559090562294955,0.852307927061876,-0.628671702143892
1580420514.74374,-0.0134279392690928,0.833752956435493,-0.611581597619592
1580420514.77579,-0.00903334096284425,0.824963759822996,-0.605722133211261
1580420514.80784,0.0139162279697871,0.841565575646602,-0.566170748455024
1580420514.83989,-0.0075684748607614,0.728282597085528,-0.628671702143892
1580420514.87194,-0.0168459601739528,0.86646829938201,-0.553963530937667
1580420514.90399,-0.067139696345464,0.803479056992447,-0.557869840543221
1580420514.93604,0.0192874036774242,0.839612420843824,-0.623788815136949
1580420514.96809,0.00170901045242999,0.807873655298696,-0.617929350728618
1580420515.00024,-0.0290531776913099,0.82203402761883,-0.592538338292515
1580420515.03229,0.0813000686655982,0.819592584115359,-0.665293354695963
1580420515.06434,-0.0231937132829785,0.761974517433433,-0.552986953536278
1580420515.0964,-0.0524910353246355,0.807385366598002,-0.634042877851529
1580420515.12845,-0.0363775082017241,0.814709697108416,-0.612069886320286
1580420515.1605,-0.00854505226214997,0.819104295414665,-0.640390630960555
1580420515.19255,-0.0207522697795071,0.841565575646602,-0.56226443884947
1580420515.2246,0.0104982070649271,0.799084458686199,-0.591561760891127
1580420515.25665,0.0256351567864499,0.752208743419548,-0.69800869764248
1580420515.2887,-0.0666514076447697,0.771252002746625,-0.580331120775158
1580420515.32075,-0.041260395208667,0.875745784695201,-0.551522087434195
1580420515.3528,-0.0187991149767299,0.884046692607004,-0.573495078965438
1580420515.38485,-0.0187991149767299,0.82545204852369,-0.623300526436255
1580420515.4169,-0.0490730144197755,0.776134889753568,-0.553475242236972
1580420515.44895,-0.0627450980392155,0.792736705577173,-0.550545510032807
1580420515.481,-0.0144045166704814,0.769787136644542,-0.661875333791103
1580420515.51305,-0.0217288471808956,0.784924086366065,-0.639902342259861
1580420515.5451,-0.0422369726100555,0.808850232700085,-0.50415808346685
1580420515.57715,-0.00512703135728998,0.819592584115359,-0.700450141145952
1580420515.60921,-0.0075684748607614,0.781506065461205,-0.631113145647364
1580420515.64126,-0.0153810940718699,0.809826810101473,-0.583749141680018
1580420515.67331,0.024170290684367,0.872327763790341,-0.610116731517509
1580420515.70536,-0.0397955291065841,0.797619592584116,-0.648203250171663
1580420515.73741,-0.0612802319371326,0.770275425345236,-0.598397802700847
1580420515.76946,-0.044678416113527,0.786877241168842,-0.554940108339055
1580420515.80151,-0.037842374303807,0.802014190890365,-0.556893263141832
1580420515.83356,-0.0588387884336612,0.748302433813993,-0.603768978408484
1580420515.86561,-0.0627450980392155,0.80494392309453,-0.647226672770275
1580420515.89766,-0.0974135957885096,0.797619592584116,-0.546639200427252
1580420515.92971,-0.044678416113527,0.82203402761883,-0.563729304951552
1580420515.96176,-0.0520027466239412,0.857190814068819,-0.630624856946669
1580420515.99381,0.0222171358815899,0.846936751354239,-0.696543831540398
1580420516.02586,-0.0266117341878385,0.817151140611887,-0.688242923628595
1580420516.05791,-0.0720225833524069,0.80836194399939,-0.572518501564049
1580420516.08996,-0.0813000686655982,0.731212329289693,-0.599374380102235
1580420516.12201,-0.0837415121690697,0.808850232700085,-0.622323949034866
1580420516.15407,-0.0666514076447697,0.807385366598002,-0.559822995345998
1580420516.18612,-0.0861829556725411,0.765392538338293,-0.567147325856412
1580420516.21817,-0.0896009765774011,0.792736705577173,-0.643808651865415
1580420516.25022,-0.0383306630045013,0.758556496528573,-0.681895170519569
1580420516.28232,-0.0495613031204698,0.823010605020219,-0.588143739986267
1580420516.31437,-0.0715342946517126,0.862561989776456,-0.615976195925841
1580420516.34642,-0.0471198596169984,0.867444876783399,-0.636972610055695
1580420516.37847,-0.0959487296864268,0.78443579766537,-0.521736476691844
1580420516.41052,-0.0798352025635154,0.670664530403602,-0.637460898756389
1580420516.44257,-0.0197756923781185,0.854749370565347,-0.611581597619592
1580420516.47462,-0.0485847257190812,0.733165484092471,-0.658457312886243
1580420516.50667,-0.070557717250324,0.803479056992447,-0.648203250171663
1580420516.53872,0.00366216525520713,0.80836194399939,-0.673594262607766
1580420516.57077,-0.0759288929579611,0.865491721980622,-0.553963530937667
1580420516.60282,-0.0832532234683754,0.80836194399939,-0.603280689707789
1580420516.63487,-0.0529793240253298,0.789318684672313,-0.590096894789044
1580420516.66692,-0.0725108720531011,0.776134889753568,-0.625253681239032
1580420516.69898,-0.0417486839093613,0.747814145113299,-0.574471656366827
1580420516.73103,-0.0593270771343555,0.815686274509805,-0.583260852979324
1580420516.76308,-0.0524910353246355,0.838147554741742,-0.604745555809872
1580420516.79513,-0.0495613031204698,0.773693446250096,-0.636972610055695
1580420516.82718,-0.0427252613107498,0.78443579766537,-0.574959945067521
1580420516.85923,-0.0549324788281069,0.82887006942855,-0.572518501564049
1580420516.89128,-0.0417486839093613,0.768810559243153,-0.613046463721675
1580420516.92333,-0.0554207675288012,0.826916914625773,-0.626230258640421
1580420516.95538,-0.0695811398489354,0.827405203326467,-0.584725719081407
1580420516.98743,-0.073975738155184,0.80836194399939,-0.611581597619592
1580420517.01948,-0.0837415121690697,0.795178149080645,-0.606698710612649
1580420517.05153,0.0187991149767299,0.790295262073702,-0.604257267109178
1580420517.08358,-0.0505378805218584,0.904554818036164,-0.610605020218204
1580420517.11563,-0.0153810940718699,0.813244831006333,-0.700938429846646
1580420517.14768,-0.0505378805218584,0.761486228732739,-0.649668116273746
1580420517.17973,-0.0725108720531011,0.789318684672313,-0.582772564278629
1580420517.21178,-0.041260395208667,0.811291676203556,-0.581795986877241
1580420517.24384,-0.070557717250324,0.738048371099413,-0.614511329823758
1580420517.27589,-0.10766765850309,0.718028534370948,-0.590096894789044
1580420517.30794,-0.0578622110322726,0.830334935530633,-0.585702296482795
1580420517.33999,-0.034424353398947,0.741954680704968,-0.620370794232089
1580420517.37204,-0.0578622110322726,0.875745784695201,-0.612558175020981
1580420517.40409,-0.0329594872968642,0.806897077897307,-0.622323949034866
1580420517.43614,-0.0896009765774011,0.737560082398719,-0.620859082932784
1580420517.46819,-0.0803234912642097,0.784924086366065,-0.643808651865415
1580420517.50024,-0.0568856336308841,0.833752956435493,-0.568123903257801
1580420517.53229,-0.0715342946517126,0.750743877317465,-0.612069886320286
1580420517.56436,-0.0261234454871442,0.85279621576257,-0.636484321355001
1580420517.59641,-0.0163576714732585,0.846936751354239,-0.704356450751506
1580420517.62846,-0.0822766460669868,0.795178149080645,-0.626718547341115
1580420517.66051,-0.0622568093385212,0.800549324788282,-0.579354543373769
1580420517.69256,-0.063721675440604,0.832776379034105,-0.639414053559166
1580420517.72461,-0.0700694285496297,0.81519798580911,-0.628671702143892
1580420517.75666,-0.0578622110322726,0.773693446250096,-0.587167162584878
1580420517.78871,-0.0720225833524069,0.783459220263982,-0.598886091401541
1580420517.82077,-0.041260395208667,0.799084458686199,-0.655527580682078
1580420517.85282,-0.0515144579232469,0.771252002746625,-0.597909514000152
1580420517.88487,-0.0754406042572668,0.812756542305639,-0.572518501564049
1580420517.91692,-0.0666514076447697,0.817639429312582,-0.618905928130006
1580420517.94897,-0.060303654535744,0.813244831006333,-0.622812237735561
1580420517.98102,-0.0612802319371326,0.741466392004273,-0.565194171053635
1580420518.01307,-0.0520027466239412,0.82545204852369,-0.681406881818875
1580420518.04512,-0.0759288929579611,0.764904249637599,-0.649668116273746
1580420518.07717,-0.0896009765774011,0.84937819485771,-0.601815823605707
1580420518.10922,-0.0749523155565726,0.829846646829939,-0.596444647898069
1580420518.14127,-0.00610360875867855,0.853284504463264,-0.668223086900129
1580420518.17332,-0.0407721065079727,0.803967345693142,-0.658945601586938
1580420518.20537,-0.0183108262760356,0.754161898222325,-0.642832074464026
1580420518.23742,-0.0427252613107498,0.841077286945907,-0.655039291981383
1580420518.26947,-0.0617685206378269,0.765880827038988,-0.54175631342031
1580420518.30152,-0.0949721522850382,0.737071793698025,-0.658945601586938
1580420518.33358,-0.0891126878767068,0.805920500495919,-0.615487907225146
1580420518.36563,-0.0822766460669868,0.732677195391776,-0.566170748455024
1580420518.39768,-0.0925307087815668,0.776134889753568,-0.622812237735561
1580420518.42973,-0.0388189517051956,0.838147554741742,-0.612558175020981
1580420518.46178,-0.0349126420996413,0.770275425345236,-0.658457312886243
1580420518.49383,-0.0534676127260241,0.79810788128481,-0.602792401007095
1580420518.52588,-0.070557717250324,0.788342107270925,-0.56910048065919
1580420518.55793,-0.0871595330739297,0.794201571679256,-0.679453727016098
1580420518.58998,-0.060303654535744,0.79810788128481,-0.598886091401541
1580420518.62203,-0.0524910353246355,0.799572747386893,-0.551033798733501
1580420518.65408,-0.0544441901274126,0.823987182421607,-0.715587090867475
1580420518.68613,0.0104982070649271,0.841565575646602,-0.656015869382772
1580420518.71818,-0.0876478217746239,0.78443579766537,-0.563729304951552
1580420518.75023,-0.0827649347676811,0.829358358129245,-0.595468070496681
1580420518.78228,-0.0544441901274126,0.849866483558404,-0.624277103837644
1580420518.81433,-0.0905775539787896,0.807385366598002,-0.622812237735561
1580420518.84625,-0.0798352025635154,0.713145647364005,-0.539314869916838
1580420518.8783,-0.0725108720531011,0.815686274509805,-0.583260852979324
1580420518.91035,-0.0524910353246355,0.81861600671397,-0.617929350728618
1580420518.9424,-0.0710460059510183,0.779064621957733,-0.603768978408484
1580420518.97445,-0.073975738155184,0.827405203326467,-0.565194171053635
1580420519.00651,-0.0695811398489354,0.796154726482033,-0.588143739986267
1580420519.03856,-0.0852063782711525,0.844495307850767,-0.651621271076523
1580420519.07061,-0.0866712443732354,0.78443579766537,-0.546150911726558
1580420519.10266,-0.133546959639887,0.822522316319525,-0.589608606088349
1580420519.13471,-0.0847180895704582,0.85621423666743,-0.626718547341115
1580420519.16676,-0.0354009308003356,0.837659266041047,-0.624765392538338
1580420519.19881,-0.0642099641412983,0.848889906157016,-0.634531166552224
1580420519.23086,-0.0490730144197755,0.852307927061876,-0.623788815136949
1580420519.26291,-0.0900892652780954,0.773693446250096,-0.649668116273746
1580420519.29496,-0.103761348897535,0.741954680704968,-0.512947280079347
1580420519.32701,-0.0988784618905925,0.790295262073702,-0.538826581216144
1580420519.35906,-0.11450370031281,0.745372701609828,-0.635996032654306
1580420519.39111,-0.0949721522850382,0.748302433813993,-0.583749141680018
1580420519.42316,-0.0896009765774011,0.81177996490425,-0.557869840543221
1580420519.45521,-0.0710460059510183,0.889417868314641,-0.604745555809872
1580420519.48726,-0.0959487296864268,0.80494392309453,-0.643808651865415
1580420519.51932,-0.0690928511482412,0.762462806134128,-0.622812237735561
1580420519.55136,-0.0803234912642097,0.852307927061876,-0.589608606088349
1580420519.58342,-0.0900892652780954,0.810803387502862,-0.649668116273746
1580420519.61547,-0.0534676127260241,0.802014190890365,-0.672617685206378
1580420519.64752,-0.0676279850461583,0.858655680170902,-0.570077058060578
1580420519.67957,-0.0729991607537954,0.842053864347296,-0.599374380102235
1580420519.71162,-0.0822766460669868,0.853772793163959,-0.624765392538338
1580420519.74367,-0.0832532234683754,0.734142061493859,-0.659433890287632
1580420519.77572,-0.0891126878767068,0.824963759822996,-0.56568245975433
1580420519.80777,-0.133058670939192,0.78443579766537,-0.549568932631418
1580420519.83982,-0.0944838635843439,0.791760128175785,-0.584237430380712
1580420519.87187,-0.107179369802395,0.724864576180668,-0.587167162584878
1580420519.90392,-0.096437018387121,0.821057450217442,-0.607675288014038
1580420519.93597,-0.101319905394064,0.79810788128481,-0.598886091401541
1580420519.96802,-0.0866712443732354,0.823498893720913,-0.587167162584878
1580420520.00007,-0.096437018387121,0.785900663767453,-0.590585183489738
1580420520.03212,-0.0871595330739297,0.824963759822996,-0.629159990844586
1580420520.06417,-0.114991989013504,0.745860990310522,-0.55542839703975
1580420520.09623,-0.0749523155565726,0.791760128175785,-0.576424811169604
1580420520.12842,-0.0871595330739297,0.844495307850767,-0.593514915693904
1580420520.16047,-0.113527122911421,0.812756542305639,-0.592050049591821
1580420520.19252,-0.0769054703593497,0.790295262073702,-0.608651865415426
1580420520.22457,-0.0373540856031127,0.892835889219501,-0.664316777294575
1580420520.25662,-0.0451667048142212,0.912855725947967,-0.623788815136949
1580420520.28867,-0.10424963759823,0.806408789196613,-0.609628442816815
1580420520.32072,-0.0710460059510183,0.684824902723737,-0.551522087434195
1580420520.35277,-0.132082093537804,0.773693446250096,-0.600839246204318
1580420520.38482,-0.127199206530861,0.756603341725796,-0.577401388570992
1580420520.41687,-0.122316319523918,0.761974517433433,-0.560311284046692
1580420520.44892,-0.124269474326695,0.858655680170902,-0.592050049591821
1580420520.48097,-0.0534676127260241,0.831311512932022,-0.613046463721675
1580420520.51303,-0.116945143816281,0.748302433813993,-0.598397802700847
1580420520.54508,-0.126710917830167,0.785900663767453,-0.617929350728618
1580420520.57713,-0.0788586251621268,0.861097123674373,-0.606698710612649
1580420520.60918,-0.103273060196841,0.851331349660487,-0.647714961470969
1580420520.64123,-0.0856946669718468,0.837170977340353,-0.615487907225146
1580420520.67328,-0.0529793240253298,0.820569161516747,-0.682871747920958
1580420520.70533,-0.144289311055161,0.758556496528573,-0.583260852979324
1580420520.73738,-0.134523537041275,0.797131303883422,-0.585702296482795
1580420520.76943,-0.0856946669718468,0.835217822537576,-0.6877546349279
1580420520.80148,-0.142824444953078,0.813733119707027,-0.516365300984207
1580420520.83353,-0.123292896925307,0.782482642862593,-0.607675288014038
1580420520.86558,-0.0231937132829785,0.846448462653544,-0.699961852445258
1580420520.89763,-0.0832532234683754,0.81177996490425,-0.628183413443198
1580420520.92968,-0.112062256809338,0.778576333257039,-0.613046463721675
1580420520.96173,-0.063721675440604,0.844007019150073,-0.539803158617532
1580420520.99378,-0.0524910353246355,0.832776379034105,-0.608163576714732
1580420521.02584,-0.0803234912642097,0.728770885786222,-0.627206836041809
1580420521.05788,-0.156984817273212,0.799572747386893,-0.535408560311284
1580420521.08994,-0.123292896925307,0.818127718013276,-0.531013962005035
1580420521.12199,-0.0529793240253298,0.799084458686199,-0.622323949034866
1580420521.15404,-0.0505378805218584,0.846936751354239,-0.571053635461967
1580420521.18609,-0.129640650034332,0.707774471656368,-0.440192263675899
1580420521.21814,-0.135988403143358,0.744396124208439,-0.654551003280689
1580420521.25019,-0.0183108262760356,0.838147554741742,-0.675059128709849
1580420521.28224,-0.0456549935149155,0.811291676203556,-0.659433890287632
1580420521.31429,-0.0891126878767068,0.847913328755627,-0.537361715114061
1580420521.34634,-0.0485847257190812,0.847913328755627,-0.632089723048752
1580420521.37839,-0.0861829556725411,0.739513237201496,-0.645273517967498
1580420521.4104,-0.128664072632944,0.785412375066759,-0.590096894789044
1580420521.44245,-0.121828030823224,0.801037613488976,-0.453376058594644
1580420521.4745,-0.119874876020447,0.80152590218967,-0.639414053559166
1580420521.50655,-0.0979018844892039,0.816662851911193,-0.622812237735561
1580420521.5386,-0.108644235904478,0.772228580148013,-0.656504158083466
1580420521.57065,-0.0661631189440754,0.82203402761883,-0.589608606088349
1580420521.6027,-0.0588387884336612,0.855237659266042,-0.609628442816815
1580420521.63475,-0.115480277714198,0.818127718013276,-0.584725719081407
1580420521.66681,-0.0930189974822611,0.868909742885482,-0.629159990844586
1580420521.69886,-0.0788586251621268,0.85279621576257,-0.579842832074464
1580420521.73091,-0.128175783932249,0.825940337224385,-0.588143739986267
1580420521.76296,-0.105226214999618,0.81177996490425,-0.605722133211261
1580420521.79501,-0.0861829556725411,0.780529488059816,-0.614999618524452
1580420521.82706,-0.0915541313801782,0.827405203326467,-0.612558175020981
1580420521.85911,-0.0852063782711525,0.828381780727856,-0.513435568780041
1580420521.89116,-0.107179369802395,0.792736705577173,-0.563729304951552
1580420521.92321,-0.096437018387121,0.802990768291753,-0.603768978408484
1580420521.95526,-0.103761348897535,0.790783550774396,-0.559822995345998
1580420521.98731,-0.135011825741969,0.820080872816053,-0.531013962005035
1580420522.01936,-0.118410009918364,0.796154726482033,-0.567147325856412
1580420522.05141,-0.0842298008697639,0.824963759822996,-0.635507743953612
1580420522.08346,-0.101319905394064,0.821057450217442,-0.543709468223087
1580420522.11551,-0.164797436484321,0.785900663767453,-0.50757610437171
1580420522.14756,-0.0837415121690697,0.836682688639659,-0.632578011749446
1580420522.17962,-0.0124513618677042,0.84937819485771,-0.669687953002212
1580420522.21166,-0.0466315709163041,0.843030441748684,-0.616952773327229
1580420522.24372,-0.127687495231555,0.802990768291753,-0.52124818799115
1580420522.27577,-0.150148775463492,0.781506065461205,-0.523201342793927
1580420522.30782,-0.102296482795452,0.78785381857023,-0.558358129243915
1580420522.33987,-0.0646982528419926,0.83912413214313,-0.583749141680018
1580420522.37192,-0.0588387884336612,0.831799801632716,-0.550057221332112
1580420522.40397,-0.118410009918364,0.785900663767453,-0.703868162050812
1580420522.43602,-0.123781185626001,0.717540245670254,-0.629159990844586
1580420522.46807,-0.0451667048142212,0.861585412375067,-0.577889677271687
1580420522.50012,-0.0700694285496297,0.86646829938201,-0.567635614557107
1580420522.53217,-0.0993667505912867,0.813733119707027,-0.519295033188373
1580420522.56422,-0.0622568093385212,0.825940337224385,-0.644785229266803
1580420522.59627,-0.111573968108644,0.786388952468148,-0.585702296482795
1580420522.62832,-0.0856946669718468,0.847425040054933,-0.601815823605707
1580420522.66037,-0.0607919432364383,0.83228809033341,-0.579842832074464
1580420522.69257,-0.0905775539787896,0.805920500495919,-0.54517433432517
1580420522.72462,-0.0915541313801782,0.805432211795225,-0.599862668802929
1580420522.75667,-0.127199206530861,0.80836194399939,-0.571053635461967
1580420522.78872,-0.134035248340581,0.833264667734799,-0.553963530937667
1580420522.82077,-0.0979018844892039,0.843518730449379,-0.561287861448081
1580420522.85282,-0.0432135500114441,0.794201571679256,-0.594979781795987
1580420522.88487,-0.103273060196841,0.81861600671397,-0.559822995345998
1580420522.91692,-0.105714503700312,0.773693446250096,-0.565194171053635
1580420522.94897,-0.134523537041275,0.886488136110476,-0.641367208361943
1580420522.98102,-0.110109102006561,0.805920500495919,-0.599374380102235
1580420523.01308,-0.0949721522850382,0.759533073929962,-0.582772564278629
1580420523.04513,-0.0891126878767068,0.846936751354239,-0.587655451285572
1580420523.07718,-0.044678416113527,0.859143968871596,-0.639902342259861
1580420523.10923,-0.0476081483176927,0.824475471122302,-0.652597848477912
1580420523.14128,-0.102296482795452,0.745860990310522,-0.583260852979324
1580420523.17333,-0.0905775539787896,0.789318684672313,-0.567635614557107
1580420523.20538,-0.0944838635843439,0.848889906157016,-0.602792401007095
1580420523.23743,-0.0852063782711525,0.730235751888305,-0.619882505531395
1580420523.26948,-0.148683909361409,0.78785381857023,-0.578377965972381
1580420523.30154,-0.112062256809338,0.796154726482033,-0.565194171053635
1580420523.33359,-0.0729991607537954,0.858655680170902,-0.577889677271687
1580420523.36564,-0.073975738155184,0.759533073929962,-0.589608606088349
1580420523.39769,-0.150148775463492,0.88014038300145,-0.518318455786984
1580420523.42974,-0.11108567940795,0.766857404440376,-0.595468070496681
1580420523.46179,-0.126710917830167,0.778576333257039,-0.643320363164721
1580420523.49384,-0.141359578850995,0.882093537804227,-0.527107652399481
1580420523.52589,0.0173342488746471,0.864515144579233,-0.642343785763332
1580420523.55795,-0.0305180437933927,0.812756542305639,-0.669687953002212
1580420523.59,-0.115968566414892,0.774670023651485,-0.659433890287632
1580420523.62205,-0.096437018387121,0.821545738918136,-0.521736476691844
1580420523.6541,-0.163820859082932,0.816662851911193,-0.488044556343938
1580420523.68615,-0.119874876020447,0.805432211795225,-0.560311284046692
1580420523.7182,-0.0910658426794839,0.819104295414665,-0.651132982375829
1580420523.75025,-0.0905775539787896,0.789806973373008,-0.593514915693904
1580420523.7823,-0.134523537041275,0.779552910658428,-0.602792401007095
1580420523.81435,-0.142824444953078,0.847913328755627,-0.550057221332112
1580420523.84641,-0.0456549935149155,0.786877241168842,-0.668223086900129
1580420523.87846,-0.0505378805218584,0.82203402761883,-0.643320363164721
1580420523.91051,-0.103273060196841,0.825940337224385,-0.554940108339055
1580420523.94256,-0.143801022354467,0.870374608987564,-0.488044556343938
1580420523.97458,-0.187747005416952,0.759044785229268,-0.498786907759213
1580420524.00663,-0.101808194094758,0.735118638895248,-0.692149233234149
1580420524.03868,-0.0793469138628211,0.823498893720913,-0.600350957503624
1580420524.07073,-0.157961394674601,0.761486228732739,-0.565194171053635
1580420524.10278,-0.101319905394064,0.855725947966736,-0.581795986877241
1580420524.13483,-0.0813000686655982,0.873792629892424,-0.645273517967498
1580420524.16688,-0.0319829098954756,0.878675516899367,-0.705333028152895
1580420524.19894,-0.0695811398489354,0.869398031586176,-0.558358129243915
1580420524.23099,-0.114015411612115,0.778088044556345,-0.605722133211261
1580420524.26304,-0.111573968108644,0.786877241168842,-0.556893263141832
1580420524.29509,-0.0744640268558783,0.809826810101473,-0.677012283512626
1580420524.32714,-0.0842298008697639,0.758556496528573,-0.519295033188373
1580420524.35919,-0.132082093537804,0.76734569314107,-0.574471656366827
1580420524.39124,-0.0949721522850382,0.744884412909133,-0.587655451285572
1580420524.42329,-0.137941557946135,0.745372701609828,-0.596932936598764
1580420524.45534,-0.136964980544747,0.855725947966736,-0.518318455786984
1580420524.4874,-0.136964980544747,0.842053864347296,-0.595468070496681
1580420524.51945,-0.0900892652780954,0.78785381857023,-0.674570840009155
1580420524.5515,-0.0725108720531011,0.790295262073702,-0.595956359197375
1580420524.58355,-0.108155947203784,0.88697642481117,-0.603280689707789
1580420524.6156,-0.125734340428778,0.907972838941024,-0.506599526970321
1580420524.64765,-0.0852063782711525,0.877698939497979,-0.631113145647364
1580420524.6797,-0.0646982528419926,0.805432211795225,-0.635996032654306
1580420524.71175,-0.0676279850461583,0.788342107270925,-0.647226672770275
1580420524.7438,-0.147219043259327,0.746349279011216,-0.570565346761272
1580420524.77586,-0.193118181124589,0.743419546807051,-0.530525673304341
1580420524.80791,-0.125734340428778,0.843518730449379,-0.598397802700847
1580420524.83996,-0.0832532234683754,0.85621423666743,-0.563729304951552
1580420524.87201,-0.152590218966964,0.752697032120242,-0.561287861448081
1580420524.90406,-0.0700694285496297,0.785412375066759,-0.656504158083466
1580420524.93611,-0.0622568093385212,0.790295262073702,-0.587655451285572
1580420524.96816,-0.108644235904478,0.820569161516747,-0.669199664301518
1580420525.00021,-0.0959487296864268,0.867933165484093,-0.590096894789044
1580420525.03226,-0.0837415121690697,0.795178149080645,-0.594979781795987
1580420525.06431,-0.0500495918211641,0.80494392309453,-0.649179827573052
1580420525.09637,-0.0632333867399097,0.764904249637599,-0.693125810635538
1580420525.12842,-0.108155947203784,0.773205157549402,-0.567635614557107
1580420525.16047,-0.0852063782711525,0.759533073929962,-0.614511329823758
1580420525.19252,-0.118410009918364,0.760509651331351,-0.566170748455024
1580420525.22457,-0.145754177157244,0.810803387502862,-0.536873426413367
1580420525.25674,-0.113038834210727,0.831311512932022,-0.646250095368886
1580420525.2888,-0.133546959639887,0.833264667734799,-0.608163576714732
1580420525.32085,-0.118410009918364,0.805432211795225,-0.582284275577935
1580420525.3529,-0.00366216525520713,0.833264667734799,-0.620370794232089
1580420525.38495,-0.0695811398489354,0.824963759822996,-0.659922178988326
1580420525.417,-0.126222629129472,0.785900663767453,-0.586190585183489
1580420525.44905,-0.108644235904478,0.762951094834822,-0.588632028686961
1580420525.4811,-0.0920424200808725,0.78101777676051,-0.610116731517509
1580420525.51316,-0.154543373769741,0.776134889753568,-0.571053635461967
1580420525.54521,-0.139894712748912,0.792736705577173,-0.559822995345998
1580420525.57726,-0.118898298619058,0.805920500495919,-0.572518501564049
1580420525.60931,-0.123781185626001,0.77076371404593,-0.644785229266803
1580420525.64136,-0.119874876020447,0.840100709544519,-0.595956359197375
1580420525.67341,-0.0715342946517126,0.780041199359122,-0.639414053559166
1580420525.70547,-0.0627450980392155,0.800549324788282,-0.612069886320286
1580420525.73752,-0.0930189974822611,0.768810559243153,-0.636484321355001
1580420525.76957,-0.0832532234683754,0.804455634393836,-0.663340199893186
1580420525.80162,-0.0925307087815668,0.792248416876479,-0.619394216830701
1580420525.83367,-0.111573968108644,0.823987182421607,-0.608163576714732
1580420525.86572,-0.0832532234683754,0.77759975585565,-0.668711375600823
1580420525.89777,-0.0256351567864499,0.790295262073702,-0.679942015716792
1580420525.92983,-0.0930189974822611,0.790783550774396,-0.607675288014038
1580420525.96188,-0.0896009765774011,0.797619592584116,-0.627695124742504
1580420525.99393,-0.0866712443732354,0.778088044556345,-0.620370794232089
1580420526.02598,-0.0944838635843439,0.770275425345236,-0.620370794232089
1580420526.05803,-0.117433432516975,0.726817730983445,-0.576424811169604
1580420526.09009,-0.113038834210727,0.787365529869536,-0.571541924162661
1580420526.12214,-0.0891126878767068,0.81177996490425,-0.663828488593881
1580420526.15419,-0.10766765850309,0.846448462653544,-0.615976195925841
1580420526.18624,-0.138918135347524,0.837659266041047,-0.572030212863355
1580420526.21829,-0.102296482795452,0.804455634393836,-0.588143739986267
1580420526.25034,-0.0422369726100555,0.794201571679256,-0.670664530403601
1580420526.28239,-0.0383306630045013,0.847913328755627,-0.652597848477912
1580420526.31445,-0.0900892652780954,0.816174563210499,-0.539314869916838
1580420526.3465,-0.101319905394064,0.806408789196613,-0.602304112306401
1580420526.37855,-0.0993667505912867,0.729747463187611,-0.637460898756389
1580420526.4106,-0.135988403143358,0.819592584115359,-0.530037384603647
1580420526.44265,-0.242923628595406,0.686289768825819,-0.48023193713283
1580420526.4747,-0.138429846646829,0.793224994277868,-0.625253681239032
1580420526.50675,-0.0153810940718699,0.872816052491036,-0.623788815136949
1580420526.53873,-0.108155947203784,0.764415960936905,-0.647226672770275
1580420526.57078,-0.115480277714198,0.730235751888305,-0.68433661402304
1580420526.60283,-0.0900892652780954,0.763439383535516,-0.625253681239032
1580420526.63488,-0.123292896925307,0.850843060959793,-0.53150225070573
1580420526.66693,-0.0993667505912867,0.82887006942855,-0.7048447394522
1580420526.69898,-0.0588387884336612,0.820080872816053,-0.673105973907072
1580420526.73103,-0.0983901731898982,0.743907835507745,-0.642343785763332
1580420526.76308,-0.114991989013504,0.761486228732739,-0.587167162584878
1580420526.79514,-0.126222629129472,0.702403295948731,-0.655039291981383
1580420526.82719,-0.163820859082932,0.756115053025102,-0.593514915693904
1580420526.85924,-0.197024490730143,0.745372701609828,-0.535896849011978
1580420526.89129,-0.224368657969023,0.781506065461205,-0.499275196459907
1580420526.92334,-0.096437018387121,0.765392538338293,-0.713633936064697
1580420526.95539,-0.119386587319752,0.716075379568171,-0.653086137178606
1580420526.98744,-0.241458762493323,0.733165484092471,-0.513923857480735
1580420527.01949,-0.219974059662775,0.757579919127185,-0.593514915693904
1580420527.05154,-0.164797436484321,0.744884412909133,-0.671152819104295
1580420527.0836,-0.195559624628061,0.659922178988328,-0.575936522468909
1580420527.11565,-0.300541695277333,0.735118638895248,-0.474372472724498
1580420527.1477,-0.361577782864119,0.678477149614711,-0.450446326390479
1580420527.17975,-0.409918364232853,0.571053635461968,-0.580331120775158
1580420527.2118,-0.436285954070344,0.536385137712674,-0.575936522468909
1580420527.24385,-0.50074006256199,0.596444647898071,-0.527107652399481
1580420527.2759,-0.632578011749446,0.532967116807814,-0.537361715114061
1580420527.30795,-0.676035706111238,0.51538872358282,-0.56910048065919
1580420527.34,-0.636972610055695,0.634042877851531,-0.595468070496681
1580420527.37205,-0.71851682307164,0.659922178988328,-0.599862668802929
1580420527.40411,-0.77076371404593,0.653574425879302,-0.56910048065919
1580420527.43616,-0.800549324788282,0.616952773327231,-0.579354543373769
1580420527.46821,-0.802014190890365,0.613046463721677,-0.530525673304341
1580420527.50026,-0.908949416342413,0.484138246738382,-0.587167162584878
1580420527.53231,-0.976333257038224,0.447516594186311,-0.495368886854353
1580420527.56436,-0.978286411841001,0.42456702525368,-0.344487678339819
1580420527.59641,-0.873792629892424,0.613534752422371,-0.434332799267567
1580420527.62846,-0.852307927061876,0.506111238269629,-0.54175631342031
1580420527.66051,-0.861585412375067,0.422613870450903,-0.598397802700847
1580420527.69257,-0.845471885252156,0.480231937132828,-0.32642099641413
1580420527.72462,-0.867933165484093,0.430426489662011,-0.325444419012742
1580420527.75667,-0.90748455024033,0.304448004882886,-0.347905699244679
1580420527.78872,-0.882581826504921,0.345464255741206,-0.367925535973145
1580420527.82083,-0.838147554741742,0.40064087891966,-0.263920042725262
1580420527.85288,-0.901625085831999,0.354741741054397,-0.182375829709315
1580420527.88493,-1.00123598077363,0.319584954604409,-0.137453269245441
1580420527.91698,-0.968032349126421,0.27417410543984,-0.224368657969023
1580420527.94903,-0.899671931029221,0.343999389639123,-0.262455176623179
1580420527.98109,-0.968032349126421,0.295170519569695,-0.067139696345464
1580420528.01314,-1.02809185931182,0.192141603723201,-0.0148928053711757
1580420528.04519,-0.90406652933547,0.348882276646066,-0.189211871519035
1580420528.07724,-0.886488136110476,0.281986724650949,-0.194583047226672
1580420528.10929,-0.958266575112535,0.313237201495383,-0.238040741588463
1580420528.14134,-0.999282825970855,0.304448004882886,-0.0930189974822611
1580420528.17339,-0.95533684290837,0.313237201495383,-0.198001068131532
1580420528.20544,-0.920180056458381,0.343511100938429,-0.217532616159303
1580420528.23749,-0.918715190356298,0.314702067597466,-0.197512779430838
1580420528.26955,-0.946059357595178,0.323491264209963,-0.157473105973907
1580420528.3016,-0.912855725947967,0.327397573815517,-0.204837109941252
1580420528.33365,-0.961684596017395,0.314702067597466,-0.161867704280155
1580420528.3657,-1.00025940337224,0.277103837644006,-0.165774013885709
1580420528.39775,-0.92457465476463,0.350347142748149,-0.209231708247501
1580420528.4298,-0.957289997711147,0.28101014724956,-0.103273060196841
1580420528.46185,-1.08278019378958,0.194583047226672,-0.0505378805218584
1580420528.4939,-1.00514229037919,0.326909285114823,-0.201419089036392
1580420528.52595,-0.879652094300756,0.417242694743265,-0.193118181124589
1580420528.55801,-0.95191882200351,0.2434119172961,-0.179934386205844
1580420528.59006,-0.94508278019379,0.175539787899595,-0.218509193560692
1580420528.62211,-0.907972838941024,0.212649729152361,-0.191653315022506
1580420528.65416,-0.936293583581293,0.306889448386357,-0.138918135347524
1580420528.68621,-0.966079194323644,0.346929121843289,-0.132082093537804
1580420528.71826,-0.947035934996567,0.32202639810788,-0.201419089036392
1580420528.75031,-0.966079194323644,0.218997482261386,-0.177981231403066
1580420528.78236,-0.994399938963912,0.118898298619058,-0.173586633096818
1580420528.81441,-0.992446784161135,0.110597390707255,-0.184817273212786
1580420528.84647,-0.978286411841001,0.183840695811398,-0.161867704280155
1580420528.87852,-0.976333257038224,0.2605020218204,-0.144289311055161
1580420528.91057,-0.95533684290837,0.304448004882886,-0.194094758525978
1580420528.94262,-0.963637750820173,0.266361486228732,-0.225345235370412
1580420528.97467,-0.944594491493095,0.237064164187075,-0.237552452887769
1580420529.00672,-0.936293583581293,0.265384908827343,-0.225833524071106
1580420529.03877,-0.942153047989624,0.284916456855115,-0.244388494697489
1580420529.07082,-0.953871976806287,0.296147096971083,-0.194094758525978
1580420529.10284,-0.952407110704204,0.255619134813458,-0.214114595254443
1580420529.13489,-0.94850080109865,0.213626306553749,-0.227298390173189
1580420529.16695,-0.970473792629893,0.216556038757915,-0.226810101472495
1580420529.199,-0.958266575112535,0.25024795910582,-0.23315785458152
1580420529.23105,-0.973891813534753,0.226810101472495,-0.201907377737086
1580420529.2631,-0.969497215228504,0.216067750057221,-0.213626306553749
1580420529.29515,-0.953871976806287,0.235599298084992,-0.220950637064163
1580420529.3272,-0.964614328221561,0.257572289616235,-0.225345235370412
1580420529.35925,-0.960708018616007,0.260990310521095,-0.234134431982909
1580420529.3913,-0.946547646295873,0.258060578316929,-0.210208285648889
1580420529.42335,-0.967544060425727,0.227298390173189,-0.209231708247501
1580420529.45541,-0.966079194323644,0.198489356832226,-0.211184863050278
1580420529.48746,-0.96559090562295,0.222415503166246,-0.201419089036392
1580420529.51951,-0.96900892652781,0.23657587548638,-0.215091172655832
1580420529.55156,-0.966079194323644,0.240970473792629,-0.192141603723201
1580420529.58361,-0.960708018616007,0.230228122377355,-0.207766842145418
1580420529.61566,-0.978774700541695,0.209719996948195,-0.189700160219729
1580420529.64771,-0.971450370031281,0.228763256275272,-0.188235294117646
1580420529.67976,-0.964614328221561,0.235599298084992,-0.189700160219729
1580420529.71181,-0.97584496833753,0.213626306553749,-0.180422674906538
1580420529.74387,-0.993911650263218,0.187258716716258,-0.149172198062104
1580420529.77592,-0.977309834439613,0.204837109941252,-0.166262302586404
1580420529.80797,-0.979751277943084,0.198977645532921,-0.180422674906538
1580420529.84002,-0.976821545738918,0.202883955138475,-0.188723582818341
1580420529.87207,-0.952895399404898,0.236087586785686,-0.196047913328755
1580420529.90412,-0.963637750820173,0.229739833676661,-0.179934386205844
1580420529.93617,-0.963149462119478,0.226810101472495,-0.200442511635003
1580420529.96822,-0.976333257038224,0.202395666437781,-0.173098344396124
1580420530.00027,-0.983657587548638,0.182864118410009,-0.184817273212786
1580420530.03233,-0.976821545738918,0.212649729152361,-0.162355992980849
1580420530.06438,-0.962661173418784,0.220462348363469,-0.157473105973907
1580420530.09643,-0.985610742351415,0.216556038757915,-0.167727168688486
1580420530.12848,-0.988540474555581,0.223392080567635,-0.153078507667658
1580420530.16053,-0.96900892652781,0.273685816739146,-0.169192034790569
1580420530.19258,-0.956801709010453,0.30835431448844,-0.196536202029449
1580420530.22463,-0.949965667200733,0.267826352330815,-0.201419089036392
1580420530.25668,-0.953871976806287,0.240482185091935,-0.165774013885709
1580420530.28873,-0.968032349126421,0.234134431982909,-0.179446097505149
1580420530.32079,-0.964614328221561,0.240970473792629,-0.179934386205844
1580420530.35284,-0.942641336690318,0.25024795910582,-0.170168612191958
1580420530.38492,-0.98951705195697,0.228274967574578,-0.159426260776684
1580420530.41697,-0.970962081330587,0.213626306553749,-0.153078507667658
1580420530.44902,-0.961196307316701,0.265873197528038,-0.135988403143358
1580420530.48107,-0.970962081330587,0.244876783398183,-0.150148775463492
1580420530.51312,-0.98268101014725,0.219974059662775,-0.181399252307926
1580420530.54517,-0.967055771725033,0.207766842145418,-0.177492942702372
1580420530.57722,-0.975356679636835,0.199954222934309,-0.184817273212786
1580420530.60927,-0.964614328221561,0.200930800335698,-0.194583047226672
1580420530.64133,-0.97584496833753,0.219485770962081,-0.179446097505149
1580420530.67338,-0.978286411841001,0.207278553444723,-0.199954222934309
1580420530.70543,-0.959731441214618,0.203372243839169,-0.186770428015564
1580420530.73748,-0.967055771725033,0.176516365300984,-0.188723582818341
1580420530.76953,-0.967055771725033,0.178469520103761,-0.204348821240558
1580420530.80158,-0.967055771725033,0.203860532539863,-0.196047913328755
1580420530.83363,-0.947524223697261,0.213626306553749,-0.190676737621118
1580420530.86568,-0.97926298924239,0.213626306553749,-0.210208285648889
1580420530.89773,-1.00123598077363,0.27417410543984,-0.172121766994735
1580420530.92979,-0.981704432745861,0.308842603189134,-0.192141603723201
1580420530.96184,-0.931898985275044,0.256595712214846,-0.261966887922485
1580420530.99389,-0.953871976806287,0.265873197528038,-0.224856946669718
1580420531.02594,-0.96217288471809,0.276127260242617,-0.244876783398183
1580420531.05799,-0.947035934996567,0.237064164187075,-0.262943465323874
1580420531.09004,-0.937270160982681,0.223392080567635,-0.253665980010682
1580420531.12209,-0.952407110704204,0.225833524071106,-0.2434119172961
1580420531.15414,-0.930434119172961,0.231204699778743,-0.235599298084992
1580420531.18619,-0.938735027084764,0.255619134813458,-0.240970473792629
1580420531.21825,-0.944106202792401,0.287357900358586,-0.237064164187075
1580420531.2503,-0.916762035553521,0.35962462806134,-0.298588540474556
1580420531.28235,-0.87330434119173,0.354253452353703,-0.259037155718319
1580420531.3144,-0.927016098268101,0.281986724650949,-0.179446097505149
1580420531.34645,-0.966567483024338,0.245853360799572,-0.193606469825284
1580420531.3785,-0.97584496833753,0.300053406576637,-0.145265888456549
1580420531.41055,-0.984634164950027,0.303471427481497,-0.161379415579461
1580420531.4426,-1.07594415197986,0.243900205996795,-0.12133974212253
1580420531.47465,-0.929457541771573,0.321538109407186,-0.124269474326695
1580420531.50671,-0.928969253070878,0.453376058594642,-0.225833524071106
1580420531.53876,-0.909925993743801,0.255130846112763,-0.205813687342641
1580420531.57081,-1.02565041580835,0.342046234836346,-0.207766842145418
1580420531.60286,-0.980727855344472,0.254154268711375,-0.169192034790569
1580420531.63491,-0.869398031586176,0.437750820172425,-0.210696574349583
1580420531.66699,-0.932875562676433,0.279545281147477,-0.136964980544747
1580420531.69904,-0.952895399404898,0.220462348363469,-0.223392080567635
1580420531.73109,-0.929457541771573,0.25024795910582,-0.282475013351645
1580420531.76314,-0.951430533302815,0.285893034256503,-0.195559624628061
1580420531.7952,-0.93141069657435,0.307377737087052,-0.221927214465552
1580420531.82725,-0.921644922560464,0.316166933699549,-0.145754177157244
1580420531.8593,-0.910414282444496,0.321049820706492,-0.157961394674601
1580420531.89135,-0.944594491493095,0.274662394140535,-0.216067750057221
1580420531.9234,-0.956801709010453,0.220462348363469,-0.221438925764858
1580420531.95545,-0.972915236133364,0.166750591287098,-0.190676737621118
1580420531.9875,-0.999282825970855,0.198489356832226,-0.163332570382238
1580420532.01955,-0.983657587548638,0.23657587548638,-0.170168612191958
1580420532.0516,-0.971938658731975,0.278080415045395,-0.147219043259327
1580420532.08366,-0.964126039520867,0.269779507133592,-0.148195620660715
1580420532.11571,-0.967055771725033,0.228763256275272,-0.210208285648889
1580420532.14776,-0.95533684290837,0.190188448920424,-0.200442511635003
1580420532.17981,-0.952895399404898,0.210208285648889,-0.199954222934309
1580420532.21186,-0.916762035553521,0.252201113908598,-0.244388494697489
1580420532.24391,-0.931898985275044,0.265384908827343,-0.189700160219729
1580420532.27596,-0.955825131609064,0.216556038757915,-0.196536202029449
1580420532.30801,-1.02027924010071,0.185305561913481,-0.253665980010682
1580420532.34007,-0.977309834439613,0.241458762493323,-0.263431754024568
1580420532.37212,-0.984634164950027,0.261966887922483,-0.177492942702372
1580420532.40417,-0.992446784161135,0.248783093003738,-0.194583047226672
1580420532.43622,-1.00856031128405,0.191653315022506,-0.164309147783626
1580420532.46827,-0.995864805065995,0.147707331960021,-0.224368657969023
1580420532.50032,-0.994399938963912,0.148683909361409,-0.221438925764858
1580420532.53237,-0.997329671168078,0.194094758525978,-0.182375829709315
1580420532.56442,-0.97584496833753,0.233646143282215,-0.175539787899595
1580420532.59647,-0.969985503929198,0.231204699778743,-0.183840695811398
1580420532.62852,-0.942641336690318,0.255619134813458,-0.178469520103761
1580420532.66057,-0.939711604486153,0.204837109941252,-0.257084000915542
1580420532.69263,-0.93482871747921,0.177004654001678,-0.241947051194018
1580420532.72468,-1.00172426947433,0.170656900892652,-0.174563210498206
1580420532.75673,-0.996841382467384,0.140871290150301,-0.174074921797512
1580420532.78878,-0.97584496833753,0.140383001449607,-0.132082093537804
1580420532.82083,-0.983657587548638,0.135988403143358,-0.122804608224612
1580420532.85288,-0.985610742351415,0.0944838635843439,-0.161867704280155
1580420532.88493,-0.991470206759747,0.138429846646829,-0.152590218966964
1580420532.91698,-1.00514229037919,0.130128938735027,-0.133546959639887
1580420532.94907,-0.987075608453498,0.143801022354467,-0.127687495231555
1580420532.98112,-0.991470206759747,0.139894712748912,-0.125246051728084
1580420533.01317,-1.00807202258335,0.137941557946135,-0.111573968108644
1580420533.04522,-0.997817959868772,0.149172198062104,-0.0832532234683754
1580420533.07727,-0.977309834439613,0.158937972075989,-0.101319905394064
1580420533.10932,-0.969985503929198,0.120851453421835,-0.123292896925307
1580420533.14137,-1.03150988021668,0.0813000686655982,-0.113038834210727
1580420533.17342,-0.998794537270161,0.0759288929579611,-0.0759288929579611
1580420533.20547,-0.993423361562524,0.0754406042572668,-0.0554207675288012
1580420533.23753,-1.01344319829099,0.0827649347676811,-0.00366216525520713
1580420533.26958,-1.01393148699168,0.0803234912642097,0.0109864957656214
1580420533.30163,-1.00270084687572,0.10083161669337,-0.0358892195010299
1580420533.33368,-0.990981918059052,0.110109102006561,-0.0549324788281069
1580420533.36573,-1.0129549095903,0.126222629129472,-0.0432135500114441
1580420533.39778,-1.00904859998474,0.152101930266269,-0.063721675440604
1580420533.42983,-0.983169298847944,0.190676737621118,-0.0778820477607383
1580420533.46188,-0.991958495460441,0.176516365300984,-0.0783703364614325
1580420533.49393,-0.986587319752804,0.130128938735027,-0.0554207675288012
1580420533.52599,-1.00709544518196,0.080811779964904,-0.0393072404058898
1580420533.55804,-1.00904859998474,0.0539559014267184,-0.00708018616006711
1580420533.59009,-1.0124666208896,0.0524910353246355,-0.0134279392690928
1580420533.62214,-1.00904859998474,0.0690928511482412,-0.0324711985961699
1580420533.65419,-1.00758373388266,0.0769054703593497,-0.0505378805218584
1580420533.68624,-0.999282825970855,0.0993667505912867,-0.0500495918211641
1580420533.71829,-1.00318913557641,0.118410009918364,-0.0334477759975584
1580420533.75034,-1.00709544518196,0.137453269245441,-0.0393072404058898
1580420533.78239,-0.991470206759747,0.133546959639887,-0.0656748302433812
1580420533.81445,-0.993911650263218,0.133546959639887,-0.0212405584802013
1580420533.8465,-1.03150988021668,0.0632333867399097,-0.0231937132829785
1580420533.87855,-1.01197833218891,0.0612802319371326,-0.0578622110322726
1580420533.9106,-1.02320897230488,0.106691081101701,-0.0788586251621268
1580420533.94265,-0.983657587548638,0.135988403143358,-0.148683909361409
1580420533.9747,-0.979751277943084,0.133546959639887,-0.164797436484321
1580420534.00675,-1.00758373388266,0.146730754558632,-0.108644235904478
1580420534.0388,-1.01100175478752,0.0896009765774011,-0.123292896925307
1580420534.07085,-0.958266575112535,0.161379415579461,-0.0417486839093613
1580420534.10291,-1.00807202258335,0.192629892423895,-0.0588387884336612
1580420534.13496,-1.01393148699168,0.0798352025635154,-0.104737926298924
1580420534.16701,-1.00563057907988,0.0783703364614325,-0.0710460059510183
1580420534.19906,-1.00172426947433,0.0813000686655982,-0.0793469138628211
1580420534.23114,-0.979751277943084,0.133546959639887,-0.0764171816586554
1580420534.26319,-1.00074769207294,0.155031662470435,-0.0700694285496297
1580420534.29524,-0.96900892652781,0.119386587319752,-0.0842298008697639
1580420534.32729,-0.993911650263218,0.156496528572518,-0.113527122911421
1580420534.35934,-0.97584496833753,0.119386587319752,-0.0661631189440754
1580420534.39139,-1.08375677119097,0.0935072861829553,-0.0632333867399097
1580420534.42345,-1.04127565423056,0.0798352025635154,-0.0534676127260241
1580420534.4555,-1.01149004348821,0.138918135347524,-0.0456549935149155
1580420534.48755,-0.990981918059052,0.210696574349583,-0.0710460059510183
1580420534.5196,-0.990005340657664,0.189700160219729,-0.0881361104753182
1580420534.55165,-1.0124666208896,0.154055085069047,-0.10424963759823
1580420534.5837,-0.967544060425727,0.141847867551689,-0.152590218966964
1580420534.61575,-1.00270084687572,0.103273060196841,-0.113527122911421
1580420534.6478,-1.01197833218891,0.0793469138628211,-0.109132524605172
1580420534.67985,-0.97584496833753,0.131105516136415,-0.10766765850309
1580420534.71191,-0.963637750820173,0.175051499198901,-0.0749523155565726
1580420534.74396,-0.997329671168078,0.136964980544747,-0.0544441901274126
1580420534.77601,-0.983169298847944,0.108644235904478,-0.109620813305867
1580420534.80806,-1.01393148699168,0.108155947203784,-0.0915541313801782
1580420534.84011,-1.00514229037919,0.113038834210727,-0.0788586251621268
1580420534.87216,-0.987075608453498,0.146730754558632,-0.0539559014267184
1580420534.90421,-0.971938658731975,0.149172198062104,-0.0646982528419926
1580420534.93626,-1.03102159151598,0.115968566414892,-0.0251468680857556
1580420534.96831,-0.971938658731975,0.144289311055161,-0.103761348897535
1580420535.00037,-1.00709544518196,0.174074921797512,-0.0690928511482412
1580420535.03242,-0.963149462119478,0.146242465857938,-0.176028076600289
1580420535.06447,-0.979751277943084,0.115480277714198,-0.162355992980849
1580420535.09652,-1.03346303501946,0.0969253070878153,-0.0988784618905925
1580420535.12857,-0.990493629358358,0.140383001449607,-0.0920424200808725
1580420535.16062,-1.00856031128405,0.148195620660715,-0.0710460059510183
1580420535.19267,-1.0295567254139,0.0305180437933927,-0.129152361333638
1580420535.22472,-1.01490806439307,0.00659189745937283,-0.195559624628061
1580420535.25677,-0.967055771725033,0.0749523155565726,-0.183840695811398
1580420535.28883,-0.994399938963912,0.129152361333638,-0.123292896925307
1580420535.32088,-1.01344319829099,0.0681162737468526,-0.0783703364614325
1580420535.35293,-1.00953688868544,0.00708018616006711,-0.0803234912642097
1580420535.38498,-1.01930266269932,0.0451667048142212,-0.0515144579232469
1580420535.41703,-1.01832608529793,0.138429846646829,-0.0515144579232469
1580420535.44908,-1.0036774242771,0.146730754558632,-0.0437018387121384
1580420535.48113,-0.967055771725033,0.162355992980849,-0.223392080567635
1580420535.51297,-1.0129549095903,0.136964980544747,-0.144777599755855
1580420535.54502,-0.98951705195697,0.134523537041275,-0.167727168688486
1580420535.57707,-1.00758373388266,0.0686045624475469,-0.106202792401007
1580420535.60912,-1.01051346608682,0.0622568093385212,-0.0944838635843439
1580420535.64117,-1.02320897230488,0.0202639810788128,-0.0798352025635154
1580420535.67322,-1.02369726100557,0.0153810940718699,-0.108644235904478
1580420535.70528,-1.00758373388266,0.0588387884336612,-0.0866712443732354
1580420535.73733,-0.991470206759747,0.141847867551689,-0.116945143816281
1580420535.76938,-1.00807202258335,0.167727168688486,-0.031006332494087
1580420535.80143,-0.972915236133364,0.144289311055161,-0.157961394674601
1580420535.83348,-0.981216144045167,0.101808194094758,-0.225345235370412
1580420535.86553,-0.968032349126421,0.067139696345464,-0.127199206530861
1580420535.89758,-1.00856031128405,0.164309147783626,-0.120851453421835
1580420535.92963,-1.00709544518196,0.0886243991760125,-0.137453269245441
1580420535.96168,-1.00807202258335,0.0783703364614325,-0.0930189974822611
1580420535.99374,-0.99293507286183,0.0832532234683754,-0.0778820477607383
1580420536.02579,-0.98951705195697,0.0681162737468526,-0.0788586251621268
1580420536.05784,-1.02027924010071,0.037842374303807,-0.118410009918364
1580420536.08989,-0.991958495460441,0.0959487296864268,-0.164797436484321
1580420536.12194,-1.00025940337224,0.122316319523918,-0.193606469825284
1580420536.15399,-1.0036774242771,0.133058670939192,-0.126710917830167
1580420536.18604,-0.961684596017395,0.148195620660715,-0.200930800335698
1580420536.21809,-0.961684596017395,0.150148775463492,-0.162355992980849
1580420536.25014,-1.00856031128405,0.199465934233615,-0.218997482261386
1580420536.2822,-1.0124666208896,0.0969253070878153,-0.214114595254443
1580420536.31425,-0.968032349126421,0.126222629129472,-0.24682993820096
1580420536.3463,-0.97926298924239,0.156496528572518,-0.200442511635003
1580420536.37835,-0.997329671168078,0.146242465857938,-0.139894712748912
1580420536.4104,-1.0036774242771,0.0974135957885096,-0.159426260776684
1580420536.44245,-1.01441977569238,0.0563973449301898,-0.101319905394064
1580420536.4745,-0.978774700541695,0.173098344396124,-0.103761348897535
1580420536.50655,-1.01881437399863,0.181887541008621,-0.0959487296864268
1580420536.5386,-0.937758449683376,0.10424963759823,-0.244388494697489
1580420536.57065,-0.936293583581293,0.117433432516975,-0.272709239337759
1580420536.60271,-0.977798123140307,0.184817273212786,-0.173586633096818
1580420536.63476,-1.01149004348821,0.160402838178072,-0.0920424200808725
1580420536.66681,-0.989028763256275,0.0686045624475469,-0.0881361104753182
1580420536.69886,-1.00953688868544,0.113038834210727,-0.0871595330739297
1580420536.73091,-1.04078736552987,0.158449683375295,-0.0871595330739297
1580420536.76296,-0.94850080109865,0.137453269245441,-0.208743419546806
1580420536.79523,-0.949477378500038,0.116456855115587,-0.217044327458609
1580420536.82728,-1.00025940337224,0.163332570382238,-0.181399252307926
1580420536.85933,-0.993911650263218,0.128664072632944,-0.146242465857938
1580420536.89138,-1.02272068360418,0.0896009765774011,-0.0744640268558783
1580420536.92343,-1.03981078812848,0.0695811398489354,-0.0798352025635154
1580420536.95548,-0.963149462119478,0.0549324788281069,-0.194583047226672
1580420536.98753,-1.00025940337224,0.105226214999618,-0.196047913328755
1580420537.01958,-0.988052185854887,0.199954222934309,-0.170168612191958
1580420537.05164,-0.934340428778516,0.189700160219729,-0.238040741588463
1580420537.08369,-1.01441977569238,0.0974135957885096,-0.113038834210727
1580420537.11574,-1.02174410620279,0.119386587319752,-0.0710460059510183
1580420537.14779,-0.969985503929198,0.156008239871824,-0.101319905394064
1580420537.17984,-0.947524223697261,0.210208285648889,-0.174074921797512
1580420537.21189,-1.01930266269932,0.0983901731898982,-0.212161440451666
1580420537.24394,-0.990493629358358,0.0686045624475469,-0.209231708247501
1580420537.27599,-0.971938658731975,0.168703746089875,-0.219974059662775
1580420537.30804,-0.969985503929198,0.177492942702372,-0.136964980544747
1580420537.3401,-0.99293507286183,0.0690928511482412,-0.133058670939192
1580420537.37215,-1.04567025253681,0.0471198596169984,-0.0905775539787896
1580420537.4042,-1.02320897230488,0.0754406042572668,-0.118410009918364
1580420537.43625,-0.98268101014725,0.105226214999618,-0.197024490730143
1580420537.4683,-0.995864805065995,0.0969253070878153,-0.167727168688486
1580420537.50035,-0.97926298924239,0.0798352025635154,-0.115968566414892
1580420537.5324,-1.00563057907988,0.0324711985961699,-0.099855039291981
1580420537.56445,-1.00904859998474,0.0358892195010299,-0.0783703364614325
1580420537.5965,-1.03346303501946,0.0920424200808725,-0.184817273212786
1580420537.62855,-1.04322880903334,0.112062256809338,-0.0788586251621268
1580420537.66061,-0.97926298924239,0.080811779964904,-0.185305561913481
1580420537.69266,-0.949965667200733,0.189700160219729,-0.311772335393302
1580420537.72471,-0.909437705043107,0.236087586785686,-0.389410238803693
1580420537.75676,-1.00856031128405,0.11450370031281,-0.196536202029449
1580420537.78881,-0.998306248569467,0.024170290684367,-0.133546959639887
1580420537.82086,-1.00172426947433,-0.0153810940718699,-0.0500495918211641
1580420537.85291,-1.0300450141146,0.0173342488746471,0.0109864957656214
1580420537.88496,-0.982192721446555,0.0925307087815668,-0.048096437018387
1580420537.91701,-1.00953688868544,0.0817883573662925,-0.0847180895704582
1580420537.94907,-1.01637293049516,0.158449683375295,-0.0754406042572668
1580420537.98112,-0.988540474555581,0.118410009918364,-0.161379415579461
1580420538.01317,-0.95191882200351,0.0515144579232469,-0.230716411078049
1580420538.04522,-0.972915236133364,0.148195620660715,-0.307866025787748
1580420538.07715,-1.02809185931182,0.0397955291065841,-0.207766842145418
1580420538.1092,-1.0378576333257,0.00610360875867855,-0.215091172655832
1580420538.14125,-0.946547646295873,0.178469520103761,-0.120851453421835
1580420538.1733,-1.02174410620279,0.181399252307926,-0.103273060196841
1580420538.20535,-1.01393148699168,0.120363164721141,-0.0388189517051956
1580420538.2374,-1.00709544518196,0.0720225833524069,-0.148683909361409
1580420538.26945,-0.950942244602121,0.114991989013504,-0.147707331960021
1580420538.30151,-0.96559090562295,0.167727168688486,-0.11450370031281
1580420538.33356,-1.01783779659724,0.208743419546806,-0.120363164721141
1580420538.36561,-0.998794537270161,0.127687495231555,-0.160402838178072
1580420538.39766,-0.970962081330587,0.0729991607537954,-0.181887541008621
1580420538.42971,-0.974380102235447,0.100343327992675,-0.134035248340581
1580420538.46176,-0.990981918059052,0.0681162737468526,-0.106202792401007
1580420538.49381,-0.991958495460441,0.0700694285496297,-0.205325398641946
1580420538.52586,-0.96217288471809,0.137941557946135,-0.215091172655832
1580420538.55791,-1.03346303501946,0.107179369802395,-0.124269474326695
1580420538.58996,-0.988540474555581,0.0476081483176927,-0.165285725185015
1580420538.62202,-0.983169298847944,-0.00317387655451284,-0.201907377737086
1580420538.65407,-1.0207675288014,-0.0168459601739528,-0.101319905394064
1580420538.68612,-1.04420538643473,-0.00219729915312428,-0.115968566414892
1580420538.71817,-1.02418554970626,0.00952162966353853,-0.134035248340581
1580420538.75022,-0.986587319752804,0.0129396505683985,-0.123781185626001
1580420538.78227,-1.03688105592432,0.0627450980392155,-0.0417486839093613
1580420538.81432,-0.968520637827115,0.105714503700312,-0.156984817273212
1580420538.84637,-0.983657587548638,0.077393759060044,-0.147219043259327
1580420538.87842,-0.983657587548638,0.0432135500114441,-0.149172198062104
1580420538.91048,-1.00514229037919,0.0583504997329669,-0.156984817273212
1580420538.94253,-0.99977111467155,0.0285648889906156,-0.192629892423895
1580420538.97458,-1.01539635309377,0.0583504997329669,-0.163332570382238
1580420539.00663,-0.96900892652781,0.146242465857938,-0.185305561913481
1580420539.03868,-0.968032349126421,0.106202792401007,-0.194094758525978
1580420539.07073,-1.0295567254139,0.0231937132829785,-0.120363164721141
1580420539.10278,-0.977798123140307,0.193606469825284,-0.0783703364614325
1580420539.13483,-0.979751277943084,0.106691081101701,-0.037842374303807
1580420539.16688,-0.995864805065995,0.0173342488746471,-0.221927214465552
1580420539.19894,-0.99293507286183,0.0495613031204698,-0.073975738155184
1580420539.23099,-1.05494773785,0.00659189745937283,-0.139406424048218
1580420539.26304,-1.00563057907988,0.0988784618905925,-0.23657587548638
1580420539.29509,-0.975356679636835,0.195559624628061,-0.0427252613107498
1580420539.32714,-1.03395132372015,0.034424353398947,-0.229739833676661
1580420539.3595,-0.929945830472267,0.0407721065079727,-0.353276874952316
1580420539.39155,-0.978774700541695,0.205325398641946,-0.0813000686655982
1580420539.4236,-1.01051346608682,0.188723582818341,-0.120363164721141
1580420539.45565,-0.961684596017395,0.201419089036392,-0.142824444953078
1580420539.4877,-0.982192721446555,0.130128938735027,-0.160891126878766
1580420539.51975,-0.971450370031281,0.0246585793850613,-0.235111009384298
1580420539.55181,-1.02223239490349,-0.000244144350347142,-0.151125352864881
1580420539.58386,-1.01051346608682,0.0153810940718699,-0.10766765850309
1580420539.61591,-0.96217288471809,0.111573968108644,-0.210696574349583
1580420539.64796,-1.01441977569238,0.0515144579232469,-0.184328984512092
1580420539.68001,-1.0300450141146,0.0456549935149155,-0.150148775463492
1580420539.71206,-0.927504386968796,0.0334477759975584,-0.205325398641946
1580420539.74411,-1.0808270389868,-0.0588387884336612,-0.174074921797512
1580420539.77617,-1.02858014801251,0.01196307316701,-0.0832532234683754
1580420539.80822,-1.02418554970626,0.102296482795452,-0.149172198062104
1580420539.84027,-1.00904859998474,0.141359578850995,-0.109620813305867
1580420539.87232,-0.98951705195697,0.114015411612115,-0.117433432516975
1580420539.90437,-0.955825131609064,0.112550545510032,-0.190676737621118
1580420539.93642,-1.00318913557641,0.0930189974822611,-0.152101930266269
1580420539.96848,-0.95875486381323,0.156008239871824,-0.138918135347524
1580420540.00053,-0.96217288471809,0.134035248340581,-0.165285725185015
1580420540.03258,-0.961684596017395,0.0651865415426869,-0.181887541008621
1580420540.06463,-1.00611886778058,0.0192874036774242,-0.156984817273212
1580420540.09668,-1.04762340733959,0.0324711985961699,-0.0959487296864268
1580420540.12873,-0.970473792629893,0.0612802319371326,-0.130617227435721
1580420540.16079,-0.996841382467384,0.0046387426565957,-0.112062256809338
1580420540.19284,-1.00709544518196,0.0461432822156098,-0.23657587548638
1580420540.22489,-0.986587319752804,0.0769054703593497,-0.195559624628061
1580420540.25694,-1.02613870450904,0.0383306630045013,-0.0900892652780954
1580420540.28899,-1.06520180056458,0.044678416113527,-0.179446097505149
1580420540.32104,-1.00514229037919,0.158449683375295,-0.0710460059510183
1580420540.35309,-0.968520637827115,0.185793850614175,-0.11450370031281
1580420540.38515,-0.959243152513924,0.111573968108644,-0.208255130846112
1580420540.4172,-0.99977111467155,0.0485847257190812,-0.121828030823224
1580420540.44925,-0.972915236133364,0.0710460059510183,-0.130617227435721
1580420540.4813,-0.997329671168078,0.105714503700312,-0.302494850080111
1580420540.51335,-0.921644922560464,0.219485770962081,-0.0583504997329669
1580420540.5454,-1.06764324406805,0.0212405584802013,-0.115480277714198
1580420540.57746,-0.959243152513924,0.0905775539787896,-0.368413824673839
1580420540.60951,-0.894300755321584,0.0861829556725411,-0.230716411078049
1580420540.64157,-1.06324864576181,-0.0100099183642328,-0.127199206530861
1580420540.67362,-1.00270084687572,0.096437018387121,-0.173586633096818
1580420540.70567,-1.0041657129778,0.167727168688486,-0.162355992980849
1580420540.73773,-0.990005340657664,0.133546959639887,-0.156496528572518
1580420540.76978,-0.997329671168078,0.120851453421835,-0.164309147783626
1580420540.80183,-0.982192721446555,0.136476691844052,-0.203860532539863
1580420540.83388,-0.971450370031281,0.182375829709315,-0.118898298619058
1580420540.86593,-0.966567483024338,0.113527122911421,-0.132570382238498
1580420540.89798,-0.983169298847944,0.0651865415426869,-0.232669565880826
1580420540.93003,-0.990981918059052,0.0607919432364383,-0.182375829709315
1580420540.96209,-1.01881437399863,0.0266117341878385,-0.159914549477378
1580420540.99414,-1.06861982146944,0.0202639810788128,-0.0974135957885096
1580420541.02619,-0.995376516365301,0.0969253070878153,-0.096437018387121
1580420541.05824,-0.981216144045167,0.113527122911421,-0.0988784618905925
1580420541.09029,-0.989028763256275,0.0451667048142212,-0.165774013885709
1580420541.12234,-1.03736934462501,-0.0266117341878385,-0.140871290150301
1580420541.1544,-1.00611886778058,0.0075684748607614,-0.185305561913481
1580420541.18645,-0.983169298847944,0.0632333867399097,-0.172610055695429
1580420541.2185,-0.968520637827115,0.0764171816586554,-0.195559624628061
1580420541.25055,-1.00270084687572,0.0686045624475469,-0.177981231403066
1580420541.2826,-0.969985503929198,0.0827649347676811,-0.163332570382238
1580420541.31465,-0.993911650263218,0.0993667505912867,-0.195559624628061
1580420541.3467,-0.981216144045167,0.0769054703593497,-0.221927214465552
1580420541.37876,-0.987075608453498,0.0939955748836496,-0.184817273212786
1580420541.41081,-0.99977111467155,0.0324711985961699,-0.160402838178072
1580420541.44286,-1.01197833218891,0.034424353398947,-0.135011825741969
1580420541.47491,-0.979751277943084,0.034424353398947,-0.147219043259327
1580420541.50696,-1.00807202258335,0.0168459601739528,-0.125734340428778
1580420541.53901,-1.04615854123751,-0.00366216525520713,-0.151125352864881
1580420541.57107,-0.99293507286183,0.0534676127260241,-0.138918135347524
1580420541.60312,-0.936293583581293,0.139894712748912,-0.102784771496147
1580420541.63517,-1.00904859998474,0.0681162737468526,-0.139894712748912
1580420541.66722,-1.05592431525139,-0.0178225375753414,-0.103273060196841
1580420541.69927,-0.99293507286183,0.0290531776913099,-0.0905775539787896
1580420541.73132,-1.02662699320974,0.0139162279697871,-0.205813687342641
1580420541.76338,-0.984634164950027,0.0881361104753182,-0.249271381704432
1580420541.79543,-0.937758449683376,0.217044327458609,-0.180910963607232
1580420541.82748,-0.99977111467155,0.109132524605172,-0.230716411078049
1580420541.85953,-0.963149462119478,0.0852063782711525,-0.169680323491264
1580420541.89158,-1.00709544518196,0.080811779964904,-0.216556038757915
1580420541.92371,-0.946547646295873,0.0246585793850613,-0.156984817273212
1580420541.95576,-1.08717479209583,0.0334477759975584,-0.00512703135728998
1580420541.98781,-0.990981918059052,0.0539559014267184,-0.172610055695429
1580420542.01986,-0.961684596017395,0.111573968108644,-0.186282139314869
1580420542.05191,-0.961196307316701,0.132570382238498,-0.220950637064163
1580420542.08397,-1.01393148699168,0.0383306630045013,-0.11450370031281
1580420542.11602,-1.07643244068055,0.031006332494087,-0.0627450980392155
1580420542.14807,-1.01783779659724,0.108644235904478,-0.108155947203784
1580420542.18012,-0.96900892652781,0.0261234454871442,-0.168215457389181
1580420542.21217,-0.972915236133364,0.0710460059510183,-0.213138017853055
1580420542.24423,-0.966567483024338,0.191653315022506,-0.202395666437781
1580420542.27628,-0.975356679636835,0.224856946669718,-0.158449683375295
1580420542.30833,-0.990493629358358,0.200442511635003,-0.135500114442664
1580420542.34038,-0.970473792629893,0.182864118410009,-0.185305561913481
1580420542.37243,-0.982192721446555,0.0554207675288012,-0.147219043259327
1580420542.40449,-1.01100175478752,0.0319829098954756,-0.209719996948195
1580420542.43654,-1.00563057907988,0.0988784618905925,-0.123292896925307
1580420542.46859,-0.993423361562524,0.125246051728084,-0.185793850614175
1580420542.50064,-0.971450370031281,0.196536202029449,-0.232669565880826
1580420542.53269,-0.962661173418784,0.199954222934309,-0.249271381704432
1580420542.56475,-1.00953688868544,0.0803234912642097,-0.184817273212786
1580420542.5968,-0.954848554207675,0.0520027466239412,-0.205325398641946
1580420542.62885,-0.97584496833753,0.0661631189440754,-0.0720225833524069
1580420542.6609,-0.99293507286183,0.129640650034332,-0.114991989013504
1580420542.69296,-1.03102159151598,0.0661631189440754,-0.121828030823224
1580420542.72501,-1.0041657129778,0.00268558785381856,-0.0954604409857325
1580420542.75706,-1.01881437399863,-0.0656748302433812,-0.164309147783626
1580420542.78911,-1.00953688868544,0.0114747844663157,-0.148195620660715
1580420542.82116,-1.01051346608682,0.105226214999618,-0.0617685206378269
1580420542.85321,-0.997329671168078,0.0983901731898982,-0.0905775539787896
1580420542.88527,-1.00856031128405,0.0168459601739528,-0.115968566414892
1580420542.91732,-1.01637293049516,0.0251468680857556,-0.138918135347524
1580420542.94937,-1.00172426947433,0.0256351567864499,-0.118898298619058
1580420542.98142,-0.998306248569467,-0.0100099183642328,-0.123781185626001
1580420543.01347,-0.995864805065995,0.0202639810788128,-0.109132524605172
1580420543.04553,-0.985122453650721,0.0158693827725642,-0.0871595330739297
1580420543.07758,-1.03248645761807,0.000244144350347142,-0.134035248340581
1580420543.10963,-1.05787747005417,-0.0568856336308841,-0.0813000686655982
1580420543.14168,-1.04811169604028,-0.112550545510032,-0.0842298008697639
1580420543.17373,-0.98609903105211,0.0202639810788128,-0.128664072632944
1580420543.20584,-0.984634164950027,0.027588311589227,-0.147707331960021
1580420543.23789,-0.985610742351415,-0.00903334096284425,-0.180910963607232
1580420543.26994,-1.00025940337224,0.110109102006561,-0.112550545510032
1580420543.302,-0.981704432745861,0.0461432822156098,-0.109132524605172
1580420543.33405,-1.05690089265278,-0.0456549935149155,-0.141359578850995
1580420543.3661,-1.04908827344167,-0.0187991149767299,-0.189700160219729
1580420543.39815,-0.946547646295873,0.0822766460669868,-0.114991989013504
1580420543.4302,-1.03248645761807,-0.031006332494087,-0.117433432516975
1580420543.46226,-1.04127565423056,0.0676279850461583,-0.145265888456549
1580420543.49431,-0.935805294880598,0.212161440451666,-0.186770428015564
1580420543.52636,-1.01100175478752,0.111573968108644,-0.142824444953078
1580420543.55841,-0.998794537270161,0.130617227435721,-0.148195620660715
1580420543.59046,-0.945571068894484,0.0969253070878153,-0.164309147783626
1580420543.62252,-1.04420538643473,0.0983901731898982,-0.109620813305867
1580420543.65457,-0.984145876249332,0.166750591287098,-0.217044327458609
1580420543.68662,-0.924086366063936,0.272220950637063,-0.188235294117646
1580420543.71867,-1.00123598077363,0.217044327458609,-0.0666514076447697
1580420543.75073,-0.96900892652781,0.154543373769741,-0.123292896925307
1580420543.78278,-0.989028763256275,0.119386587319752,-0.226321812771801
1580420543.81483,-0.999282825970855,0.174563210498206,-0.109620813305867
1580420543.84688,-0.988540474555581,0.196047913328755,-0.198489356832226
1580420543.87893,-0.978774700541695,0.131593804837109,-0.147219043259327
1580420543.91099,-0.967055771725033,0.105226214999618,-0.0676279850461583
1580420543.94304,-1.04615854123751,0.0456549935149155,-0.0969253070878153
1580420543.97509,-1.01441977569238,0.119386587319752,-0.0925307087815668
1580420544.00714,-0.879652094300756,0.280521858548866,-0.209231708247501
