Timestamp_seconds,Accel_X_g,Accel_Y_g,Accel_Z_g
1580420491.25627,-0.985610742351415,-0.182375829709315,-0.0910658426794839
1580420491.26027,-0.987075608453498,-0.182864118410009,-0.0910658426794839
1580420491.26427,-0.987563897154192,-0.184817273212786,-0.0954604409857325
1580420491.26827,-0.987075608453498,-0.183352407110704,-0.0959487296864268
1580420491.27225,-0.986587319752804,-0.185305561913481,-0.0925307087815668
1580420491.27625,-0.987075608453498,-0.184817273212786,-0.0920424200808725
1580420491.28024,-0.988052185854887,-0.189700160219729,-0.0925307087815668
1580420491.28424,-0.987563897154192,-0.189700160219729,-0.0910658426794839
1580420491.28824,-0.986587319752804,-0.188235294117646,-0.0920424200808725
1580420491.29224,-0.987075608453498,-0.190676737621118,-0.0876478217746239
1580420491.29624,-0.984145876249332,-0.193118181124589,-0.0920424200808725
1580420491.30024,-0.98609903105211,-0.192141603723201,-0.0896009765774011
1580420491.30424,-0.984145876249332,-0.190676737621118,-0.0939955748836496
1580420491.30824,-0.98609903105211,-0.189700160219729,-0.0900892652780954
1580420491.31223,-0.984145876249332,-0.191165026321812,-0.0930189974822611
1580420491.31623,-0.981704432745861,-0.190676737621118,-0.0886243991760125
1580420491.32023,-0.981704432745861,-0.187258716716258,-0.0886243991760125
1580420491.32423,-0.981216144045167,-0.186282139314869,-0.0900892652780954
1580420491.32823,-0.978286411841001,-0.185793850614175,-0.0891126878767068
1580420491.33223,-0.980239566643778,-0.186770428015564,-0.0871595330739297
1580420491.33623,-0.980239566643778,-0.189700160219729,-0.0861829556725411
1580420491.34023,-0.977309834439613,-0.187747005416952,-0.0871595330739297
1580420491.34422,-0.976821545738918,-0.190676737621118,-0.0871595330739297
1580420491.34822,-0.97926298924239,-0.188723582818341,-0.0827649347676811
1580420491.35223,-0.978286411841001,-0.190188448920424,-0.0866712443732354
1580420491.35623,-0.984145876249332,-0.187747005416952,-0.0881361104753182
1580420491.36023,-0.98609903105211,-0.188235294117646,-0.0871595330739297
1580420491.36423,-0.984634164950027,-0.192141603723201,-0.0832532234683754
1580420491.36823,-0.987563897154192,-0.193118181124589,-0.0837415121690697
1580420491.37223,-0.987563897154192,-0.193606469825284,-0.0847180895704582
1580420491.37623,-0.988052185854887,-0.194583047226672,-0.0847180895704582
1580420491.38022,-0.988052185854887,-0.191653315022506,-0.0886243991760125
1580420491.38422,-0.987075608453498,-0.191653315022506,-0.0866712443732354
1580420491.38822,-0.985610742351415,-0.188235294117646,-0.0852063782711525
1580420491.39222,-0.984634164950027,-0.186282139314869,-0.0886243991760125
1580420491.39622,-0.986587319752804,-0.182375829709315,-0.0910658426794839
1580420491.40022,-0.990981918059052,-0.177004654001678,-0.0915541313801782
1580420491.40422,-0.99293507286183,-0.177004654001678,-0.0959487296864268
1580420491.40822,-0.993911650263218,-0.177004654001678,-0.0891126878767068
1580420491.41221,-0.994888227664607,-0.182375829709315,-0.0949721522850382
1580420491.41621,-0.99635309376669,-0.184817273212786,-0.0896009765774011
1580420491.42021,-0.993423361562524,-0.187258716716258,-0.0871595330739297
1580420491.42421,-0.994399938963912,-0.182864118410009,-0.0900892652780954
1580420491.42821,-0.99635309376669,-0.185793850614175,-0.0886243991760125
1580420491.43222,-0.994888227664607,-0.181887541008621,-0.0900892652780954
1580420491.43622,-0.994888227664607,-0.183840695811398,-0.0886243991760125
1580420491.44022,-0.990005340657664,-0.183840695811398,-0.0881361104753182
1580420491.44422,-0.99293507286183,-0.182864118410009,-0.0861829556725411
1580420491.44822,-0.98951705195697,-0.185793850614175,-0.0905775539787896
1580420491.45221,-0.988540474555581,-0.185793850614175,-0.0842298008697639
1580420491.45621,-0.988540474555581,-0.184328984512092,-0.0827649347676811
1580420491.46021,-0.987075608453498,-0.187258716716258,-0.0852063782711525
1580420491.46421,-0.988540474555581,-0.183352407110704,-0.0783703364614325
1580420491.46821,-0.98609903105211,-0.180910963607232,-0.0783703364614325
1580420491.47221,-0.983169298847944,-0.179446097505149,-0.0817883573662925
1580420491.47621,-0.985122453650721,-0.179934386205844,-0.0822766460669868
1580420491.4802,-0.981216144045167,-0.179934386205844,-0.0832532234683754
1580420491.4842,-0.984634164950027,-0.179446097505149,-0.0817883573662925
1580420491.4882,-0.98268101014725,-0.182864118410009,-0.0871595330739297
1580420491.4922,-0.987563897154192,-0.185793850614175,-0.0915541313801782
1580420491.4962,-0.991958495460441,-0.179446097505149,-0.0891126878767068
1580420491.5002,-0.994888227664607,-0.181399252307926,-0.0939955748836496
1580420491.5042,-0.99635309376669,-0.179934386205844,-0.0915541313801782
1580420491.5082,-0.993423361562524,-0.179446097505149,-0.0983901731898982
1580420491.51218,-0.992446784161135,-0.178469520103761,-0.102784771496147
1580420491.51618,-0.991958495460441,-0.177981231403066,-0.096437018387121
1580420491.52017,-0.992446784161135,-0.178957808804455,-0.0983901731898982
1580420491.52417,-0.990981918059052,-0.177492942702372,-0.096437018387121
1580420491.52817,-0.990005340657664,-0.177004654001678,-0.0944838635843439
1580420491.53217,-0.98951705195697,-0.175539787899595,-0.0959487296864268
1580420491.53617,-0.990005340657664,-0.176028076600289,-0.0983901731898982
1580420491.54017,-0.98609903105211,-0.175539787899595,-0.0969253070878153
1580420491.54417,-0.985122453650721,-0.176516365300984,-0.0993667505912867
1580420491.54816,-0.988052185854887,-0.175539787899595,-0.100343327992675
1580420491.55216,-0.991958495460441,-0.177981231403066,-0.0979018844892039
1580420491.55616,-0.991470206759747,-0.178469520103761,-0.0939955748836496
1580420491.56016,-0.99635309376669,-0.180910963607232,-0.0949721522850382
1580420491.56416,-0.99293507286183,-0.181887541008621,-0.0930189974822611
1580420491.56816,-0.990493629358358,-0.178957808804455,-0.0920424200808725
1580420491.57216,-0.991958495460441,-0.175051499198901,-0.0920424200808725
1580420491.57616,-0.990005340657664,-0.177981231403066,-0.0886243991760125
1580420491.58015,-0.987075608453498,-0.177981231403066,-0.0866712443732354
1580420491.58415,-0.986587319752804,-0.176028076600289,-0.0866712443732354
1580420491.58815,-0.988540474555581,-0.173586633096818,-0.0817883573662925
1580420491.59216,-0.989028763256275,-0.172610055695429,-0.0847180895704582
1580420491.59616,-0.98951705195697,-0.173098344396124,-0.0852063782711525
1580420491.60016,-0.988052185854887,-0.173098344396124,-0.0871595330739297
1580420491.60416,-0.992446784161135,-0.170656900892652,-0.0842298008697639
1580420491.60816,-0.990981918059052,-0.174563210498206,-0.0837415121690697
1580420491.61216,-0.98951705195697,-0.169680323491264,-0.0827649347676811
1580420491.61615,-0.98951705195697,-0.168703746089875,-0.0827649347676811
1580420491.62015,-0.987075608453498,-0.174074921797512,-0.0871595330739297
1580420491.62415,-0.985610742351415,-0.176516365300984,-0.0881361104753182
1580420491.62815,-0.987563897154192,-0.175051499198901,-0.0842298008697639
1580420491.63215,-0.986587319752804,-0.179446097505149,-0.0891126878767068
1580420491.63615,-0.98609903105211,-0.178469520103761,-0.0886243991760125
1580420491.64015,-0.98609903105211,-0.179934386205844,-0.0891126878767068
1580420491.64415,-0.985610742351415,-0.183840695811398,-0.0866712443732354
1580420491.64814,-0.98268101014725,-0.183840695811398,-0.080811779964904
1580420491.65214,-0.983657587548638,-0.183352407110704,-0.0915541313801782
1580420491.65614,-0.985122453650721,-0.186282139314869,-0.0876478217746239
1580420491.66014,-0.988540474555581,-0.186770428015564,-0.0896009765774011
1580420491.66414,-0.988052185854887,-0.185793850614175,-0.0944838635843439
1580420491.66814,-0.987563897154192,-0.184817273212786,-0.0939955748836496
1580420491.67212,-0.987075608453498,-0.183352407110704,-0.0891126878767068
1580420491.67612,-0.990981918059052,-0.186282139314869,-0.0871595330739297
1580420491.68012,-0.991958495460441,-0.188235294117646,-0.0935072861829553
1580420491.68411,-0.995864805065995,-0.188235294117646,-0.0896009765774011
1580420491.68811,-0.99293507286183,-0.189700160219729,-0.0935072861829553
1580420491.69211,-0.992446784161135,-0.193118181124589,-0.0896009765774011
1580420491.69611,-0.988052185854887,-0.192629892423895,-0.0881361104753182
1580420491.70011,-0.988052185854887,-0.190676737621118,-0.0886243991760125
1580420491.70411,-0.983657587548638,-0.191165026321812,-0.0876478217746239
1580420491.70811,-0.981704432745861,-0.187258716716258,-0.0886243991760125
1580420491.71211,-0.983169298847944,-0.190676737621118,-0.0930189974822611
1580420491.7161,-0.981704432745861,-0.187747005416952,-0.0920424200808725
1580420491.7201,-0.985122453650721,-0.186770428015564,-0.0871595330739297
1580420491.7241,-0.984634164950027,-0.186282139314869,-0.0856946669718468
1580420491.7281,-0.989028763256275,-0.186770428015564,-0.0866712443732354
1580420491.7321,-0.988052185854887,-0.184817273212786,-0.0905775539787896
1580420491.7361,-0.987075608453498,-0.185793850614175,-0.0876478217746239
1580420491.7401,-0.988052185854887,-0.186770428015564,-0.0935072861829553
1580420491.7441,-0.985610742351415,-0.187258716716258,-0.0900892652780954
1580420491.7481,-0.980727855344472,-0.185305561913481,-0.0881361104753182
1580420491.7521,-0.981704432745861,-0.181887541008621,-0.0837415121690697
1580420491.7561,-0.983169298847944,-0.181887541008621,-0.0915541313801782
1580420491.7601,-0.984145876249332,-0.183352407110704,-0.0910658426794839
1580420491.7641,-0.987563897154192,-0.183840695811398,-0.0900892652780954
1580420491.7681,-0.987563897154192,-0.183352407110704,-0.0930189974822611
1580420491.7721,-0.991470206759747,-0.187258716716258,-0.0891126878767068
1580420491.7761,-0.992446784161135,-0.188235294117646,-0.0910658426794839
1580420491.7801,-0.995376516365301,-0.187258716716258,-0.0949721522850382
1580420491.78409,-0.995864805065995,-0.189700160219729,-0.0935072861829553
1580420491.78809,-0.992446784161135,-0.188723582818341,-0.0939955748836496
1580420491.79209,-0.990005340657664,-0.189700160219729,-0.0886243991760125
1580420491.79609,-0.988540474555581,-0.184328984512092,-0.0939955748836496
1580420491.80009,-0.988052185854887,-0.186770428015564,-0.0983901731898982
1580420491.80409,-0.984634164950027,-0.189211871519035,-0.0983901731898982
1580420491.80809,-0.980727855344472,-0.188723582818341,-0.0974135957885096
1580420491.81209,-0.979751277943084,-0.188723582818341,-0.0974135957885096
1580420491.81608,-0.979751277943084,-0.190188448920424,-0.0935072861829553
1580420491.82008,-0.978774700541695,-0.187258716716258,-0.0896009765774011
1580420491.82408,-0.983657587548638,-0.186282139314869,-0.0944838635843439
1580420491.82808,-0.98268101014725,-0.185305561913481,-0.0959487296864268
1580420491.83206,-0.984145876249332,-0.182375829709315,-0.0935072861829553
1580420491.83606,-0.98268101014725,-0.183352407110704,-0.0939955748836496
1580420491.84006,-0.984145876249332,-0.183352407110704,-0.0900892652780954
1580420491.84406,-0.985610742351415,-0.184817273212786,-0.0949721522850382
1580420491.84806,-0.984634164950027,-0.186282139314869,-0.0935072861829553
1580420491.85205,-0.985122453650721,-0.187747005416952,-0.0930189974822611
1580420491.85605,-0.983169298847944,-0.186282139314869,-0.0876478217746239
1580420491.86005,-0.981704432745861,-0.188235294117646,-0.0915541313801782
1580420491.86405,-0.98609903105211,-0.181887541008621,-0.0900892652780954
1580420491.86805,-0.985610742351415,-0.180422674906538,-0.0915541313801782
1580420491.87205,-0.984634164950027,-0.179934386205844,-0.0974135957885096
1580420491.87605,-0.98609903105211,-0.181887541008621,-0.0959487296864268
1580420491.88005,-0.990005340657664,-0.182375829709315,-0.0979018844892039
1580420491.88404,-0.991958495460441,-0.185305561913481,-0.0944838635843439
1580420491.88804,-0.989028763256275,-0.188235294117646,-0.0925307087815668
1580420491.89204,-0.98951705195697,-0.193606469825284,-0.096437018387121
1580420491.89604,-0.987075608453498,-0.197024490730143,-0.0900892652780954
1580420491.90004,-0.987563897154192,-0.198977645532921,-0.096437018387121
1580420491.90404,-0.990005340657664,-0.194583047226672,-0.0983901731898982
1580420491.90804,-0.988052185854887,-0.196536202029449,-0.0920424200808725
1580420491.91205,-0.988052185854887,-0.194094758525978,-0.102296482795452
1580420491.91605,-0.987075608453498,-0.193606469825284,-0.101319905394064
1580420491.92004,-0.985610742351415,-0.194583047226672,-0.103273060196841
1580420491.92404,-0.981704432745861,-0.194094758525978,-0.101808194094758
1580420491.92804,-0.981216144045167,-0.192141603723201,-0.108644235904478
1580420491.93204,-0.982192721446555,-0.190676737621118,-0.103761348897535
1580420491.93604,-0.982192721446555,-0.189211871519035,-0.100343327992675
1580420491.94004,-0.978774700541695,-0.189211871519035,-0.0983901731898982
1580420491.94404,-0.984145876249332,-0.191653315022506,-0.101808194094758
1580420491.94804,-0.981216144045167,-0.188723582818341,-0.100343327992675
1580420491.95204,-0.981216144045167,-0.189211871519035,-0.103761348897535
1580420491.95603,-0.980727855344472,-0.190676737621118,-0.10083161669337
1580420491.96003,-0.980727855344472,-0.187258716716258,-0.101808194094758
1580420491.96403,-0.985610742351415,-0.187258716716258,-0.105714503700312
1580420491.96803,-0.984145876249332,-0.185305561913481,-0.0983901731898982
1580420491.97203,-0.985122453650721,-0.183352407110704,-0.0939955748836496
1580420491.97603,-0.986587319752804,-0.178957808804455,-0.0969253070878153
1580420491.98003,-0.98951705195697,-0.177981231403066,-0.0969253070878153
1580420491.98403,-0.992446784161135,-0.174074921797512,-0.0959487296864268
1580420491.98802,-0.993423361562524,-0.177492942702372,-0.099855039291981
1580420491.992,-0.995864805065995,-0.175539787899595,-0.0993667505912867
1580420491.996,-0.993911650263218,-0.177981231403066,-0.0983901731898982
1580420492,-0.997329671168078,-0.181399252307926,-0.0979018844892039
1580420492.004,-0.99635309376669,-0.182375829709315,-0.0969253070878153
1580420492.008,-0.994399938963912,-0.182864118410009,-0.0979018844892039
1580420492.012,-0.991958495460441,-0.183840695811398,-0.105714503700312
1580420492.016,-0.993911650263218,-0.182864118410009,-0.103273060196841
1580420492.01999,-0.99293507286183,-0.183840695811398,-0.10083161669337
1580420492.02399,-0.988052185854887,-0.184328984512092,-0.099855039291981
1580420492.02799,-0.984634164950027,-0.186282139314869,-0.103761348897535
1580420492.03199,-0.98268101014725,-0.184817273212786,-0.0993667505912867
1580420492.03599,-0.983169298847944,-0.188235294117646,-0.101319905394064
1580420492.03999,-0.984145876249332,-0.185305561913481,-0.0935072861829553
1580420492.04399,-0.985122453650721,-0.184817273212786,-0.0983901731898982
1580420492.04799,-0.981216144045167,-0.185793850614175,-0.0974135957885096
1580420492.05199,-0.984145876249332,-0.186770428015564,-0.101319905394064
1580420492.05598,-0.983657587548638,-0.185793850614175,-0.104737926298924
1580420492.05998,-0.984634164950027,-0.189211871519035,-0.099855039291981
1580420492.06398,-0.981216144045167,-0.189211871519035,-0.0979018844892039
1580420492.06798,-0.979751277943084,-0.191165026321812,-0.0983901731898982
1580420492.07199,-0.98268101014725,-0.187747005416952,-0.099855039291981
1580420492.07599,-0.982192721446555,-0.186770428015564,-0.0969253070878153
1580420492.07999,-0.98268101014725,-0.183352407110704,-0.0969253070878153
1580420492.08399,-0.984145876249332,-0.183352407110704,-0.10083161669337
1580420492.08799,-0.981216144045167,-0.179934386205844,-0.0993667505912867
1580420492.09198,-0.984145876249332,-0.181399252307926,-0.102296482795452
1580420492.09598,-0.987563897154192,-0.181887541008621,-0.102784771496147
1580420492.09998,-0.987075608453498,-0.184817273212786,-0.106202792401007
1580420492.10398,-0.987563897154192,-0.185305561913481,-0.099855039291981
1580420492.10798,-0.98951705195697,-0.186770428015564,-0.0959487296864268
1580420492.11198,-0.990493629358358,-0.182375829709315,-0.103273060196841
1580420492.11598,-0.991958495460441,-0.180910963607232,-0.0988784618905925
1580420492.11998,-0.991958495460441,-0.183352407110704,-0.104737926298924
1580420492.12397,-0.99293507286183,-0.184817273212786,-0.103761348897535
1580420492.12797,-0.991958495460441,-0.184328984512092,-0.103273060196841
1580420492.13197,-0.989028763256275,-0.182864118410009,-0.10424963759823
1580420492.13597,-0.987563897154192,-0.184817273212786,-0.106691081101701
1580420492.13997,-0.983657587548638,-0.180910963607232,-0.101808194094758
1580420492.14397,-0.984145876249332,-0.180422674906538,-0.103761348897535
1580420492.14797,-0.98268101014725,-0.180422674906538,-0.103761348897535
1580420492.15195,-0.98268101014725,-0.181399252307926,-0.105714503700312
1580420492.15594,-0.983169298847944,-0.177492942702372,-0.103761348897535
1580420492.15994,-0.984634164950027,-0.180422674906538,-0.103273060196841
1580420492.16394,-0.987075608453498,-0.174563210498206,-0.101319905394064
1580420492.16794,-0.990493629358358,-0.174563210498206,-0.103761348897535
1580420492.17194,-0.992446784161135,-0.176028076600289,-0.101319905394064
1580420492.17594,-0.990981918059052,-0.179934386205844,-0.10083161669337
1580420492.17994,-0.990981918059052,-0.179934386205844,-0.0988784618905925
1580420492.18394,-0.990981918059052,-0.180910963607232,-0.102784771496147
1580420492.18793,-0.991958495460441,-0.177004654001678,-0.102296482795452
1580420492.19193,-0.993911650263218,-0.177981231403066,-0.101319905394064
1580420492.19593,-0.990005340657664,-0.177981231403066,-0.100343327992675
1580420492.19993,-0.991470206759747,-0.177981231403066,-0.0896009765774011
1580420492.20393,-0.991470206759747,-0.181399252307926,-0.0959487296864268
1580420492.20793,-0.990005340657664,-0.183840695811398,-0.0983901731898982
1580420492.21193,-0.991958495460441,-0.184817273212786,-0.0983901731898982
1580420492.21593,-0.986587319752804,-0.184817273212786,-0.102784771496147
1580420492.21993,-0.98268101014725,-0.184328984512092,-0.102784771496147
1580420492.22392,-0.984634164950027,-0.184328984512092,-0.099855039291981
1580420492.22792,-0.984145876249332,-0.183352407110704,-0.10424963759823
1580420492.23193,-0.983169298847944,-0.179934386205844,-0.103273060196841
1580420492.23593,-0.985122453650721,-0.180910963607232,-0.10766765850309
1580420492.23993,-0.988052185854887,-0.181887541008621,-0.108644235904478
1580420492.24393,-0.985122453650721,-0.181887541008621,-0.108155947203784
1580420492.24793,-0.987563897154192,-0.181399252307926,-0.11108567940795
1580420492.25193,-0.988540474555581,-0.182864118410009,-0.110109102006561
1580420492.25593,-0.988540474555581,-0.179446097505149,-0.110109102006561
1580420492.25992,-0.988540474555581,-0.183352407110704,-0.110597390707255
1580420492.26392,-0.988540474555581,-0.184328984512092,-0.111573968108644
1580420492.26792,-0.990981918059052,-0.183840695811398,-0.110109102006561
1580420492.27192,-0.987075608453498,-0.185793850614175,-0.10766765850309
1580420492.27592,-0.988052185854887,-0.186282139314869,-0.107179369802395
1580420492.27992,-0.985610742351415,-0.189700160219729,-0.11108567940795
1580420492.28392,-0.983169298847944,-0.190188448920424,-0.107179369802395
1580420492.28792,-0.983657587548638,-0.185305561913481,-0.105714503700312
1580420492.29191,-0.985610742351415,-0.184817273212786,-0.107179369802395
1580420492.29591,-0.983169298847944,-0.183352407110704,-0.114015411612115
1580420492.29991,-0.986587319752804,-0.181887541008621,-0.109132524605172
1580420492.30391,-0.984634164950027,-0.182864118410009,-0.110109102006561
1580420492.30791,-0.987075608453498,-0.178469520103761,-0.114015411612115
1580420492.31189,-0.988052185854887,-0.180422674906538,-0.110597390707255
1580420492.31589,-0.991470206759747,-0.181887541008621,-0.110597390707255
1580420492.31989,-0.990981918059052,-0.181399252307926,-0.105714503700312
1580420492.32389,-0.990005340657664,-0.181399252307926,-0.107179369802395
1580420492.32788,-0.987075608453498,-0.184328984512092,-0.10766765850309
1580420492.33188,-0.985610742351415,-0.183352407110704,-0.111573968108644
1580420492.33588,-0.986587319752804,-0.179934386205844,-0.109132524605172
1580420492.33988,-0.986587319752804,-0.179446097505149,-0.10424963759823
1580420492.34388,-0.983657587548638,-0.178957808804455,-0.109620813305867
1580420492.34788,-0.987075608453498,-0.178957808804455,-0.11108567940795
1580420492.35188,-0.984634164950027,-0.180422674906538,-0.102784771496147
1580420492.35588,-0.985122453650721,-0.182864118410009,-0.105226214999618
1580420492.35987,-0.98609903105211,-0.182864118410009,-0.111573968108644
1580420492.36387,-0.990493629358358,-0.181887541008621,-0.11108567940795
1580420492.36787,-0.98951705195697,-0.181887541008621,-0.112550545510032
1580420492.37187,-0.986587319752804,-0.183352407110704,-0.110597390707255
1580420492.37587,-0.984634164950027,-0.181399252307926,-0.113527122911421
1580420492.37987,-0.986587319752804,-0.184817273212786,-0.110597390707255
1580420492.38387,-0.987563897154192,-0.187258716716258,-0.115968566414892
1580420492.38787,-0.990493629358358,-0.187747005416952,-0.116456855115587
1580420492.39188,-0.986587319752804,-0.185793850614175,-0.113527122911421
1580420492.39587,-0.987075608453498,-0.183352407110704,-0.113527122911421
1580420492.39987,-0.985122453650721,-0.186770428015564,-0.112062256809338
1580420492.40387,-0.98609903105211,-0.184817273212786,-0.111573968108644
1580420492.40787,-0.981216144045167,-0.182864118410009,-0.107179369802395
1580420492.41187,-0.984145876249332,-0.185305561913481,-0.112550545510032
1580420492.41587,-0.980727855344472,-0.180422674906538,-0.112062256809338
1580420492.41987,-0.97926298924239,-0.180910963607232,-0.11108567940795
1580420492.42387,-0.98268101014725,-0.177004654001678,-0.113038834210727
1580420492.42787,-0.983169298847944,-0.178469520103761,-0.109620813305867
1580420492.43186,-0.985610742351415,-0.177004654001678,-0.11450370031281
1580420492.43586,-0.988052185854887,-0.180910963607232,-0.113038834210727
1580420492.43986,-0.990493629358358,-0.183840695811398,-0.12133974212253
1580420492.44386,-0.990981918059052,-0.182375829709315,-0.111573968108644
1580420492.44786,-0.987563897154192,-0.184817273212786,-0.112062256809338
1580420492.45186,-0.987075608453498,-0.185305561913481,-0.109132524605172
1580420492.45586,-0.987563897154192,-0.184328984512092,-0.112062256809338
1580420492.45985,-0.98609903105211,-0.183840695811398,-0.112550545510032
1580420492.46385,-0.987563897154192,-0.183352407110704,-0.113038834210727
1580420492.46785,-0.985122453650721,-0.184817273212786,-0.113038834210727
1580420492.47183,-0.986587319752804,-0.183840695811398,-0.115968566414892
1580420492.47583,-0.987563897154192,-0.184328984512092,-0.115480277714198
1580420492.47983,-0.98609903105211,-0.180910963607232,-0.113038834210727
1580420492.48383,-0.985122453650721,-0.186770428015564,-0.118898298619058
1580420492.48783,-0.984634164950027,-0.186282139314869,-0.114991989013504
1580420492.49183,-0.986587319752804,-0.185305561913481,-0.115480277714198
1580420492.49582,-0.98609903105211,-0.183840695811398,-0.11792172121767
1580420492.49982,-0.987075608453498,-0.182375829709315,-0.119386587319752
1580420492.50382,-0.983169298847944,-0.181887541008621,-0.115968566414892
1580420492.50782,-0.984634164950027,-0.178957808804455,-0.119874876020447
1580420492.51182,-0.98268101014725,-0.178957808804455,-0.114015411612115
1580420492.51582,-0.979751277943084,-0.178469520103761,-0.117433432516975
1580420492.51982,-0.984145876249332,-0.177981231403066,-0.116456855115587
1580420492.52382,-0.985610742351415,-0.178957808804455,-0.115480277714198
1580420492.52781,-0.986587319752804,-0.176028076600289,-0.115480277714198
1580420492.53181,-0.984634164950027,-0.177004654001678,-0.114991989013504
1580420492.53581,-0.988540474555581,-0.177492942702372,-0.114015411612115
1580420492.53981,-0.987075608453498,-0.177492942702372,-0.11792172121767
1580420492.54381,-0.98951705195697,-0.179934386205844,-0.120363164721141
1580420492.54781,-0.990005340657664,-0.179934386205844,-0.114991989013504
1580420492.55182,-0.987563897154192,-0.181399252307926,-0.115480277714198
1580420492.55582,-0.985610742351415,-0.178469520103761,-0.115968566414892
1580420492.55982,-0.988540474555581,-0.176516365300984,-0.114991989013504
1580420492.56381,-0.988052185854887,-0.177004654001678,-0.112062256809338
1580420492.56781,-0.985610742351415,-0.177004654001678,-0.113527122911421
1580420492.57181,-0.982192721446555,-0.181887541008621,-0.115968566414892
1580420492.57581,-0.985122453650721,-0.188723582818341,-0.118410009918364
1580420492.57981,-0.985122453650721,-0.193118181124589,-0.115480277714198
1580420492.58381,-0.984634164950027,-0.195071335927366,-0.109132524605172
1580420492.58781,-0.990005340657664,-0.195559624628061,-0.111573968108644
1580420492.59181,-0.98951705195697,-0.194583047226672,-0.115968566414892
1580420492.5958,-0.991958495460441,-0.191653315022506,-0.115968566414892
1580420492.5998,-0.991470206759747,-0.187747005416952,-0.115480277714198
1580420492.6038,-0.993911650263218,-0.189211871519035,-0.115968566414892
1580420492.6078,-0.98951705195697,-0.186770428015564,-0.113527122911421
1580420492.6118,-0.987075608453498,-0.185305561913481,-0.118898298619058
1580420492.6158,-0.985122453650721,-0.180910963607232,-0.114991989013504
1580420492.6198,-0.97926298924239,-0.175539787899595,-0.120851453421835
1580420492.6238,-0.982192721446555,-0.175539787899595,-0.119386587319752
1580420492.62779,-0.981216144045167,-0.176516365300984,-0.120363164721141
1580420492.63177,-0.981216144045167,-0.175051499198901,-0.116456855115587
1580420492.63577,-0.981704432745861,-0.176516365300984,-0.11792172121767
1580420492.63977,-0.979751277943084,-0.178957808804455,-0.120363164721141
1580420492.64377,-0.981216144045167,-0.179934386205844,-0.12133974212253
1580420492.64777,-0.980727855344472,-0.178469520103761,-0.121828030823224
1580420492.65177,-0.979751277943084,-0.180910963607232,-0.121828030823224
1580420492.65577,-0.981704432745861,-0.183840695811398,-0.11108567940795
1580420492.65977,-0.985122453650721,-0.184328984512092,-0.116945143816281
1580420492.66376,-0.983657587548638,-0.179934386205844,-0.118898298619058
1580420492.66776,-0.985122453650721,-0.180910963607232,-0.124269474326695
1580420492.67176,-0.98609903105211,-0.183352407110704,-0.122316319523918
1580420492.67576,-0.990005340657664,-0.187258716716258,-0.126222629129472
1580420492.67976,-0.988540474555581,-0.189700160219729,-0.124269474326695
1580420492.68376,-0.98951705195697,-0.193118181124589,-0.120363164721141
1580420492.68776,-0.990981918059052,-0.191165026321812,-0.120363164721141
1580420492.69176,-0.990981918059052,-0.188235294117646,-0.118410009918364
1580420492.69576,-0.98609903105211,-0.185305561913481,-0.125734340428778
1580420492.69975,-0.984145876249332,-0.184328984512092,-0.122804608224612
1580420492.70375,-0.981704432745861,-0.181887541008621,-0.120363164721141
1580420492.70775,-0.981216144045167,-0.182864118410009,-0.121828030823224
1580420492.71176,-0.98268101014725,-0.182375829709315,-0.120851453421835
1580420492.71576,-0.985122453650721,-0.183840695811398,-0.118898298619058
1580420492.71976,-0.988540474555581,-0.184328984512092,-0.118898298619058
1580420492.72376,-0.989028763256275,-0.185793850614175,-0.117433432516975
1580420492.72776,-0.990005340657664,-0.184328984512092,-0.116456855115587
1580420492.73176,-0.988052185854887,-0.184328984512092,-0.12133974212253
1580420492.73575,-0.989028763256275,-0.181399252307926,-0.116945143816281
1580420492.73975,-0.989028763256275,-0.181399252307926,-0.119386587319752
1580420492.74375,-0.98609903105211,-0.181887541008621,-0.119386587319752
1580420492.74775,-0.988052185854887,-0.183840695811398,-0.115480277714198
1580420492.75175,-0.988052185854887,-0.179446097505149,-0.119874876020447
1580420492.75575,-0.985610742351415,-0.180910963607232,-0.117433432516975
1580420492.75975,-0.98268101014725,-0.176028076600289,-0.116456855115587
1580420492.76374,-0.985122453650721,-0.170656900892652,-0.117433432516975
1580420492.76774,-0.981704432745861,-0.170168612191958,-0.114991989013504
1580420492.77174,-0.979751277943084,-0.169192034790569,-0.119874876020447
1580420492.77574,-0.985610742351415,-0.170168612191958,-0.115968566414892
1580420492.77974,-0.983657587548638,-0.174074921797512,-0.113038834210727
1580420492.78374,-0.990005340657664,-0.174563210498206,-0.11792172121767
1580420492.78774,-0.987563897154192,-0.175051499198901,-0.112550545510032
1580420492.79172,-0.98609903105211,-0.176028076600289,-0.115480277714198
1580420492.79572,-0.982192721446555,-0.173098344396124,-0.116945143816281
1580420492.79972,-0.986587319752804,-0.167238879987792,-0.115968566414892
1580420492.80371,-0.985610742351415,-0.166750591287098,-0.11792172121767
1580420492.80771,-0.984634164950027,-0.171145189593346,-0.122316319523918
1580420492.81171,-0.98268101014725,-0.171145189593346,-0.114991989013504
1580420492.81571,-0.988052185854887,-0.176028076600289,-0.121828030823224
1580420492.81971,-0.992446784161135,-0.170656900892652,-0.115968566414892
1580420492.82371,-0.993423361562524,-0.169192034790569,-0.11792172121767
1580420492.82771,-0.991958495460441,-0.174074921797512,-0.118410009918364
1580420492.8317,-0.998794537270161,-0.172610055695429,-0.121828030823224
1580420492.8357,-1.00172426947433,-0.172610055695429,-0.123292896925307
1580420492.8397,-1.00807202258335,-0.177492942702372,-0.122316319523918
1580420492.8437,-1.00856031128405,-0.176028076600289,-0.123781185626001
1580420492.8477,-1.00856031128405,-0.175051499198901,-0.126222629129472
1580420492.8517,-1.00660715648127,-0.175539787899595,-0.133546959639887
1580420492.8557,-1.00074769207294,-0.174563210498206,-0.131105516136415
1580420492.8597,-0.998306248569467,-0.175051499198901,-0.127687495231555
1580420492.86369,-0.990493629358358,-0.178469520103761,-0.125246051728084
1580420492.86769,-0.986587319752804,-0.178469520103761,-0.120851453421835
1580420492.8717,-0.98268101014725,-0.178957808804455,-0.123292896925307
1580420492.8757,-0.978286411841001,-0.179446097505149,-0.115968566414892
1580420492.8797,-0.975356679636835,-0.180910963607232,-0.115968566414892
1580420492.8837,-0.976333257038224,-0.179446097505149,-0.117433432516975
1580420492.8877,-0.979751277943084,-0.177004654001678,-0.113527122911421
1580420492.8917,-0.980727855344472,-0.174074921797512,-0.114991989013504
1580420492.8957,-0.98268101014725,-0.172610055695429,-0.119874876020447
1580420492.89969,-0.987563897154192,-0.169680323491264,-0.11792172121767
1580420492.90369,-0.988052185854887,-0.171633478294041,-0.114991989013504
1580420492.90769,-0.987075608453498,-0.172610055695429,-0.110597390707255
1580420492.91169,-0.990981918059052,-0.172610055695429,-0.116945143816281
1580420492.91569,-0.990493629358358,-0.177492942702372,-0.110109102006561
1580420492.91969,-0.990493629358358,-0.175051499198901,-0.111573968108644
1580420492.92369,-0.989028763256275,-0.181887541008621,-0.114991989013504
1580420492.92769,-0.98951705195697,-0.183840695811398,-0.106691081101701
1580420492.93168,-0.987563897154192,-0.186282139314869,-0.113527122911421
1580420492.93568,-0.988540474555581,-0.187747005416952,-0.109132524605172
1580420492.93968,-0.990005340657664,-0.185305561913481,-0.110109102006561
1580420492.94368,-0.989028763256275,-0.183840695811398,-0.109620813305867
1580420492.94768,-0.983657587548638,-0.182375829709315,-0.110109102006561
1580420492.95166,-0.982192721446555,-0.182864118410009,-0.109620813305867
1580420492.95566,-0.98609903105211,-0.182375829709315,-0.110109102006561
1580420492.95966,-0.98951705195697,-0.182864118410009,-0.113038834210727
1580420492.96366,-0.988540474555581,-0.185305561913481,-0.113527122911421
1580420492.96765,-0.991958495460441,-0.182864118410009,-0.114991989013504
1580420492.97165,-0.995376516365301,-0.181887541008621,-0.117433432516975
1580420492.97565,-0.994399938963912,-0.183352407110704,-0.113038834210727
1580420492.97965,-0.994888227664607,-0.180910963607232,-0.116945143816281
1580420492.98365,-0.993911650263218,-0.180910963607232,-0.116945143816281
1580420492.98765,-0.994888227664607,-0.175539787899595,-0.114991989013504
1580420492.99165,-0.995864805065995,-0.179446097505149,-0.119386587319752
1580420492.99565,-0.998306248569467,-0.179934386205844,-0.122316319523918
1580420492.99964,-0.99635309376669,-0.179934386205844,-0.120851453421835
1580420493.00364,-0.997817959868772,-0.181887541008621,-0.119386587319752
1580420493.00764,-0.997329671168078,-0.185305561913481,-0.111573968108644
1580420493.01164,-0.99293507286183,-0.186282139314869,-0.110109102006561
1580420493.01564,-0.994888227664607,-0.186282139314869,-0.110597390707255
1580420493.01964,-0.995864805065995,-0.183840695811398,-0.11108567940795
1580420493.02364,-0.994888227664607,-0.188723582818341,-0.106202792401007
1580420493.02764,-0.99293507286183,-0.189700160219729,-0.106691081101701
1580420493.03165,-0.99293507286183,-0.192629892423895,-0.101319905394064
1580420493.03565,-0.987075608453498,-0.195071335927366,-0.103761348897535
1580420493.03964,-0.985122453650721,-0.194583047226672,-0.101808194094758
1580420493.04364,-0.980727855344472,-0.191653315022506,-0.102784771496147
1580420493.04764,-0.97584496833753,-0.186282139314869,-0.102296482795452
1580420493.05164,-0.976333257038224,-0.183840695811398,-0.103273060196841
1580420493.05564,-0.979751277943084,-0.183352407110704,-0.105714503700312
1580420493.05964,-0.982192721446555,-0.177981231403066,-0.102784771496147
1580420493.06364,-0.986587319752804,-0.179934386205844,-0.102784771496147
1580420493.06763,-0.990981918059052,-0.185305561913481,-0.103273060196841
1580420493.07163,-0.993911650263218,-0.183840695811398,-0.102784771496147
1580420493.07563,-0.991470206759747,-0.192629892423895,-0.0925307087815668
1580420493.07963,-0.985610742351415,-0.190188448920424,-0.0915541313801782
1580420493.08363,-0.977798123140307,-0.188235294117646,-0.099855039291981
1580420493.08763,-0.975356679636835,-0.186282139314869,-0.0949721522850382
1580420493.09163,-0.973891813534753,-0.185305561913481,-0.0935072861829553
1580420493.09563,-0.969985503929198,-0.183840695811398,-0.0935072861829553
1580420493.09962,-0.969497215228504,-0.187258716716258,-0.0949721522850382
1580420493.10362,-0.973403524834058,-0.188723582818341,-0.0944838635843439
1580420493.10762,-0.980727855344472,-0.191653315022506,-0.0969253070878153
1580420493.1116,-0.984145876249332,-0.195071335927366,-0.0988784618905925
1580420493.1156,-0.991958495460441,-0.192141603723201,-0.0979018844892039
1580420493.1196,-0.990493629358358,-0.196536202029449,-0.0915541313801782
1580420493.1236,-0.988540474555581,-0.197024490730143,-0.0910658426794839
1580420493.1276,-0.993911650263218,-0.198489356832226,-0.0896009765774011
1580420493.1316,-0.99635309376669,-0.196536202029449,-0.0993667505912867
1580420493.13559,-1.00172426947433,-0.191165026321812,-0.0983901731898982
1580420493.13959,-1.0041657129778,-0.191653315022506,-0.101319905394064
1580420493.14359,-1.00660715648127,-0.190676737621118,-0.0949721522850382
1580420493.14759,-1.00611886778058,-0.193118181124589,-0.0969253070878153
1580420493.15159,-1.00465400167849,-0.191653315022506,-0.0861829556725411
1580420493.15559,-1.00318913557641,-0.187747005416952,-0.0856946669718468
1580420493.15959,-0.999282825970855,-0.182864118410009,-0.0920424200808725
1580420493.16359,-0.999282825970855,-0.178469520103761,-0.0856946669718468
1580420493.16758,-0.997817959868772,-0.174563210498206,-0.0871595330739297
1580420493.17158,-0.990981918059052,-0.174074921797512,-0.0910658426794839
1580420493.17558,-0.992446784161135,-0.177004654001678,-0.0949721522850382
1580420493.17958,-0.994399938963912,-0.177004654001678,-0.0915541313801782
1580420493.18358,-0.99635309376669,-0.176516365300984,-0.0842298008697639
1580420493.18758,-0.999282825970855,-0.177004654001678,-0.0832532234683754
1580420493.19159,-1.0041657129778,-0.175539787899595,-0.0852063782711525
1580420493.19559,-1.01002517738613,-0.170656900892652,-0.0852063782711525
1580420493.19959,-1.01344319829099,-0.166750591287098,-0.0876478217746239
1580420493.20358,-1.01979095140002,-0.164309147783626,-0.0896009765774011
1580420493.20758,-1.02320897230488,-0.160891126878766,-0.0861829556725411
1580420493.21158,-1.02662699320974,-0.166262302586404,-0.0915541313801782
1580420493.21558,-1.02760357061112,-0.170168612191958,-0.0974135957885096
1580420493.21958,-1.02858014801251,-0.180910963607232,-0.0910658426794839
1580420493.22358,-1.02906843671321,-0.184817273212786,-0.0944838635843439
1580420493.22758,-1.0295567254139,-0.191165026321812,-0.0881361104753182
1580420493.23158,-1.02760357061112,-0.193118181124589,-0.0900892652780954
1580420493.23557,-1.02516212710765,-0.200930800335698,-0.0935072861829553
1580420493.23957,-1.02369726100557,-0.196536202029449,-0.0881361104753182
1580420493.24357,-1.0212558175021,-0.188723582818341,-0.0827649347676811
1580420493.24757,-1.02565041580835,-0.181399252307926,-0.0715342946517126
1580420493.25157,-1.03639276722362,-0.170656900892652,-0.0666514076447697
1580420493.25557,-1.04127565423056,-0.163820859082932,-0.0710460059510183
1580420493.25957,-1.04420538643473,-0.160402838178072,-0.0715342946517126
1580420493.26357,-1.04371709773404,-0.157961394674601,-0.0759288929579611
1580420493.26757,-1.04225223163195,-0.158449683375295,-0.0847180895704582
1580420493.27154,-1.04469367513542,-0.156496528572518,-0.0910658426794839
1580420493.27554,-1.0466468299382,-0.147219043259327,-0.0939955748836496
1580420493.27954,-1.04420538643473,-0.146242465857938,-0.0974135957885096
1580420493.28354,-1.03199816891737,-0.157473105973907,-0.0993667505912867
1580420493.28754,-1.02174410620279,-0.163332570382238,-0.0876478217746239
1580420493.29154,-1.01197833218891,-0.171633478294041,-0.0783703364614325
1580420493.29554,-1.00953688868544,-0.177981231403066,-0.0681162737468526
1580420493.29954,-1.00856031128405,-0.182864118410009,-0.0539559014267184
1580420493.30353,-1.01100175478752,-0.185793850614175,-0.0529793240253298
1580420493.30753,-1.00563057907988,-0.179446097505149,-0.048096437018387
1580420493.31153,-1.00270084687572,-0.170168612191958,-0.0583504997329669
1580420493.31553,-0.997817959868772,-0.161379415579461,-0.0617685206378269
1580420493.31953,-0.99635309376669,-0.159914549477378,-0.0729991607537954
1580420493.32353,-0.994399938963912,-0.163332570382238,-0.0871595330739297
1580420493.32753,-0.990981918059052,-0.165285725185015,-0.0939955748836496
1580420493.33153,-0.992446784161135,-0.170168612191958,-0.0993667505912867
1580420493.33553,-0.994399938963912,-0.172610055695429,-0.101319905394064
1580420493.33952,-0.997329671168078,-0.179934386205844,-0.103273060196841
1580420493.34352,-1.00025940337224,-0.186282139314869,-0.108155947203784
1580420493.34752,-0.997817959868772,-0.192629892423895,-0.106202792401007
1580420493.35153,-0.994888227664607,-0.193606469825284,-0.099855039291981
1580420493.35553,-0.987563897154192,-0.185793850614175,-0.0969253070878153
1580420493.35953,-0.985122453650721,-0.177981231403066,-0.0974135957885096
1580420493.36353,-0.983169298847944,-0.172610055695429,-0.099855039291981
1580420493.36753,-0.983657587548638,-0.169192034790569,-0.0944838635843439
1580420493.37152,-0.991470206759747,-0.165774013885709,-0.0979018844892039
1580420493.37552,-1.00221255817502,-0.158937972075989,-0.0979018844892039
1580420493.37952,-1.00953688868544,-0.138918135347524,-0.0920424200808725
1580420493.38352,-1.01002517738613,-0.11792172121767,-0.0915541313801782
1580420493.38752,-0.997329671168078,-0.114015411612115,-0.10766765850309
1580420493.39152,-0.98268101014725,-0.136964980544747,-0.141847867551689
1580420493.39552,-0.972915236133364,-0.154055085069047,-0.168703746089875
1580420493.39952,-0.971938658731975,-0.155519951171129,-0.176516365300984
1580420493.40351,-0.987563897154192,-0.129152361333638,-0.186282139314869
1580420493.40751,-1.0036774242771,-0.0979018844892039,-0.174563210498206
1580420493.41151,-1.01686121919585,-0.067139696345464,-0.170168612191958
1580420493.41551,-1.02467383840696,-0.0490730144197755,-0.159914549477378
1580420493.41951,-1.01344319829099,-0.0500495918211641,-0.160402838178072
1580420493.42351,-1.00074769207294,-0.0686045624475469,-0.158937972075989
1580420493.42751,-0.988540474555581,-0.0944838635843439,-0.148195620660715
1580420493.43149,-0.977309834439613,-0.130617227435721,-0.142336156252384
1580420493.43549,-0.969985503929198,-0.164797436484321,-0.135988403143358
1580420493.43948,-0.962661173418784,-0.203860532539863,-0.134523537041275
1580420493.44348,-0.960708018616007,-0.227786678873883,-0.137941557946135
1580420493.44748,-0.954848554207675,-0.250736247806516,-0.142824444953078
1580420493.45148,-0.953871976806287,-0.261478599221791,-0.136476691844052
1580420493.45548,-0.95191882200351,-0.262943465323874,-0.129640650034332
1580420493.45948,-0.951430533302815,-0.262455176623179,-0.12133974212253
1580420493.46348,-0.952407110704204,-0.259037155718319,-0.11108567940795
1580420493.46748,-0.952407110704204,-0.256595712214848,-0.108644235904478
1580420493.47147,-0.946059357595178,-0.252689402609294,-0.105714503700312
1580420493.47547,-0.948989089799344,-0.241458762493323,-0.104737926298924
1580420493.47947,-0.952895399404898,-0.229739833676661,-0.103761348897535
1580420493.48347,-0.953871976806287,-0.223392080567635,-0.106691081101701
1580420493.48747,-0.95533684290837,-0.211184863050278,-0.10424963759823
1580420493.49147,-0.959243152513924,-0.207766842145418,-0.106691081101701
1580420493.49547,-0.960219729915313,-0.200930800335698,-0.102784771496147
1580420493.49947,-0.962661173418784,-0.197512779430838,-0.0954604409857325
1580420493.50346,-0.962661173418784,-0.188235294117646,-0.0896009765774011
1580420493.50746,-0.961684596017395,-0.187258716716258,-0.0798352025635154
1580420493.51147,-0.962661173418784,-0.183840695811398,-0.0769054703593497
1580420493.51547,-0.961684596017395,-0.178957808804455,-0.067139696345464
1580420493.51947,-0.96217288471809,-0.175051499198901,-0.0617685206378269
1580420493.52347,-0.964126039520867,-0.175051499198901,-0.0549324788281069
1580420493.52747,-0.964126039520867,-0.171633478294041,-0.0510261692225527
1580420493.53147,-0.971938658731975,-0.169192034790569,-0.0485847257190812
1580420493.53547,-0.976821545738918,-0.164309147783626,-0.0358892195010299
1580420493.53947,-0.981704432745861,-0.162355992980849,-0.0363775082017241
1580420493.54346,-0.983657587548638,-0.158449683375295,-0.0295414663920042
1580420493.54746,-0.986587319752804,-0.159914549477378,-0.0314946211947813
1580420493.55146,-0.990005340657664,-0.159914549477378,-0.0246585793850613
1580420493.55546,-0.996841382467384,-0.163820859082932,-0.0187991149767299
1580420493.55946,-1.00123598077363,-0.162844281681544,-0.0178225375753414
1580420493.56346,-1.00172426947433,-0.166262302586404,-0.0183108262760356
1580420493.56746,-1.00514229037919,-0.168215457389181,-0.0163576714732585
1580420493.57146,-1.00660715648127,-0.165774013885709,-0.0134279392690928
1580420493.57545,-1.01002517738613,-0.167238879987792,-0.0163576714732585
1580420493.57945,-1.0124666208896,-0.171145189593346,-0.0227054245822842
1580420493.58345,-1.01393148699168,-0.172121766994735,-0.0202639810788128
1580420493.58745,-1.01783779659724,-0.171633478294041,-0.0217288471808956
1580420493.59143,-1.0129549095903,-0.174563210498206,-0.0192874036774242
1580420493.59543,-1.01344319829099,-0.177004654001678,-0.0285648889906156
1580420493.59943,-1.01197833218891,-0.178957808804455,-0.0314946211947813
1580420493.60343,-1.01002517738613,-0.178957808804455,-0.0266117341878385
1580420493.60742,-1.00758373388266,-0.178957808804455,-0.0314946211947813
1580420493.61142,-1.0036774242771,-0.184817273212786,-0.0354009308003356
1580420493.61542,-1.00270084687572,-0.183352407110704,-0.037842374303807
1580420493.61942,-0.998794537270161,-0.181887541008621,-0.0383306630045013
1580420493.62342,-0.996841382467384,-0.183352407110704,-0.0393072404058898
1580420493.62742,-0.990005340657664,-0.183352407110704,-0.0397955291065841
1580420493.63142,-0.990005340657664,-0.182864118410009,-0.037842374303807
1580420493.63542,-0.986587319752804,-0.186282139314869,-0.0422369726100555
1580420493.63942,-0.983657587548638,-0.188723582818341,-0.0466315709163041
1580420493.64341,-0.984634164950027,-0.191653315022506,-0.0456549935149155
1580420493.64741,-0.981704432745861,-0.192629892423895,-0.0397955291065841
1580420493.65141,-0.981216144045167,-0.195071335927366,-0.0485847257190812
1580420493.65541,-0.984145876249332,-0.195071335927366,-0.0456549935149155
1580420493.65941,-0.985610742351415,-0.192629892423895,-0.048096437018387
1580420493.66341,-0.983169298847944,-0.190676737621118,-0.044678416113527
1580420493.66741,-0.979751277943084,-0.185305561913481,-0.0393072404058898
1580420493.67142,-0.981216144045167,-0.189211871519035,-0.0349126420996413
1580420493.67542,-0.981216144045167,-0.183352407110704,-0.0334477759975584
1580420493.67941,-0.981704432745861,-0.180910963607232,-0.034424353398947
1580420493.68341,-0.97584496833753,-0.177492942702372,-0.0373540856031127
1580420493.68741,-0.978774700541695,-0.181399252307926,-0.034424353398947
1580420493.69141,-0.972915236133364,-0.181399252307926,-0.0324711985961699
1580420493.69541,-0.96900892652781,-0.179934386205844,-0.0290531776913099
1580420493.69941,-0.967544060425727,-0.184817273212786,-0.0295414663920042
1580420493.70341,-0.960708018616007,-0.184817273212786,-0.0373540856031127
1580420493.70741,-0.960708018616007,-0.186282139314869,-0.0393072404058898
1580420493.7114,-0.957289997711147,-0.183352407110704,-0.0402838178072784
1580420493.7154,-0.958266575112535,-0.178957808804455,-0.0476081483176927
1580420493.7194,-0.956313420309758,-0.174563210498206,-0.0510261692225527
1580420493.7234,-0.95191882200351,-0.173098344396124,-0.0520027466239412
1580420493.7274,-0.950942244602121,-0.173098344396124,-0.0520027466239412
1580420493.7314,-0.950453955901427,-0.173098344396124,-0.0539559014267184
1580420493.7354,-0.94850080109865,-0.174074921797512,-0.060303654535744
1580420493.7394,-0.947524223697261,-0.174563210498206,-0.0681162737468526
1580420493.74339,-0.947524223697261,-0.175051499198901,-0.0666514076447697
1580420493.74739,-0.94850080109865,-0.173098344396124,-0.0749523155565726
1580420493.75137,-0.945571068894484,-0.172121766994735,-0.0827649347676811
1580420493.75537,-0.94850080109865,-0.170656900892652,-0.0876478217746239
1580420493.75937,-0.953383688105593,-0.173098344396124,-0.0876478217746239
1580420493.76337,-0.957289997711147,-0.174074921797512,-0.101319905394064
1580420493.76737,-0.964614328221561,-0.178957808804455,-0.102296482795452
1580420493.77137,-0.96900892652781,-0.182375829709315,-0.108644235904478
1580420493.77536,-0.971938658731975,-0.182864118410009,-0.111573968108644
1580420493.77936,-0.97584496833753,-0.186770428015564,-0.117433432516975
1580420493.78336,-0.976821545738918,-0.185793850614175,-0.119386587319752
1580420493.78736,-0.972915236133364,-0.183352407110704,-0.128175783932249
1580420493.79136,-0.969985503929198,-0.181887541008621,-0.136476691844052
1580420493.79536,-0.964614328221561,-0.179934386205844,-0.128664072632944
1580420493.79936,-0.96559090562295,-0.177492942702372,-0.136476691844052
1580420493.80336,-0.966079194323644,-0.174563210498206,-0.138918135347524
1580420493.80736,-0.964126039520867,-0.174563210498206,-0.135988403143358
1580420493.81135,-0.963637750820173,-0.175051499198901,-0.135500114442664
1580420493.81535,-0.965102616922255,-0.178469520103761,-0.128175783932249
1580420493.81935,-0.966567483024338,-0.181399252307926,-0.12133974212253
1580420493.82335,-0.967055771725033,-0.183352407110704,-0.125734340428778
1580420493.82735,-0.96900892652781,-0.181399252307926,-0.122316319523918
1580420493.83133,-0.970962081330587,-0.181887541008621,-0.119874876020447
1580420493.83533,-0.971938658731975,-0.180910963607232,-0.113038834210727
1580420493.83933,-0.976333257038224,-0.176028076600289,-0.113527122911421
1580420493.84332,-0.973891813534753,-0.170656900892652,-0.110109102006561
1580420493.84732,-0.97242694743267,-0.167727168688486,-0.108155947203784
1580420493.85132,-0.968032349126421,-0.163332570382238,-0.104737926298924
1580420493.85532,-0.968520637827115,-0.163820859082932,-0.105226214999618
1580420493.85932,-0.963637750820173,-0.161379415579461,-0.0988784618905925
1580420493.86332,-0.963637750820173,-0.163820859082932,-0.102784771496147
1580420493.86732,-0.965102616922255,-0.164309147783626,-0.0969253070878153
1580420493.87132,-0.967055771725033,-0.168215457389181,-0.0969253070878153
1580420493.87531,-0.962661173418784,-0.172121766994735,-0.0979018844892039
1580420493.87931,-0.961684596017395,-0.175051499198901,-0.0930189974822611
1580420493.88331,-0.962661173418784,-0.184328984512092,-0.0979018844892039
1580420493.88731,-0.96559090562295,-0.184817273212786,-0.0935072861829553
1580420493.89131,-0.968032349126421,-0.187258716716258,-0.0910658426794839
1580420493.89531,-0.968520637827115,-0.189700160219729,-0.0900892652780954
1580420493.89931,-0.971450370031281,-0.193118181124589,-0.0896009765774011
1580420493.90331,-0.971938658731975,-0.192141603723201,-0.0896009765774011
1580420493.90731,-0.976333257038224,-0.197024490730143,-0.0930189974822611
1580420493.91132,-0.983657587548638,-0.197512779430838,-0.0925307087815668
1580420493.91531,-0.987563897154192,-0.198001068131532,-0.100343327992675
1580420493.91931,-0.988540474555581,-0.196047913328755,-0.099855039291981
1580420493.92331,-0.991470206759747,-0.195071335927366,-0.101808194094758
1580420493.92731,-0.988540474555581,-0.188723582818341,-0.101808194094758
1580420493.93131,-0.990005340657664,-0.187747005416952,-0.106202792401007
1580420493.93531,-0.990493629358358,-0.183352407110704,-0.10424963759823
1580420493.93931,-0.992446784161135,-0.187747005416952,-0.105714503700312
1580420493.94331,-0.994888227664607,-0.187258716716258,-0.10766765850309
1580420493.9473,-0.996841382467384,-0.194094758525978,-0.109132524605172
1580420493.9513,-0.995864805065995,-0.197024490730143,-0.103273060196841
1580420493.9553,-0.995864805065995,-0.202883955138475,-0.101319905394064
1580420493.9593,-0.995376516365301,-0.200930800335698,-0.10083161669337
1580420493.9633,-0.993911650263218,-0.201907377737086,-0.0988784618905925
1580420493.9673,-0.991958495460441,-0.202883955138475,-0.0939955748836496
1580420493.9713,-0.990493629358358,-0.195559624628061,-0.0920424200808725
1580420493.9753,-0.990981918059052,-0.190188448920424,-0.0871595330739297
1580420493.97929,-0.990005340657664,-0.182375829709315,-0.0847180895704582
1580420493.98329,-0.991470206759747,-0.181399252307926,-0.0798352025635154
1580420493.98729,-0.994888227664607,-0.177492942702372,-0.0827649347676811
1580420493.9913,-0.994399938963912,-0.177004654001678,-0.0729991607537954
1580420493.9953,-0.994888227664607,-0.177981231403066,-0.070557717250324
1580420493.9993,-0.993911650263218,-0.183352407110704,-0.0666514076447697
1580420494.0033,-0.98951705195697,-0.187747005416952,-0.0666514076447697
1580420494.0073,-0.984634164950027,-0.191165026321812,-0.0622568093385212
1580420494.0113,-0.987563897154192,-0.191653315022506,-0.0627450980392155
1580420494.0153,-0.985610742351415,-0.191653315022506,-0.0612802319371326
1580420494.01929,-0.987075608453498,-0.187258716716258,-0.0578622110322726
1580420494.02329,-0.98951705195697,-0.182864118410009,-0.0573739223315783
1580420494.02729,-0.99635309376669,-0.175539787899595,-0.0642099641412983
1580420494.03129,-0.999282825970855,-0.171633478294041,-0.0588387884336612
1580420494.03529,-1.00025940337224,-0.167238879987792,-0.0598153658350498
1580420494.03929,-1.00856031128405,-0.164309147783626,-0.0612802319371326
1580420494.04329,-1.00465400167849,-0.165774013885709,-0.0568856336308841
1580420494.04728,-1.00660715648127,-0.170656900892652,-0.0568856336308841
1580420494.05128,-1.00465400167849,-0.177981231403066,-0.0524910353246355
1580420494.05528,-1.0041657129778,-0.186282139314869,-0.0510261692225527
1580420494.05928,-1.00514229037919,-0.192629892423895,-0.0505378805218584
1580420494.06328,-1.00709544518196,-0.199954222934309,-0.0500495918211641
1580420494.06728,-1.00221255817502,-0.199954222934309,-0.044678416113527
1580420494.07126,-1.00318913557641,-0.198001068131532,-0.0461432822156098
1580420494.07526,-1.00172426947433,-0.191653315022506,-0.0451667048142212
1580420494.07926,-1.00123598077363,-0.188723582818341,-0.0510261692225527
1580420494.08325,-1.00025940337224,-0.190188448920424,-0.0510261692225527
1580420494.08725,-1.00123598077363,-0.187258716716258,-0.0510261692225527
1580420494.09125,-1.00270084687572,-0.184328984512092,-0.0490730144197755
1580420494.09525,-1.0036774242771,-0.186282139314869,-0.0510261692225527
1580420494.09925,-1.0041657129778,-0.185305561913481,-0.0515144579232469
1580420494.10325,-1.00025940337224,-0.186770428015564,-0.0529793240253298
1580420494.10725,-0.993911650263218,-0.193118181124589,-0.0607919432364383
1580420494.11125,-0.99293507286183,-0.198001068131532,-0.0549324788281069
1580420494.11524,-0.988540474555581,-0.202395666437781,-0.0554207675288012
1580420494.11924,-0.985610742351415,-0.205325398641946,-0.0612802319371326
1580420494.12324,-0.983657587548638,-0.213138017853055,-0.0607919432364383
1580420494.12724,-0.987075608453498,-0.215091172655832,-0.0549324788281069
1580420494.13124,-0.991958495460441,-0.213626306553749,-0.0583504997329669
1580420494.13524,-0.994888227664607,-0.214602883955138,-0.0559090562294955
1580420494.13924,-0.998306248569467,-0.214114595254443,-0.070557717250324
1580420494.14324,-1.00172426947433,-0.209231708247501,-0.0681162737468526
1580420494.14723,-1.00221255817502,-0.205813687342641,-0.0651865415426869
1580420494.15124,-1.00465400167849,-0.200442511635003,-0.0646982528419926
1580420494.15524,-0.99977111467155,-0.198977645532921,-0.0642099641412983
1580420494.15924,-1.00221255817502,-0.197024490730143,-0.0612802319371326
1580420494.16324,-0.998306248569467,-0.196047913328755,-0.063721675440604
1580420494.16724,-0.993911650263218,-0.196047913328755,-0.0651865415426869
1580420494.17124,-0.995376516365301,-0.194094758525978,-0.0612802319371326
1580420494.17524,-0.993423361562524,-0.196047913328755,-0.0656748302433812
1580420494.17924,-0.98951705195697,-0.193606469825284,-0.0686045624475469
1580420494.18323,-0.987075608453498,-0.195559624628061,-0.0690928511482412
1580420494.18723,-0.987075608453498,-0.191165026321812,-0.0690928511482412
1580420494.19123,-0.985610742351415,-0.183840695811398,-0.0700694285496297
1580420494.19523,-0.988540474555581,-0.176516365300984,-0.0720225833524069
1580420494.19923,-0.991958495460441,-0.164797436484321,-0.0686045624475469
1580420494.20323,-0.994399938963912,-0.151125352864881,-0.0720225833524069
1580420494.20723,-0.992446784161135,-0.141359578850995,-0.070557717250324
1580420494.21123,-0.996841382467384,-0.135988403143358,-0.0725108720531011
1580420494.21522,-0.998794537270161,-0.127687495231555,-0.0700694285496297
1580420494.21922,-1.00123598077363,-0.121828030823224,-0.0686045624475469
1580420494.22322,-1.00270084687572,-0.114991989013504,-0.0646982528419926
1580420494.22722,-1.00074769207294,-0.110597390707255,-0.0656748302433812
1580420494.2312,-1.00123598077363,-0.103761348897535,-0.070557717250324
1580420494.2352,-1.00221255817502,-0.0974135957885096,-0.0695811398489354
1580420494.2392,-1.00221255817502,-0.0925307087815668,-0.0720225833524069
1580420494.2432,-1.00221255817502,-0.0876478217746239,-0.0715342946517126
1580420494.2472,-0.99977111467155,-0.0783703364614325,-0.0754406042572668
1580420494.25119,-1.00611886778058,-0.0729991607537954,-0.0734874494544897
1580420494.25519,-1.00660715648127,-0.0715342946517126,-0.0798352025635154
1580420494.25919,-1.00758373388266,-0.0710460059510183,-0.0822766460669868
1580420494.26319,-1.01686121919585,-0.0759288929579611,-0.0847180895704582
1580420494.26719,-1.01734950789654,-0.0798352025635154,-0.0847180895704582
1580420494.27119,-1.01930266269932,-0.0803234912642097,-0.0900892652780954
1580420494.27519,-1.02223239490349,-0.0896009765774011,-0.0876478217746239
1580420494.27919,-1.01637293049516,-0.0905775539787896,-0.0905775539787896
1580420494.28319,-1.0124666208896,-0.0886243991760125,-0.0891126878767068
1580420494.28718,-1.00660715648127,-0.0856946669718468,-0.0896009765774011
1580420494.29118,-0.997329671168078,-0.0861829556725411,-0.0881361104753182
1580420494.29518,-0.992446784161135,-0.0832532234683754,-0.0876478217746239
1580420494.29918,-0.98951705195697,-0.0852063782711525,-0.0856946669718468
1580420494.30318,-0.98609903105211,-0.0852063782711525,-0.0866712443732354
1580420494.30718,-0.986587319752804,-0.0852063782711525,-0.0896009765774011
1580420494.31119,-0.990005340657664,-0.0871595330739297,-0.0803234912642097
1580420494.31519,-0.990493629358358,-0.0891126878767068,-0.0871595330739297
1580420494.31919,-0.990493629358358,-0.0896009765774011,-0.0900892652780954
1580420494.32318,-0.993423361562524,-0.0915541313801782,-0.0969253070878153
1580420494.32718,-0.993423361562524,-0.0896009765774011,-0.0993667505912867
1580420494.33118,-0.998306248569467,-0.0905775539787896,-0.101808194094758
1580420494.33518,-0.99635309376669,-0.0852063782711525,-0.104737926298924
1580420494.33918,-0.995376516365301,-0.0852063782711525,-0.100343327992675
1580420494.34318,-0.994888227664607,-0.0813000686655982,-0.101319905394064
1580420494.34718,-0.992446784161135,-0.0803234912642097,-0.101319905394064
1580420494.35117,-0.99293507286183,-0.080811779964904,-0.103761348897535
1580420494.35517,-0.987075608453498,-0.0852063782711525,-0.101808194094758
1580420494.35917,-0.987075608453498,-0.080811779964904,-0.101319905394064
1580420494.36317,-0.985610742351415,-0.0793469138628211,-0.10424963759823
1580420494.36717,-0.983657587548638,-0.0759288929579611,-0.103273060196841
1580420494.37117,-0.981216144045167,-0.0715342946517126,-0.113527122911421
1580420494.37517,-0.987563897154192,-0.0676279850461583,-0.11108567940795
1580420494.37917,-0.98951705195697,-0.0642099641412983,-0.110597390707255
1580420494.38316,-0.995376516365301,-0.0622568093385212,-0.109620813305867
1580420494.38716,-0.999282825970855,-0.0622568093385212,-0.11108567940795
1580420494.39114,-1.00465400167849,-0.0593270771343555,-0.11108567940795
1580420494.39514,-1.00709544518196,-0.0568856336308841,-0.112062256809338
1580420494.39914,-1.00611886778058,-0.0554207675288012,-0.113527122911421
1580420494.40314,-1.00465400167849,-0.0549324788281069,-0.111573968108644
1580420494.40714,-0.999282825970855,-0.0515144579232469,-0.114991989013504
1580420494.41114,-1.00025940337224,-0.0466315709163041,-0.109132524605172
1580420494.41514,-1.00025940337224,-0.0388189517051956,-0.115968566414892
1580420494.41913,-1.00563057907988,-0.041260395208667,-0.110109102006561
1580420494.42313,-1.0041657129778,-0.0324711985961699,-0.112550545510032
1580420494.42713,-1.00514229037919,-0.031006332494087,-0.114015411612115
1580420494.43113,-1.00221255817502,-0.0227054245822842,-0.109620813305867
1580420494.43513,-1.00172426947433,-0.0168459601739528,-0.110109102006561
1580420494.43913,-0.998306248569467,-0.00952162966353853,-0.115480277714198
1580420494.44313,-1.00123598077363,0.000244144350347142,-0.113038834210727
1580420494.44713,-1.00611886778058,0.00122072175173571,-0.11108567940795
1580420494.45112,-1.00660715648127,0.00512703135728998,-0.107179369802395
1580420494.45512,-1.00953688868544,0.0104982070649271,-0.108155947203784
1580420494.45912,-1.01441977569238,0.0148928053711757,-0.106202792401007
1580420494.46312,-1.01832608529793,0.0187991149767299,-0.106202792401007
1580420494.46712,-1.02467383840696,0.0231937132829785,-0.105714503700312
1580420494.47113,-1.0295567254139,0.0349126420996413,-0.108155947203784
1580420494.47513,-1.03053330281529,0.0422369726100555,-0.109620813305867
1580420494.47913,-1.03150988021668,0.0505378805218584,-0.112062256809338
1580420494.48313,-1.03541618982223,0.0598153658350498,-0.114015411612115
1580420494.48712,-1.03053330281529,0.0651865415426869,-0.122804608224612
1580420494.49112,-1.02711528191043,0.0720225833524069,-0.122316319523918
1580420494.49512,-1.02906843671321,0.080811779964904,-0.12475776302739
1580420494.49912,-1.02906843671321,0.0920424200808725,-0.130128938735027
1580420494.50312,-1.03150988021668,0.099855039291981,-0.129640650034332
1580420494.50712,-1.03736934462501,0.105714503700312,-0.134035248340581
1580420494.51112,-1.04029907682918,0.111573968108644,-0.127199206530861
1580420494.51512,-1.04371709773404,0.112062256809338,-0.129152361333638
1580420494.51911,-1.04859998474098,0.115968566414892,-0.128175783932249
1580420494.52311,-1.05592431525139,0.120363164721141,-0.134035248340581
1580420494.52711,-1.05494773785,0.125246051728084,-0.132570382238498
1580420494.53111,-1.05690089265278,0.132570382238498,-0.128664072632944
1580420494.53511,-1.05885404745556,0.140871290150301,-0.129640650034332
1580420494.53911,-1.05738918135348,0.140871290150301,-0.124269474326695
1580420494.54311,-1.05885404745556,0.146242465857938,-0.125734340428778
1580420494.54711,-1.05983062485695,0.154543373769741,-0.126222629129472
1580420494.55109,-1.05885404745556,0.161379415579461,-0.122804608224612
1580420494.55508,-1.05738918135348,0.165285725185015,-0.120363164721141
1580420494.55908,-1.05494773785,0.178469520103761,-0.12133974212253
1580420494.56308,-1.05299458304723,0.187747005416952,-0.122804608224612
1580420494.56708,-1.0554360265507,0.198001068131532,-0.123781185626001
1580420494.57108,-1.05592431525139,0.215579461356526,-0.125246051728084
1580420494.57508,-1.05787747005417,0.230716411078049,-0.129152361333638
1580420494.57908,-1.05983062485695,0.247318226901655,-0.122804608224612
1580420494.58308,-1.06471351186389,0.264408331425955,-0.120851453421835
1580420494.58707,-1.06617837796597,0.280521858548866,-0.11792172121767
1580420494.59107,-1.06520180056458,0.295658808270389,-0.116456855115587
1580420494.59507,-1.06666666666667,0.309819180590523,-0.11792172121767
1580420494.59907,-1.07301441977569,0.322514686808574,-0.114991989013504
1580420494.60307,-1.07740901808194,0.3288624399176,-0.112550545510032
1580420494.60707,-1.08131532768749,0.334233615625237,-0.116456855115587
1580420494.61107,-1.08668650339513,0.332768749523154,-0.116456855115587
1580420494.61507,-1.09449912260624,0.335210193026626,-0.11792172121767
1580420494.61907,-1.09694056610971,0.332768749523154,-0.123292896925307
1580420494.62306,-1.09840543221179,0.331792172121766,-0.117433432516975
1580420494.62706,-1.09889372091249,0.331303883421072,-0.120363164721141
1580420494.63107,-1.10377660791943,0.330327306019683,-0.116456855115587
1580420494.63507,-1.10817120622568,0.328374151216906,-0.115480277714198
1580420494.63907,-1.11696040283818,0.332768749523154,-0.114015411612115
1580420494.64307,-1.1233081559472,0.332768749523154,-0.112062256809338
1580420494.64707,-1.13063248645762,0.333257038223849,-0.10766765850309
1580420494.65107,-1.14430457007706,0.332768749523154,-0.108644235904478
1580420494.65506,-1.15358205539025,0.331303883421072,-0.111573968108644
1580420494.65906,-1.16139467460136,0.335210193026626,-0.10424963759823
1580420494.66306,-1.17360189211871,0.337651636530097,-0.103273060196841
1580420494.66706,-1.18043793392843,0.335210193026626,-0.102784771496147
1580420494.67106,-1.18532082093538,0.338139925230792,-0.105714503700312
1580420494.67506,-1.19508659494926,0.338628213931486,-0.101808194094758
1580420494.67906,-1.19508659494926,0.343511100938429,-0.108155947203784
1580420494.68306,-1.20387579156176,0.351323720149537,-0.10424963759823
1580420494.68705,-1.20827038986801,0.357671473258563,-0.106202792401007
1580420494.69105,-1.21217669947356,0.360112916762034,-0.105714503700312
1580420494.69505,-1.22145418478675,0.361577782864117,-0.108644235904478
1580420494.69905,-1.22536049439231,0.358648050659951,-0.105714503700312
1580420494.70305,-1.22877851529717,0.35962462806134,-0.0993667505912867
1580420494.70705,-1.23024338139925,0.359136339360646,-0.0891126878767068
1580420494.71103,-1.22877851529717,0.3630426489662,-0.0866712443732354
1580420494.71503,-1.23170824750133,0.36646066987106,-0.0900892652780954
1580420494.71903,-1.22731364919509,0.369390402075226,-0.0900892652780954
1580420494.72302,-1.2263370717937,0.370855268177309,-0.0876478217746239
1580420494.72702,-1.22975509269856,0.37329671168078,-0.0876478217746239
1580420494.73102,-1.22926680399786,0.378667887388417,-0.0852063782711525
1580420494.73502,-1.23170824750133,0.382085908293277,-0.0866712443732354
1580420494.73902,-1.23610284580758,0.387945372701608,-0.0764171816586554
1580420494.74302,-1.23805600061036,0.391851682307163,-0.0793469138628211
1580420494.74702,-1.24440375371939,0.39038681620508,-0.0686045624475469
1580420494.75102,-1.25075150682841,0.390875104905774,-0.0642099641412983
1580420494.75501,-1.25270466163119,0.385015640497443,-0.0627450980392155
1580420494.75901,-1.26149385824369,0.383062485694666,-0.0627450980392155
1580420494.76301,-1.26832990005341,0.386480506599526,-0.0700694285496297
1580420494.76701,-1.27565423056382,0.384527351796748,-0.0813000686655982
1580420494.77101,-1.28102540627146,0.385992217898831,-0.0866712443732354
1580420494.77501,-1.28542000457771,0.379644464789806,-0.0935072861829553
1580420494.77901,-1.28395513847562,0.376226443884946,-0.0939955748836496
1580420494.78301,-1.28542000457771,0.368902113374531,-0.0891126878767068
1580420494.787,-1.27663080796521,0.361577782864117,-0.0930189974822611
1580420494.79101,-1.26393530174716,0.355718318455786,-0.0920424200808725
1580420494.79501,-1.25661097123674,0.347905699244677,-0.0905775539787896
1580420494.79901,-1.24635690852216,0.341069657434957,-0.0925307087815668
1580420494.80301,-1.243427176318,0.328374151216906,-0.099855039291981
1580420494.80701,-1.24245059891661,0.316655222400243,-0.106691081101701
1580420494.81101,-1.24440375371939,0.305424582284274,-0.110109102006561
1580420494.81501,-1.24147402151522,0.300541695277332,-0.118898298619058
1580420494.81901,-1.23854428931105,0.295658808270389,-0.116945143816281
1580420494.823,-1.24098573281453,0.291752498664835,-0.120363164721141
1580420494.827,-1.24440375371939,0.285404745555809,-0.118898298619058
1580420494.831,-1.24684519722286,0.282963302052337,-0.120851453421835
1580420494.835,-1.24538033112077,0.280033569848172,-0.119874876020447
1580420494.839,-1.24586861982147,0.276127260242617,-0.116945143816281
1580420494.843,-1.2429388876173,0.278080415045395,-0.118410009918364
1580420494.847,-1.2429388876173,0.275150682841229,-0.117433432516975
1580420494.851,-1.24147402151522,0.271244373235675,-0.118898298619058
1580420494.855,-1.24391546501869,0.265873197528038,-0.114991989013504
1580420494.85899,-1.2429388876173,0.258548867017623,-0.11450370031281
1580420494.86299,-1.23805600061036,0.257572289616235,-0.113038834210727
1580420494.86699,-1.23268482490272,0.259037155718318,-0.11450370031281
1580420494.87097,-1.22780193789578,0.273685816739146,-0.11108567940795
1580420494.87497,-1.21998931868467,0.285404745555809,-0.113038834210727
1580420494.87897,-1.2092469672694,0.30151827267872,-0.120851453421835
1580420494.88297,-1.19899290455482,0.3117723353933,-0.124269474326695
1580420494.88697,-1.18922713054093,0.316655222400243,-0.124269474326695
1580420494.89096,-1.17994964522774,0.319096665903714,-0.123781185626001
1580420494.89496,-1.17848477912566,0.316166933699549,-0.120851453421835
1580420494.89896,-1.17409018081941,0.309330891889829,-0.129152361333638
1580420494.90296,-1.16090638590066,0.303471427481497,-0.127199206530861
1580420494.90696,-1.15211718928817,0.29810025177386,-0.128664072632944
1580420494.91096,-1.1403982604715,0.299565117875943,-0.128175783932249
1580420494.91496,-1.12428473334859,0.297123674372472,-0.131105516136415
1580420494.91896,-1.11403067063401,0.303959716182192,-0.131105516136415
1580420494.92296,-1.10231174181735,0.309819180590523,-0.134035248340581
1580420494.92695,-1.09010452429999,0.309819180590523,-0.134035248340581
1580420494.93095,-1.08424505989166,0.308842603189134,-0.126222629129472
1580420494.93495,-1.07936217288472,0.307377737087052,-0.119874876020447
1580420494.93895,-1.07838559548333,0.304448004882886,-0.117433432516975
1580420494.94295,-1.08424505989166,0.296147096971083,-0.132082093537804
1580420494.94695,-1.09010452429999,0.293217364766917,-0.133058670939192
1580420494.95096,-1.09596398870832,0.287357900358586,-0.140871290150301
1580420494.95496,-1.10426489662013,0.28784618905928,-0.143312733653772
1580420494.95895,-1.10231174181735,0.294193942168306,-0.151613641565575
1580420494.96295,-1.09987029831388,0.312260624093994,-0.150148775463492
1580420494.96695,-1.09059281300069,0.32544441901274,-0.154543373769741
1580420494.97095,-1.07838559548333,0.337651636530097,-0.158449683375295
1580420494.97495,-1.06129549095903,0.347417410543983,-0.159426260776684
1580420494.97895,-1.04469367513542,0.344487678339817,-0.161867704280155
1580420494.98295,-1.02027924010071,0.340093080033569,-0.159426260776684
1580420494.98695,-1.00318913557641,0.331303883421072,-0.157961394674601
1580420494.99094,-0.981216144045167,0.321538109407186,-0.153566796368352
1580420494.99494,-0.961684596017395,0.308842603189134,-0.151613641565575
1580420494.99894,-0.94508278019379,0.300053406576637,-0.149172198062104
1580420495.00294,-0.932387273975738,0.292729076066223,-0.147219043259327
1580420495.00694,-0.92115663385977,0.290287632562752,-0.142336156252384
1580420495.01094,-0.907972838941024,0.287357900358586,-0.146242465857938
1580420495.01494,-0.899183642328527,0.289799343862057,-0.141359578850995
1580420495.01894,-0.89039444571603,0.293217364766917,-0.139406424048218
1580420495.02293,-0.879163805600061,0.294193942168306,-0.141359578850995
1580420495.02693,-0.87330434119173,0.295658808270389,-0.137453269245441
1580420495.03091,-0.864515144579233,0.289311055161363,-0.139406424048218
1580420495.03491,-0.859143968871596,0.282475013351643,-0.135988403143358
1580420495.03891,-0.850843060959793,0.273197528038452,-0.132570382238498
1580420495.04291,-0.842053864347296,0.259525444419012,-0.132082093537804
1580420495.04691,-0.835217822537576,0.242435339894712,-0.126710917830167
1580420495.05091,-0.825940337224385,0.227786678873883,-0.127199206530861
1580420495.05491,-0.82203402761883,0.214602883955138,-0.132082093537804
1580420495.0589,-0.812268253604945,0.200930800335698,-0.130617227435721
1580420495.0629,-0.805432211795225,0.182864118410009,-0.128175783932249
1580420495.0669,-0.799084458686199,0.171145189593346,-0.129640650034332
1580420495.0709,-0.796154726482033,0.146730754558632,-0.12475776302739
1580420495.0749,-0.793713282978562,0.123781185626001,-0.124269474326695
1580420495.0789,-0.789806973373008,0.096437018387121,-0.11450370031281
1580420495.0829,-0.788830395971619,0.0681162737468526,-0.118410009918364
1580420495.0869,-0.790295262073702,0.0441901274128327,-0.113527122911421
1580420495.09089,-0.787365529869536,0.0168459601739528,-0.116456855115587
1580420495.09489,-0.782482642862593,-0.00170901045242999,-0.114015411612115
1580420495.09889,-0.78101777676051,-0.0192874036774242,-0.112062256809338
1580420495.10289,-0.772716868848708,-0.0349126420996413,-0.113038834210727
1580420495.10689,-0.764415960936905,-0.0568856336308841,-0.109132524605172
1580420495.1109,-0.751232166018159,-0.0729991607537954,-0.101319905394064
1580420495.1149,-0.740489814602883,-0.0915541313801782,-0.0935072861829553
1580420495.1189,-0.72535286488136,-0.115480277714198,-0.0930189974822611
1580420495.1229,-0.717540245670252,-0.137453269245441,-0.0944838635843439
1580420495.1269,-0.705821316853589,-0.160402838178072,-0.0891126878767068
1580420495.13089,-0.699961852445258,-0.192141603723201,-0.0847180895704582
1580420495.13489,-0.695078965438315,-0.216556038757915,-0.0832532234683754
1580420495.13889,-0.687266346227206,-0.242923628595406,-0.0817883573662925
1580420495.14289,-0.67750057221332,-0.276127260242619,-0.0813000686655982
1580420495.14689,-0.673105973907072,-0.303471427481499,-0.0759288929579611
1580420495.15089,-0.663828488593881,-0.328374151216908,-0.0700694285496297
1580420495.15489,-0.651132982375829,-0.351812008850233,-0.0700694285496297
1580420495.15889,-0.639414053559166,-0.369390402075227,-0.0686045624475469
1580420495.16288,-0.632089723048752,-0.389898527504387,-0.0656748302433812
1580420495.16688,-0.627695124742504,-0.407476920729382,-0.048096437018387
1580420495.17088,-0.626230258640421,-0.420660715648127,-0.034424353398947
1580420495.17488,-0.624765392538338,-0.436285954070344,-0.0217288471808956
1580420495.17888,-0.619394216830701,-0.45288776989395,-0.0046387426565957
1580420495.18288,-0.619882505531395,-0.474372472724498,0.00170901045242999
1580420495.18688,-0.621835660334172,-0.487556267643244,0.0139162279697871
1580420495.19086,-0.621347371633478,-0.497810330357824,0.0231937132829785
1580420495.19485,-0.622323949034866,-0.50074006256199,0.031006332494087
1580420495.19885,-0.625253681239032,-0.506599526970321,0.0324711985961699
1580420495.20285,-0.623788815136949,-0.51441214618143,0.0334477759975584
1580420495.20685,-0.632089723048752,-0.516853589684901,0.027588311589227
1580420495.21085,-0.649668116273746,-0.521736476691844,0.024170290684367
1580420495.21485,-0.662851911192492,-0.52466620889601,0.0212405584802013
1580420495.21885,-0.681406881818875,-0.525154497596704,0.0163576714732585
1580420495.22285,-0.690684367132066,-0.527595941100175,0.0139162279697871
1580420495.22685,-0.707774471656366,-0.526131074998093,0.00659189745937283
1580420495.23084,-0.724864576180666,-0.518806744487678,-0.000732433051041426
1580420495.23484,-0.745372701609826,-0.512458991378653,-0.0144045166704814
1580420495.23884,-0.761974517433433,-0.504646372167544,-0.0222171358815899
1580420495.24284,-0.77759975585565,-0.496345464255741,-0.0349126420996413
1580420495.24684,-0.795178149080645,-0.486091401541161,-0.0368657969024184
1580420495.25084,-0.802014190890365,-0.475837338826581,-0.0529793240253298
1580420495.25484,-0.810803387502862,-0.473884184023804,-0.0520027466239412
1580420495.25883,-0.810803387502862,-0.471442740520333,-0.0568856336308841
1580420495.26283,-0.81519798580911,-0.476325627527276,-0.0612802319371326
1580420495.26683,-0.820080872816053,-0.471442740520333,-0.0646982528419926
1580420495.27084,-0.831311512932022,-0.464118410009918,-0.0725108720531011
1580420495.27484,-0.846448462653544,-0.450446326390479,-0.0817883573662925
1580420495.27884,-0.862073701075762,-0.426520180056459,-0.0959487296864268
1580420495.28284,-0.882581826504921,-0.400640878919662,-0.10424963759823
1580420495.28684,-0.899671931029221,-0.380132753490502,-0.11450370031281
1580420495.29084,-0.920180056458381,-0.35376516365301,-0.12475776302739
1580420495.29484,-0.936781872281987,-0.333745326924545,-0.139406424048218
1580420495.29883,-0.956313420309758,-0.302006561379416,-0.149172198062104
1580420495.30283,-0.97584496833753,-0.271244373235676,-0.153078507667658
1580420495.30683,-0.99635309376669,-0.245853360799572,-0.163332570382238
1580420495.31083,-1.01686121919585,-0.218509193560692,-0.171633478294041
1580420495.31483,-1.03395132372015,-0.194094758525978,-0.169680323491264
1580420495.31883,-1.04811169604028,-0.170168612191958,-0.173586633096818
1580420495.32283,-1.06471351186389,-0.155031662470435,-0.166750591287098
1580420495.32683,-1.08326848249027,-0.132570382238498,-0.163332570382238
1580420495.33082,-1.10231174181735,-0.108644235904478,-0.156496528572518
1580420495.33482,-1.12526131074998,-0.0832532234683754,-0.153078507667658
1580420495.33882,-1.1579766536965,-0.0559090562294955,-0.150148775463492
1580420495.34282,-1.18727397573815,-0.0261234454871442,-0.149660486762798
1580420495.34682,-1.21998931868467,0.0046387426565957,-0.143801022354467
1580420495.3508,-1.25416952773327,0.0422369726100555,-0.135500114442664
1580420495.3548,-1.28151369497215,0.0798352025635154,-0.130128938735027
1580420495.3588,-1.30983443961242,0.122804608224612,-0.122316319523918
1580420495.36279,-1.33522545204852,0.157473105973907,-0.118410009918364
1580420495.36679,-1.35573357747768,0.186282139314869,-0.11792172121767
1580420495.37079,-1.37428854810407,0.212161440451666,-0.118898298619058
1580420495.37479,-1.39235523002976,0.232181277180132,-0.125246051728084
1580420495.37879,-1.40895704585336,0.244388494697489,-0.133546959639887
1580420495.38279,-1.41628137636378,0.257572289616235,-0.135988403143358
1580420495.38679,-1.42751201647974,0.26733806363012,-0.132570382238498
1580420495.39079,-1.43288319218738,0.276615548943312,-0.136964980544747
1580420495.39479,-1.42604715037766,0.290287632562752,-0.135011825741969
1580420495.39878,-1.41676966506447,0.30151827267872,-0.132082093537804
1580420495.40278,-1.40895704585336,0.312260624093994,-0.127199206530861
1580420495.40678,-1.40212100404364,0.318120088502326,-0.131105516136415
1580420495.41078,-1.40456244754711,0.31519035629816,-0.136476691844052
1580420495.41478,-1.41530479896239,0.302494850080109,-0.138918135347524
1580420495.41878,-1.43288319218738,0.288334477759975,-0.139894712748912
1580420495.42278,-1.44655527580682,0.275638971541923,-0.148195620660715
1580420495.42678,-1.45778591592279,0.266849774929426,-0.140871290150301
1580420495.43079,-1.46706340123598,0.262943465323872,-0.136476691844052
1580420495.43478,-1.47731746395056,0.268802929732203,-0.141359578850995
1580420495.43878,-1.48708323796445,0.270267795834286,-0.147707331960021
1580420495.44278,-1.49391927977417,0.273197528038452,-0.144777599755855
1580420495.44678,-1.50124361028458,0.269291218432897,-0.132570382238498
1580420495.45078,-1.50417334248875,0.269779507133592,-0.133546959639887
1580420495.45478,-1.50417334248875,0.271732661936369,-0.134035248340581
1580420495.45878,-1.50222018768597,0.274662394140535,-0.133546959639887
1580420495.46278,-1.50270847638666,0.282475013351643,-0.139406424048218
1580420495.46677,-1.50222018768597,0.285893034256503,-0.135988403143358
1580420495.47077,-1.49782558937972,0.288334477759975,-0.130128938735027
1580420495.47477,-1.49001297016861,0.283939879453726,-0.118410009918364
1580420495.47877,-1.48317692835889,0.281986724650949,-0.110597390707255
1580420495.48277,-1.47194628824292,0.278568703746089,-0.103761348897535
1580420495.48677,-1.46413366903182,0.27417410543984,-0.10766765850309
1580420495.49077,-1.45192645151446,0.273197528038452,-0.118410009918364
1580420495.49477,-1.45387960631724,0.270267795834286,-0.132570382238498
1580420495.49876,-1.46120393682765,0.286381322957197,-0.136476691844052
1580420495.50276,-1.4743877317464,0.307866025787746,-0.149172198062104
1580420495.50676,-1.48171206225681,0.317631799801632,-0.153566796368352
1580420495.51074,-1.49294270237278,0.330815594720377,-0.156008239871824
1580420495.51474,-1.49245441367208,0.336675059128709,-0.147219043259327
1580420495.51874,-1.48757152666514,0.346440833142594,-0.137453269245441
1580420495.52274,-1.48024719615473,0.358159761959257,-0.130128938735027
1580420495.52674,-1.46413366903182,0.369390402075226,-0.122316319523918
1580420495.53074,-1.45241474021515,0.375249866483557,-0.120851453421835
1580420495.53473,-1.43337148088808,0.385503929198137,-0.123292896925307
1580420495.53873,-1.41823453116655,0.387457084000914,-0.120851453421835
1580420495.54273,-1.40993362325475,0.384039063096054,-0.118898298619058
1580420495.54673,-1.40456244754711,0.36987869077592,-0.118898298619058
1580420495.55073,-1.40651560234989,0.35620660715648,-0.125734340428778
1580420495.55473,-1.41481651026169,0.348393987945371,-0.128664072632944
1580420495.55873,-1.4226291294728,0.341557946135651,-0.137941557946135
1580420495.56273,-1.4314183260853,0.333257038223849,-0.150148775463492
1580420495.56672,-1.4314183260853,0.335210193026626,-0.150148775463492
1580420495.57072,-1.41774624246586,0.338628213931486,-0.155031662470435
1580420495.57472,-1.40114442664225,0.351812008850231,-0.149172198062104
1580420495.57872,-1.38112458991379,0.360112916762034,-0.139406424048218
1580420495.58272,-1.35719844357977,0.366948958571754,-0.128175783932249
1580420495.58672,-1.32741283283742,0.36987869077592,-0.12133974212253
1580420495.59073,-1.30495155260548,0.359136339360646,-0.11450370031281
1580420495.59473,-1.28395513847562,0.337651636530097,-0.102784771496147
1580420495.59873,-1.2693064774548,0.310795757991912,-0.0896009765774011
1580420495.60273,-1.25416952773327,0.279056992446783,-0.0856946669718468
1580420495.60672,-1.243427176318,0.245853360799572,-0.0793469138628211
1580420495.61072,-1.24440375371939,0.221438925764858,-0.0744640268558783
1580420495.61472,-1.24098573281453,0.200442511635003,-0.0813000686655982
1580420495.61872,-1.23512626840619,0.189211871519035,-0.0832532234683754
1580420495.62272,-1.23854428931105,0.187747005416952,-0.0813000686655982
1580420495.62672,-1.24147402151522,0.200930800335698,-0.0734874494544897
1580420495.63072,-1.25319295033188,0.221927214465552,-0.0744640268558783
1580420495.63471,-1.26588845654994,0.23999389639124,-0.0778820477607383
1580420495.63871,-1.27174792095827,0.259525444419012,-0.0788586251621268
1580420495.64271,-1.2688181887541,0.273197528038452,-0.0813000686655982
1580420495.64671,-1.26491187914855,0.289799343862057,-0.0710460059510183
1580420495.65071,-1.25661097123674,0.305912870984969,-0.0549324788281069
1580420495.65471,-1.2429388876173,0.322514686808574,-0.0505378805218584
1580420495.65871,-1.23366140230411,0.327397573815517,-0.0534676127260241
1580420495.66271,-1.22926680399786,0.323491264209963,-0.0622568093385212
1580420495.6667,-1.22438391699092,0.320561532005797,-0.0725108720531011
1580420495.67068,-1.22438391699092,0.313237201495383,-0.0842298008697639
1580420495.67468,-1.22145418478675,0.316166933699549,-0.0881361104753182
1580420495.67868,-1.22145418478675,0.320073243305103,-0.0944838635843439
1580420495.68268,-1.21559472037842,0.337651636530097,-0.0954604409857325
1580420495.68668,-1.20485236896315,0.35278858625162,-0.096437018387121
1580420495.69068,-1.19655146105135,0.372808422980086,-0.0969253070878153
1580420495.69468,-1.17653162432288,0.395757991912717,-0.0905775539787896
1580420495.69868,-1.16041809719997,0.409918364232851,-0.0856946669718468
1580420495.70267,-1.13844510566873,0.417242694743265,-0.0798352025635154
1580420495.70667,-1.12867933165484,0.419684138246737,-0.0837415121690697
1580420495.71067,-1.11989013504234,0.422125581750208,-0.077393759060044
1580420495.71467,-1.11451895933471,0.420172426947431,-0.0788586251621268
1580420495.71867,-1.11061264972915,0.415777828641183,-0.0754406042572668
1580420495.72267,-1.10768291752499,0.408453498130768,-0.0749523155565726
1580420495.72667,-1.10280003051804,0.401617456321048,-0.073975738155184
1580420495.73067,-1.09987029831388,0.399664301518271,-0.0793469138628211
1580420495.73466,-1.09694056610971,0.406988632028686,-0.0827649347676811
1580420495.73866,-1.0896162355993,0.420172426947431,-0.0837415121690697
1580420495.74266,-1.08766308079652,0.42798504615854,-0.0798352025635154
1580420495.74666,-1.08668650339513,0.439703974975203,-0.0817883573662925
1580420495.75067,-1.0891279468986,0.449958037689782,-0.0803234912642097
1580420495.75467,-1.0979171435111,0.457770656900891,-0.0759288929579611
1580420495.75867,-1.10426489662013,0.463141832608528,-0.0759288929579611
1580420495.76267,-1.10963607232776,0.464118410009917,-0.0725108720531011
1580420495.76667,-1.11403067063401,0.463141832608528,-0.0656748302433812
1580420495.77066,-1.11647211413748,0.462653543907834,-0.0622568093385212
1580420495.77466,-1.11354238193332,0.453864347295337,-0.063721675440604
1580420495.77866,-1.11451895933471,0.446540016784922,-0.0598153658350498
1580420495.78266,-1.11403067063401,0.442145418478674,-0.048096437018387
1580420495.78666,-1.12184328984512,0.440680552376591,-0.0441901274128327
1580420495.79066,-1.12965590905623,0.438727397573814,-0.0485847257190812
1580420495.79466,-1.14576943617914,0.439703974975203,-0.0417486839093613
1580420495.79866,-1.15895323109789,0.449469748989088,-0.0466315709163041
1580420495.80265,-1.17018387121385,0.465094987411305,-0.0422369726100555
1580420495.80665,-1.17311360341802,0.476813916227968,-0.0354009308003356
1580420495.81065,-1.17604333562219,0.495368886854351,-0.0324711985961699
1580420495.81465,-1.17750820172427,0.517830167086291,-0.0231937132829785
1580420495.81865,-1.17701991302357,0.532967116807814,-0.0227054245822842
1580420495.82265,-1.17164873731594,0.540291447318229,-0.0178225375753414
1580420495.82665,-1.17116044861524,0.541756313420311,-0.0163576714732585
1580420495.83063,-1.16774242771038,0.540291447318229,-0.0153810940718699
1580420495.83463,-1.16676585030899,0.533943694209203,-0.0202639810788128
1580420495.83862,-1.16481269550622,0.529549095902954,-0.024170290684367
1580420495.84262,-1.16383611810483,0.527595941100177,-0.0266117341878385
1580420495.84662,-1.16481269550622,0.525154497596706,-0.0397955291065841
1580420495.85062,-1.16725413900969,0.526131074998094,-0.0432135500114441
1580420495.85462,-1.17164873731594,0.531013962005037,-0.0539559014267184
1580420495.85862,-1.17262531471733,0.537850003814757,-0.0583504997329669
1580420495.86262,-1.17164873731594,0.544197756923783,-0.0651865415426869
1580420495.86662,-1.17799649042496,0.551522087434197,-0.0676279850461583
1580420495.87062,-1.18043793392843,0.557381551842528,-0.0690928511482412
1580420495.87461,-1.18678568703746,0.561776150148777,-0.0734874494544897
1580420495.87861,-1.19020370794232,0.556893263141834,-0.0749523155565726
1580420495.88261,-1.1921568627451,0.552010376134891,-0.0832532234683754
1580420495.88661,-1.19508659494926,0.545174334325171,-0.0881361104753182
1580420495.89061,-1.19850461585412,0.540779736018923,-0.0925307087815668
1580420495.89461,-1.20094605935759,0.531990539406426,-0.102784771496147
1580420495.89861,-1.20338750286107,0.521248187991151,-0.106202792401007
1580420495.9026,-1.20289921416037,0.505622949568934,-0.110109102006561
1580420495.9066,-1.20827038986801,0.495857175555045,-0.116456855115587
1580420495.91061,-1.21803616388189,0.486091401541159,-0.119386587319752
1580420495.91461,-1.22487220569161,0.475349050125885,-0.116945143816281
1580420495.91861,-1.23366140230411,0.46216525520714,-0.122316319523918
1580420495.92261,-1.23756771190967,0.449958037689782,-0.120851453421835
1580420495.92661,-1.243427176318,0.438727397573814,-0.117433432516975
1580420495.93061,-1.24977492942702,0.425055313954374,-0.127687495231555
1580420495.93461,-1.25514610513466,0.416754406042571,-0.130128938735027
1580420495.9386,-1.25612268253605,0.405523765926603,-0.130128938735027
1580420495.9426,-1.26344701304646,0.397711146715494,-0.134035248340581
1580420495.9466,-1.26832990005341,0.400152590218966,-0.132570382238498
1580420495.9506,-1.27565423056382,0.395757991912717,-0.131105516136415
1580420495.9546,-1.27809567406729,0.384527351796748,-0.133058670939192
1580420495.9586,-1.2859082932784,0.365484092469671,-0.126710917830167
1580420495.9626,-1.29616235599298,0.347417410543983,-0.118898298619058
1580420495.9666,-1.30397497520409,0.328374151216906,-0.122804608224612
1580420495.97059,-1.3205767910277,0.314702067597466,-0.132082093537804
1580420495.97459,-1.33913176165408,0.304448004882886,-0.139894712748912
1580420495.97859,-1.35231555657282,0.298588540474555,-0.143312733653772
1580420495.98259,-1.36696421759365,0.299565117875943,-0.147707331960021
1580420495.98659,-1.37917143511101,0.30493629358358,-0.150637064164187
1580420495.99057,-1.38796063172351,0.311284046692606,-0.148683909361409
1580420495.99457,-1.39382009613184,0.321049820706492,-0.146242465857938
1580420495.99857,-1.4055390249485,0.327397573815517,-0.145754177157244
1580420496.00257,-1.4138399328603,0.3288624399176,-0.136476691844052
1580420496.00656,-1.42116426337072,0.323491264209963,-0.133546959639887
1580420496.01056,-1.42409399557488,0.314213778896772,-0.131593804837109
1580420496.01456,-1.42702372777905,0.299076829175249,-0.131593804837109
1580420496.01856,-1.43190661478599,0.283939879453726,-0.134035248340581
1580420496.02256,-1.43337148088808,0.26733806363012,-0.138918135347524
1580420496.02656,-1.43532463569085,0.252689402609292,-0.144777599755855
1580420496.03056,-1.43874265659571,0.23315785458152,-0.156496528572518
1580420496.03456,-1.44557869840543,0.219485770962081,-0.157961394674601
1580420496.03855,-1.44997329671168,0.207278553444723,-0.157473105973907
1580420496.04255,-1.44997329671168,0.198001068131532,-0.164309147783626
1580420496.04655,-1.45827420462348,0.198489356832226,-0.163820859082932
1580420496.05055,-1.46706340123598,0.196536202029449,-0.163820859082932
1580420496.05455,-1.4738994430457,0.196047913328755,-0.161867704280155
1580420496.05855,-1.48317692835889,0.192141603723201,-0.164309147783626
1580420496.06255,-1.49538414587625,0.186282139314869,-0.167238879987792
1580420496.06655,-1.50417334248875,0.184328984512092,-0.168703746089875
1580420496.07056,-1.51247425040055,0.170168612191958,-0.177004654001678
1580420496.07455,-1.51491569390402,0.157961394674601,-0.178469520103761
1580420496.07855,-1.50905622949569,0.150637064164187,-0.182864118410009
1580420496.08255,-1.49831387808042,0.147219043259327,-0.179934386205844
1580420496.08655,-1.4822003509575,0.147707331960021,-0.184328984512092
1580420496.09055,-1.46120393682765,0.148195620660715,-0.183352407110704
1580420496.09455,-1.44313725490196,0.145265888456549,-0.178957808804455
1580420496.09855,-1.42507057297627,0.142824444953078,-0.173586633096818
1580420496.10255,-1.41335164415961,0.136476691844052,-0.164797436484321
1580420496.10654,-1.40163271534295,0.128175783932249,-0.166750591287098
1580420496.11054,-1.39577325093462,0.11450370031281,-0.164797436484321
1580420496.11454,-1.39040207522698,0.103761348897535,-0.163332570382238
1580420496.11854,-1.38698405432212,0.0939955748836496,-0.166262302586404
1580420496.12254,-1.37819485770962,0.0861829556725411,-0.160402838178072
1580420496.12654,-1.3713588158999,0.0754406042572668,-0.159426260776684
1580420496.13054,-1.36012817578393,0.0666514076447697,-0.157473105973907
1580420496.13454,-1.34792095826658,0.0549324788281069,-0.152101930266269
1580420496.13854,-1.33327229724575,0.0422369726100555,-0.140383001449607
1580420496.14253,-1.320088502327,0.0251468680857556,-0.135500114442664
1580420496.14653,-1.30983443961242,0.0046387426565957,-0.134035248340581
1580420496.15051,-1.30592813000687,-0.0139162279697871,-0.130128938735027
1580420496.15451,-1.29909208819715,-0.031006332494087,-0.125246051728084
1580420496.15851,-1.29665064469368,-0.0495613031204698,-0.127199206530861
1580420496.16251,-1.30104524299992,-0.0617685206378269,-0.127687495231555
1580420496.16651,-1.30739299610895,-0.0695811398489354,-0.127687495231555
1580420496.17051,-1.3117875944152,-0.0827649347676811,-0.127199206530861
1580420496.1745,-1.31667048142214,-0.0861829556725411,-0.125734340428778
1580420496.1785,-1.3205767910277,-0.0876478217746239,-0.122804608224612
1580420496.1825,-1.3205767910277,-0.0871595330739297,-0.127687495231555
1580420496.1865,-1.31911192492561,-0.0866712443732354,-0.130617227435721
1580420496.1905,-1.30641641870756,-0.0954604409857325,-0.134035248340581
1580420496.1945,-1.28883802548257,-0.109620813305867,-0.137453269245441
1580420496.1985,-1.25856412603952,-0.12133974212253,-0.135011825741969
1580420496.2025,-1.21803616388189,-0.132570382238498,-0.135500114442664
1580420496.2065,-1.17799649042496,-0.145754177157244,-0.139894712748912
1580420496.21049,-1.13893339436942,-0.150637064164187,-0.145754177157244
1580420496.21449,-1.09840543221179,-0.154543373769741,-0.150148775463492
1580420496.21849,-1.05885404745556,-0.152101930266269,-0.152101930266269
1580420496.22249,-1.03297474631876,-0.150637064164187,-0.154543373769741
1580420496.22649,-1.01588464179446,-0.143801022354467,-0.149172198062104
1580420496.2305,-1.00611886778058,-0.144777599755855,-0.140871290150301
1580420496.2345,-1.00074769207294,-0.140871290150301,-0.134035248340581
1580420496.2385,-0.998306248569467,-0.138429846646829,-0.12475776302739
1580420496.24249,-0.991470206759747,-0.133546959639887,-0.120851453421835
1580420496.24649,-0.984145876249332,-0.132570382238498,-0.11792172121767
1580420496.25049,-0.973891813534753,-0.129152361333638,-0.109620813305867
1580420496.25449,-0.957778286411841,-0.129640650034332,-0.103761348897535
1580420496.25849,-0.944594491493095,-0.136964980544747,-0.0944838635843439
1580420496.26249,-0.928480964370184,-0.139406424048218,-0.0847180895704582
1580420496.26649,-0.914808880750744,-0.156008239871824,-0.0842298008697639
1580420496.27049,-0.901136797131304,-0.170656900892652,-0.0852063782711525
1580420496.27448,-0.89039444571603,-0.188723582818341,-0.0881361104753182
1580420496.27848,-0.881605249103533,-0.202395666437781,-0.0988784618905925
1580420496.28248,-0.874280918593119,-0.217532616159303,-0.113038834210727
1580420496.28648,-0.871839475089647,-0.226321812771801,-0.132570382238498
1580420496.29048,-0.865491721980622,-0.231692988479438,-0.143801022354467
1580420496.29448,-0.858655680170902,-0.236087586785686,-0.147219043259327
1580420496.29848,-0.847425040054933,-0.240970473792629,-0.161379415579461
1580420496.30248,-0.834729533836882,-0.246341649500266,-0.163820859082932
1580420496.30647,-0.817151140611887,-0.257084000915542,-0.162355992980849
1580420496.31045,-0.796643015182728,-0.273685816739148,-0.165774013885709
1580420496.31445,-0.770275425345236,-0.289311055161365,-0.165774013885709
1580420496.31845,-0.750255588616771,-0.310307469291219,-0.163820859082932
1580420496.32245,-0.7219348439765,-0.333745326924545,-0.157473105973907
1580420496.32645,-0.700450141145952,-0.362554360265507,-0.154055085069047
1580420496.33045,-0.686289768825818,-0.386968795300222,-0.152101930266269
1580420496.33445,-0.679942015716792,-0.412359807736324,-0.154055085069047
1580420496.33845,-0.675059128709849,-0.421149004348822,-0.155519951171129
1580420496.34244,-0.678965438315403,-0.41870756084535,-0.158449683375295
1580420496.34644,-0.685801480125123,-0.40161745632105,-0.158449683375295
1580420496.35044,-0.690196078431372,-0.380132753490502,-0.159914549477378
1580420496.35444,-0.695078965438315,-0.350835431448845,-0.155031662470435
1580420496.35844,-0.697520408941786,-0.330327306019685,-0.153566796368352
1580420496.36244,-0.69800869764248,-0.319096665903716,-0.140871290150301
1580420496.36644,-0.696543831540398,-0.313237201495385,-0.135500114442664
1580420496.37044,-0.69117265583276,-0.311772335393302,-0.127687495231555
1580420496.37443,-0.682871747920958,-0.311772335393302,-0.115968566414892
1580420496.37843,-0.674082551308461,-0.321538109407188,-0.104737926298924
1580420496.38243,-0.664316777294575,-0.336186770428016,-0.0983901731898982
1580420496.38643,-0.650644693675135,-0.352788586251622,-0.096437018387121
1580420496.39044,-0.643320363164721,-0.363042648966202,-0.0925307087815668
1580420496.39444,-0.637949187457084,-0.372808422980087,-0.0925307087815668
1580420496.39844,-0.641367208361943,-0.37085526817731,-0.0915541313801782
1580420496.40244,-0.644296940566109,-0.36060120546273,-0.0900892652780954
1580420496.40644,-0.659433890287632,-0.348882276646068,-0.0910658426794839
1580420496.41043,-0.677012283512626,-0.332280460822462,-0.0954604409857325
1580420496.41443,-0.698496986343175,-0.313725490196079,-0.0959487296864268
1580420496.41843,-0.71509880216678,-0.292729076066225,-0.0896009765774011
1580420496.42243,-0.729747463187609,-0.280033569848174,-0.0817883573662925
1580420496.42643,-0.745372701609826,-0.264896620126651,-0.0793469138628211
1580420496.43043,-0.757091630426491,-0.251712825207905,-0.0725108720531011
1580420496.43443,-0.765880827038988,-0.229251544975966,-0.0593270771343555
1580420496.43843,-0.777111467154956,-0.212161440451666,-0.0534676127260241
1580420496.44243,-0.78443579766537,-0.202395666437781,-0.0461432822156098
1580420496.44642,-0.793713282978562,-0.185793850614175,-0.0329594872968642
1580420496.45042,-0.805432211795225,-0.169680323491264,-0.0266117341878385
1580420496.45442,-0.816662851911193,-0.159426260776684,-0.0202639810788128
1580420496.45842,-0.831311512932022,-0.143801022354467,-0.0124513618677042
1580420496.46242,-0.84254215304799,-0.12133974212253,-0.01196307316701
1580420496.46642,-0.85621423666743,-0.099855039291981,-0.00659189745937283
1580420496.4704,-0.869398031586176,-0.0661631189440754,-0.00561532005798426
1580420496.4744,-0.882093537804227,-0.0354009308003356,0.00952162966353853
1580420496.47839,-0.890882734416724,-0.0075684748607614,0.0246585793850613
1580420496.48239,-0.899671931029221,0.031006332494087,0.0485847257190812
1580420496.48639,-0.91090257114519,0.0676279850461583,0.0715342946517126
1580420496.49039,-0.922133211261158,0.102784771496147,0.0983901731898982
1580420496.49439,-0.94166475928893,0.138429846646829,0.119386587319752
1580420496.49839,-0.967055771725033,0.178469520103761,0.135988403143358
1580420496.50239,-1.00074769207294,0.224368657969023,0.147219043259327
1580420496.50639,-1.04274052033265,0.283451590753032,0.150637064164187
1580420496.51039,-1.08180361638819,0.346440833142594,0.147707331960021
1580420496.51438,-1.12477302204929,0.419195849546043,0.143801022354467
1580420496.51838,-1.1574883649958,0.506599526970323,0.129152361333638
1580420496.52238,-1.18239108873121,0.60083924620432,0.118898298619058
1580420496.52638,-1.19069199664301,0.698496986343176,0.114015411612115
1580420496.53038,-1.18629739833677,0.79810788128481,0.116945143816281
1580420496.53438,-1.17262531471733,0.892835889219501,0.122316319523918
1580420496.53838,-1.15114061188678,0.976333257038224,0.135500114442664
1580420496.54237,-1.12086671244373,1.03541618982223,0.148195620660715
1580420496.54637,-1.08717479209583,1.08131532768749,0.171633478294041
1580420496.55038,-1.05055313954376,1.10719462882429,0.181399252307926
1580420496.55438,-1.01393148699168,1.11989013504234,0.191653315022506
1580420496.55838,-0.977309834439613,1.12526131074998,0.198489356832226
1580420496.56238,-0.953871976806287,1.13258564126039,0.199954222934309
1580420496.56638,-0.936781872281987,1.13600366216525,0.190188448920424
1580420496.57038,-0.93141069657435,1.14332799267567,0.182864118410009
1580420496.57438,-0.928480964370184,1.14332799267567,0.177981231403066
1580420496.57837,-0.94166475928893,1.14186312657359,0.165285725185015
1580420496.58237,-0.960708018616007,1.14137483787289,0.165285725185015
1580420496.58637,-0.984634164950027,1.13307392996109,0.158449683375295
1580420496.59037,-1.0129549095903,1.1237964446479,0.160891126878766
1580420496.59437,-1.03639276722362,1.10865949492637,0.169680323491264
1580420496.59837,-1.05055313954376,1.09987029831388,0.173098344396124
1580420496.60237,-1.06227206836042,1.08473334859235,0.164309147783626
1580420496.60637,-1.07057297627222,1.0720378423743,0.143312733653772
1580420496.61036,-1.08570992599374,1.05983062485695,0.115480277714198
1580420496.61436,-1.10035858701457,1.04762340733959,0.0910658426794839
1580420496.61836,-1.11110093842985,1.03346303501946,0.0598153658350498
1580420496.62236,-1.12281986724651,1.02760357061112,0.0402838178072784
1580420496.62636,-1.12867933165484,1.02369726100557,0.0251468680857556
1580420496.63034,-1.1233081559472,1.02809185931182,0.0109864957656214
1580420496.63434,-1.11012436102846,1.03395132372015,0.0046387426565957
1580420496.63834,-1.09108110170138,1.03346303501946,0.01196307316701
1580420496.64234,-1.07838559548333,1.03053330281529,0.0183108262760356
1580420496.64633,-1.06080720225834,1.02760357061112,0.0197756923781185
1580420496.65033,-1.05006485084306,1.0212558175021,0.0319829098954756
1580420496.65433,-1.04322880903334,1.01588464179446,0.0568856336308841
1580420496.65833,-1.03053330281529,1.01832608529793,0.0788586251621268
1580420496.66233,-1.01588464179446,1.02858014801251,0.10424963759823
1580420496.66633,-1.00025940337224,1.04371709773404,0.127687495231555
1580420496.67033,-0.98268101014725,1.06080720225834,0.143801022354467
1580420496.67433,-0.965102616922255,1.07887388418402,0.163332570382238
1580420496.67832,-0.956313420309758,1.10035858701457,0.191653315022506
1580420496.68232,-0.956801709010453,1.12037842374304,0.215579461356526
1580420496.68632,-0.964126039520867,1.13698023956664,0.232669565880826
1580420496.69032,-0.980239566643778,1.14381628137636,0.258060578316929
1580420496.69432,-1.00123598077363,1.14576943617914,0.27417410543984
1580420496.69832,-1.0300450141146,1.149187457084,0.301029983978026
1580420496.70232,-1.05787747005417,1.14723430228122,0.312748912794689
1580420496.70632,-1.0808270389868,1.15846494239719,0.319584954604409
1580420496.71033,-1.09498741130693,1.1662775616083,0.313725490196077
1580420496.71433,-1.09889372091249,1.17360189211871,0.289799343862057
1580420496.71832,-1.10768291752499,1.17018387121385,0.27075608453498
1580420496.72232,-1.12233157854581,1.1745784695201,0.226321812771801
1580420496.72632,-1.14332799267567,1.16676585030899,0.183352407110704
1580420496.73032,-1.15651178759441,1.15211718928817,0.145754177157244
1580420496.73432,-1.16237125200275,1.12965590905623,0.106691081101701
1580420496.73832,-1.16188296330205,1.10182345311665,0.0974135957885096
1580420496.74232,-1.14967574578469,1.06715495536736,0.0778820477607383
1580420496.74632,-1.11989013504234,1.02320897230488,0.0646982528419926
1580420496.75031,-1.09498741130693,0.977309834439613,0.0583504997329669
1580420496.75431,-1.072526131075,0.928480964370184,0.0451667048142212
1580420496.75831,-1.06715495536736,0.885511558709087,0.0231937132829785
1580420496.76231,-1.0808270389868,0.844007019150073,-0.00854505226214997
1580420496.76631,-1.09645227740902,0.813244831006333,-0.0388189517051956
1580420496.77031,-1.11305409323262,0.790783550774396,-0.0666514076447697
1580420496.77431,-1.11598382543679,0.78101777676051,-0.0783703364614325
1580420496.77831,-1.10524147402151,0.779064621957733,-0.0930189974822611
1580420496.7823,-1.07447928587777,0.780529488059816,-0.0925307087815668
1580420496.7863,-1.04029907682918,0.783947508964676,-0.0954604409857325
1580420496.79028,-1.00221255817502,0.779552910658428,-0.096437018387121
1580420496.79428,-0.974868390936141,0.768322270542459,-0.0949721522850382
1580420496.79828,-0.965102616922255,0.743419546807051,-0.10766765850309
1580420496.80228,-0.96900892652781,0.723399710078585,-0.136964980544747
1580420496.80628,-0.995376516365301,0.712657358663311,-0.172610055695429
1580420496.81028,-1.02223239490349,0.702891584649425,-0.205813687342641
1580420496.81428,-1.03639276722362,0.704844739452202,-0.234622720683603
1580420496.81827,-1.03248645761807,0.718028534370948,-0.250736247806516
1580420496.82227,-1.01539635309377,0.734630350194553,-0.262943465323874
1580420496.82627,-0.987563897154192,0.753673609521631,-0.270267795834288
1580420496.83027,-0.95191882200351,0.763439383535516,-0.268314641031511
1580420496.83427,-0.920668345159076,0.761974517433433,-0.256595712214848
1580420496.83827,-0.90064850843061,0.747325856412605,-0.248294804303043
1580420496.84227,-0.895277332722973,0.731212329289693,-0.257084000915542
1580420496.84626,-0.906996261539636,0.710704203860534,-0.270267795834288
1580420496.85026,-0.922621499961853,0.695567254139011,-0.281498435950256
1580420496.85426,-0.93482871747921,0.686289768825819,-0.293705653467613
1580420496.85826,-0.937758449683376,0.683848325322348,-0.298588540474556
1580420496.86226,-0.934340428778516,0.693125810635539,-0.291264209964142
1580420496.86626,-0.925551232166018,0.707286182955674,-0.285893034256505
1580420496.87027,-0.909437705043107,0.715098802166782,-0.281498435950256
1580420496.87427,-0.892347600518807,0.712657358663311,-0.271244373235676
1580420496.87827,-0.879163805600061,0.701426718547342,-0.259037155718319
1580420496.88227,-0.864026855878539,0.678477149614711,-0.254154268711376
1580420496.88626,-0.851331349660487,0.647714961470971,-0.250736247806516
1580420496.89026,-0.838635843442436,0.615487907225148,-0.255130846112765
1580420496.89426,-0.821545738918136,0.585214007782103,-0.258548867017625
1580420496.89826,-0.810803387502862,0.550057221332114,-0.269779507133594
1580420496.90226,-0.796643015182728,0.51538872358282,-0.289799343862059
1580420496.90626,-0.785900663767453,0.488044556343937,-0.307377737087053
1580420496.91026,-0.777111467154956,0.45874723430228,-0.322026398107882
1580420496.91426,-0.765880827038988,0.434332799267565,-0.345464255741208
1580420496.91825,-0.763439383535516,0.403082322423131,-0.36743724727245
1580420496.92225,-0.756603341725796,0.365972381170366,-0.391851682307164
1580420496.92625,-0.747814145113297,0.324956130312046,-0.412848096437019
1580420496.93025,-0.741466392004272,0.281498435950255,-0.424567025253682
1580420496.93425,-0.736095216296635,0.23315785458152,-0.43579766536965
1580420496.93825,-0.72535286488136,0.179934386205844,-0.437750820172427
1580420496.94225,-0.709239337758449,0.123292896925307,-0.441168841077287
1580420496.94625,-0.695078965438315,0.0656748302433812,-0.448981460288396
1580420496.95022,-0.67750057221332,0.00366216525520713,-0.461188677805753
1580420496.95422,-0.653086137178606,-0.0510261692225527,-0.458747234302281
1580420496.95822,-0.627695124742504,-0.106691081101701,-0.447516594186313
1580420496.96222,-0.602792401007095,-0.155519951171129,-0.427008468757153
1580420496.96622,-0.578377965972381,-0.207278553444723,-0.414801251239796
1580420496.97022,-0.553963530937667,-0.257572289616236,-0.380621042191196
1580420496.97422,-0.537850003814755,-0.298100251773862,-0.340581368734265
1580420496.97822,-0.525642786297398,-0.328862439917602,-0.307866025787748
1580420496.98222,-0.518806744487678,-0.356694895857176,-0.280033569848174
1580420496.98621,-0.519783321889067,-0.382085908293279,-0.24682993820096
1580420496.99021,-0.533943694209201,-0.396246280613413,-0.226810101472495
1580420496.99421,-0.550057221332112,-0.40503547722591,-0.213626306553749
1580420496.99821,-0.563729304951552,-0.415777828641184,-0.201907377737086
1580420497.00221,-0.573983367666132,-0.417242694743267,-0.186770428015564
1580420497.00621,-0.574959945067521,-0.416754406042573,-0.172121766994735
1580420497.01021,-0.569588769359884,-0.40503547722591,-0.146730754558632
1580420497.01421,-0.557869840543221,-0.393316548409247,-0.130617227435721
1580420497.0182,-0.539314869916838,-0.371831845578699,-0.112550545510032
1580420497.0222,-0.518318455786984,-0.354741741054399,-0.0983901731898982
1580420497.0262,-0.506111238269627,-0.343999389639125,-0.0886243991760125
1580420497.03021,-0.496833752956436,-0.324467841611353,-0.0837415121690697
1580420497.03421,-0.491462577248798,-0.311772335393302,-0.0861829556725411
1580420497.03821,-0.492439154650187,-0.301518272678722,-0.073975738155184
1580420497.04221,-0.488532845044633,-0.296635385671779,-0.0588387884336612
1580420497.04621,-0.485603112840467,-0.303471427481499,-0.048096437018387
1580420497.05021,-0.487556267643244,-0.315678644998856,-0.0354009308003356
1580420497.0542,-0.492927443350881,-0.337163347829405,-0.0251468680857556
1580420497.0582,-0.505134660868238,-0.356694895857176,-0.0217288471808956
1580420497.0622,-0.520759899290455,-0.369878690775922,-0.0212405584802013
1580420497.0662,-0.540291447318227,-0.371831845578699,-0.0173342488746471
1580420497.0702,-0.553475242236972,-0.365972381170367,-0.024170290684367
1580420497.0742,-0.568123903257801,-0.362554360265507,-0.034424353398947
1580420497.0782,-0.576913099870298,-0.359136339360647,-0.0437018387121384
1580420497.0822,-0.587655451285572,-0.358159761959259,-0.0549324788281069
1580420497.08619,-0.601815823605707,-0.35034714274815,-0.0686045624475469
1580420497.09019,-0.619882505531395,-0.33667505912871,-0.0847180895704582
1580420497.09419,-0.639414053559166,-0.315678644998856,-0.0974135957885096
1580420497.09819,-0.655527580682078,-0.295170519569696,-0.112550545510032
1580420497.10219,-0.674082551308461,-0.269779507133594,-0.135500114442664
1580420497.10619,-0.687266346227206,-0.239017318989852,-0.147219043259327
1580420497.11017,-0.69800869764248,-0.202883955138475,-0.164309147783626
1580420497.11417,-0.707774471656366,-0.169192034790569,-0.174563210498206
1580420497.11817,-0.714610513466086,-0.141359578850995,-0.185305561913481
1580420497.12216,-0.719493400473029,-0.118410009918364,-0.201907377737086
1580420497.12616,-0.731212329289692,-0.099855039291981,-0.212161440451666
1580420497.13016,-0.74586099031052,-0.0822766460669868,-0.218509193560692
1580420497.13416,-0.764904249637599,-0.0715342946517126,-0.224368657969023
1580420497.13816,-0.787365529869536,-0.0588387884336612,-0.224368657969023
1580420497.14216,-0.805920500495919,-0.0437018387121384,-0.232181277180132
1580420497.14616,-0.82203402761883,-0.0256351567864499,-0.23657587548638
1580420497.15016,-0.83228809033341,-0.00854505226214997,-0.238529030289158
1580420497.15415,-0.840588998245213,0.000732433051041426,-0.233646143282215
1580420497.15815,-0.845471885252156,0.00952162966353853,-0.224856946669718
1580420497.16215,-0.850354772259099,0.0207522697795071,-0.219485770962081
1580420497.16615,-0.862073701075762,0.0358892195010299,-0.207766842145418
1580420497.17015,-0.879652094300756,0.0578622110322726,-0.198001068131532
1580420497.17415,-0.890882734416724,0.0817883573662925,-0.195559624628061
1580420497.17815,-0.908949416342413,0.102296482795452,-0.189211871519035
1580420497.18215,-0.922133211261158,0.120851453421835,-0.188235294117646
1580420497.18614,-0.936293583581293,0.135500114442664,-0.192141603723201
1580420497.19016,-0.95191882200351,0.147219043259327,-0.190676737621118
1580420497.19415,-0.966567483024338,0.162355992980849,-0.191653315022506
1580420497.19815,-0.981216144045167,0.171145189593346,-0.196047913328755
1580420497.20215,-0.995376516365301,0.176028076600289,-0.193606469825284
1580420497.20615,-1.01002517738613,0.170656900892652,-0.187258716716258
1580420497.21015,-1.02662699320974,0.168215457389181,-0.174074921797512
1580420497.21415,-1.04078736552987,0.160402838178072,-0.159914549477378
1580420497.21815,-1.06324864576181,0.155519951171129,-0.157961394674601
1580420497.22214,-1.08863965819791,0.154543373769741,-0.153566796368352
1580420497.22614,-1.11451895933471,0.154543373769741,-0.152101930266269
1580420497.23014,-1.1403982604715,0.153566796368352,-0.152101930266269
1580420497.23414,-1.16676585030899,0.159426260776684,-0.153566796368352
1580420497.23814,-1.19752803845273,0.175051499198901,-0.143312733653772
1580420497.24214,-1.21950102998398,0.195071335927366,-0.120851453421835
1580420497.24614,-1.2429388876173,0.214602883955138,-0.105714503700312
1580420497.25014,-1.25661097123674,0.223880369268329,-0.080811779964904
1580420497.25413,-1.27077134355688,0.222903791866941,-0.0578622110322726
1580420497.25813,-1.2776073853666,0.218997482261386,-0.0334477759975584
1580420497.26213,-1.28688487067979,0.213626306553749,-0.00805676356145568
1580420497.26613,-1.3034866865034,0.208743419546806,0.00122072175173571
1580420497.27011,-1.3117875944152,0.205813687342641,0.00366216525520713
1580420497.27411,-1.32448310063325,0.201907377737086,0.00708018616006711
1580420497.27811,-1.33571374074922,0.201907377737086,0.00952162966353853
1580420497.28211,-1.35085069047074,0.209231708247501,0.00561532005798426
1580420497.28611,-1.36842908369574,0.219974059662775,0.00952162966353853
1580420497.2901,-1.38112458991379,0.239505607690546,0.01196307316701
1580420497.2941,-1.40016784924086,0.253177691309986,-0.00219729915312428
1580420497.2981,-1.42018768596933,0.257572289616235,-0.00854505226214997
1580420497.3021,-1.44216067750057,0.259037155718318,-0.0124513618677042
1580420497.3061,-1.4651102464332,0.2605020218204,-0.0246585793850613
1580420497.3101,-1.48513008316167,0.2605020218204,-0.0441901274128327
1580420497.3141,-1.50661478599222,0.268314641031509,-0.0554207675288012
1580420497.3181,-1.51589227130541,0.277103837644006,-0.0695811398489354
1580420497.32209,-1.51784542610819,0.291752498664835,-0.0910658426794839
1580420497.32609,-1.51345082780194,0.301029983978026,-0.112550545510032
1580420497.33009,-1.51247425040055,0.310795757991912,-0.123781185626001
1580420497.33409,-1.51491569390402,0.33569848172732,-0.106691081101701
1580420497.33809,-1.50661478599222,0.350347142748149,-0.0749523155565726
1580420497.34209,-1.48513008316167,0.351323720149537,-0.0563973449301898
1580420497.34609,-1.47585259784848,0.346440833142594,-0.0114747844663157
1580420497.3501,-1.46657511253529,0.347417410543983,0.0427252613107498
1580420497.3541,-1.46901655603876,0.351812008850231,0.0778820477607383
1580420497.35809,-1.47585259784848,0.356694895857174,0.0944838635843439
1580420497.36209,-1.48708323796445,0.3630426489662,0.100343327992675
1580420497.36609,-1.50124361028458,0.375738155184251,0.104737926298924
1580420497.37009,-1.51198596169985,0.405035477225908,0.0993667505912867
1580420497.37409,-1.51882200350957,0.437262531471731,0.096437018387121
1580420497.37809,-1.52468146791791,0.475349050125885,0.0983901731898982
1580420497.38209,-1.52761120012207,0.510017547875183,0.0974135957885096
1580420497.38609,-1.52565804531929,0.53247882810712,0.104737926298924
1580420497.39008,-1.52614633401999,0.553475242236974,0.122804608224612
1580420497.39408,-1.52663462272068,0.57007705806058,0.138918135347524
1580420497.39808,-1.52956435492485,0.589608606088351,0.148195620660715
1580420497.40208,-1.52663462272068,0.608651865415428,0.142824444953078
1580420497.40608,-1.5168688487068,0.633554589150837,0.124269474326695
1580420497.41008,-1.50026703288319,0.657969024185551,0.0983901731898982
1580420497.41408,-1.48122377355612,0.686778057526514,0.0783703364614325
1580420497.41808,-1.46071564812696,0.715098802166782,0.063721675440604
1580420497.42208,-1.44118410009918,0.739513237201496,0.0451667048142212
1580420497.42607,-1.41969939726864,0.750255588616771,0.0324711985961699
1580420497.43005,-1.40407415884642,0.749279011215382,0.0236820019836728
1580420497.43405,-1.3884489204242,0.736583504997331,0.0217288471808956
1580420497.43805,-1.37331197070268,0.707774471656368,0.01196307316701
1580420497.44205,-1.35866330968185,0.664316777294577,0.00805676356145568
1580420497.44605,-1.34840924696727,0.623788815136951,0.00366216525520713
1580420497.45005,-1.33229571984436,0.578377965972383,-0.00122072175173571
1580420497.45405,-1.31813534752422,0.530525673304343,-0.0178225375753414
1580420497.45805,-1.30153353170062,0.482673380636299,-0.0354009308003356
1580420497.46204,-1.28053711757076,0.437750820172425,-0.0427252613107498
1580420497.46604,-1.26588845654994,0.398687724116883,-0.0485847257190812
1580420497.47004,-1.25368123903258,0.360601205462729,-0.0559090562294955
1580420497.47404,-1.24049744411383,0.331303883421072,-0.0583504997329669
1580420497.47804,-1.23512626840619,0.304448004882886,-0.0598153658350498
1580420497.48204,-1.22438391699092,0.278080415045395,-0.0559090562294955
1580420497.48604,-1.21950102998398,0.25024795910582,-0.0568856336308841
1580420497.49003,-1.21315327687495,0.225833524071106,-0.0617685206378269
1580420497.49403,-1.21217669947356,0.203860532539863,-0.0627450980392155
1580420497.49803,-1.21266498817426,0.182864118410009,-0.0617685206378269
1580420497.50203,-1.21315327687495,0.163820859082932,-0.0559090562294955
1580420497.50603,-1.21412985427634,0.149172198062104,-0.0539559014267184
1580420497.51004,-1.2175478751812,0.138429846646829,-0.0427252613107498
1580420497.51404,-1.21950102998398,0.136476691844052,-0.0329594872968642
1580420497.51804,-1.21657129777981,0.142336156252384,-0.0163576714732585
1580420497.52204,-1.21412985427634,0.155519951171129,-0.00268558785381856
1580420497.52603,-1.21120012207217,0.175539787899595,0.00561532005798426
1580420497.53003,-1.20338750286107,0.200442511635003,0.0163576714732585
1580420497.53403,-1.19655146105135,0.223880369268329,0.0192874036774242
1580420497.53803,-1.18776226443885,0.250736247806515,0.0231937132829785
1580420497.54203,-1.17653162432288,0.278568703746089,0.034424353398947
1580420497.54603,-1.16139467460136,0.308842603189134,0.044678416113527
1580420497.55003,-1.14137483787289,0.330815594720377,0.0505378805218584
1580420497.55403,-1.12721446555276,0.355718318455786,0.0622568093385212
1580420497.55802,-1.11207751583123,0.378667887388417,0.0769054703593497
1580420497.56202,-1.09987029831388,0.398199435416188,0.0881361104753182
1580420497.56602,-1.08863965819791,0.41773098344396,0.0974135957885096
1580420497.57002,-1.08033875028611,0.443610284580757,0.108644235904478
1580420497.57402,-1.08033875028611,0.45874723430228,0.110597390707255
1580420497.57802,-1.08033875028611,0.473884184023802,0.116456855115587
1580420497.58202,-1.09010452429999,0.483161669336994,0.125734340428778
1580420497.58602,-1.09938200961318,0.486579690241854,0.133058670939192
1580420497.59,-1.11256580453193,0.482185091935605,0.139406424048218
1580420497.59399,-1.12721446555276,0.475349050125885,0.146242465857938
1580420497.59799,-1.1403982604715,0.461676966506445,0.145754177157244
1580420497.60199,-1.15407034409094,0.444586861982145,0.144777599755855
1580420497.60599,-1.15944151979858,0.421637293049514,0.140383001449607
1580420497.60999,-1.15944151979858,0.396734569314106,0.137941557946135
1580420497.61399,-1.15846494239719,0.373785000381474,0.132082093537804
1580420497.61799,-1.15602349889372,0.351323720149537,0.124269474326695
1580420497.62199,-1.15260547798886,0.328374151216906,0.118410009918364
1580420497.62598,-1.14772259098192,0.302494850080109,0.110597390707255
1580420497.62998,-1.13990997177081,0.278568703746089,0.0993667505912867
1580420497.63398,-1.13258564126039,0.25024795910582,0.0881361104753182
1580420497.63798,-1.1233081559472,0.227786678873883,0.0798352025635154
1580420497.64198,-1.11403067063401,0.200442511635003,0.0778820477607383
1580420497.64598,-1.09498741130693,0.178469520103761,0.0681162737468526
1580420497.64998,-1.08180361638819,0.157473105973907,0.0554207675288012
1580420497.65398,-1.07008468757153,0.145754177157244,0.0461432822156098
1580420497.65797,-1.06178377965972,0.133546959639887,0.0363775082017241
1580420497.66197,-1.05494773785,0.129152361333638,0.0290531776913099
1580420497.66597,-1.05152971694514,0.116945143816281,0.0271000228885327
1580420497.66998,-1.04615854123751,0.10424963759823,0.0187991149767299
1580420497.67398,-1.03932249942779,0.0866712443732354,0.00268558785381856
1580420497.67798,-1.01393148699168,0.0690928511482412,-0.0476081483176927
1580420497.68198,-0.999282825970855,0.0905775539787896,-0.0612802319371326
1580420497.68598,-1.01832608529793,0.127687495231555,0.0324711985961699
1580420497.68998,-1.0637369344625,0.131105516136415,0.142824444953078
1580420497.69397,-1.08278019378958,0.0676279850461583,0.142824444953078
1580420497.69797,-1.07643244068055,-0.027588311589227,0.0900892652780954
1580420497.70197,-1.06520180056458,-0.0734874494544897,0.0554207675288012
1580420497.70597,-1.05006485084306,-0.067139696345464,0.0319829098954756
1580420497.70997,-1.02223239490349,-0.0500495918211641,0.00561532005798426
1580420497.71397,-0.99977111467155,-0.0368657969024184,-0.0075684748607614
1580420497.71797,-0.996841382467384,-0.0349126420996413,0.00561532005798426
1580420497.72197,-1.0124666208896,-0.0383306630045013,0.0173342488746471
1580420497.72597,-1.02613870450904,-0.0373540856031127,0.0183108262760356
1580420497.72996,-1.03053330281529,-0.0266117341878385,0.0114747844663157
1580420497.73396,-1.02858014801251,-0.0148928053711757,0.000732433051041426
1580420497.73796,-1.02467383840696,-0.00122072175173571,-0.0192874036774242
1580420497.74196,-1.01441977569238,0.0227054245822842,-0.0397955291065841
1580420497.74596,-1.00611886778058,0.0432135500114441,-0.0500495918211641
1580420497.74991,-0.99977111467155,0.0563973449301898,-0.0578622110322726
1580420497.75391,-0.999282825970855,0.0622568093385212,-0.0651865415426869
1580420497.75791,-1.01002517738613,0.0568856336308841,-0.0622568093385212
1580420497.7619,-1.02174410620279,0.0363775082017241,-0.0544441901274126
1580420497.7659,-1.03297474631876,0.00805676356145568,-0.0505378805218584
1580420497.7699,-1.04859998474098,-0.0104982070649271,-0.0456549935149155
1580420497.7739,-1.06080720225834,-0.0251468680857556,-0.0505378805218584
1580420497.7779,-1.07008468757153,-0.0319829098954756,-0.0544441901274126
1580420497.7819,-1.07692072938125,-0.0373540856031127,-0.0642099641412983
1580420497.7859,-1.07936217288472,-0.041260395208667,-0.0710460059510183
1580420497.7899,-1.07643244068055,-0.0383306630045013,-0.0769054703593497
1580420497.79389,-1.07399099717708,-0.0349126420996413,-0.077393759060044
1580420497.79789,-1.06959639887083,-0.0329594872968642,-0.0764171816586554
