Timestamp_seconds,Gyro_X_s,Gyro_Y_s,Gyro_Z_s
1580420491.25627,-1.8616006713969,-1.49538414587619,-1.0681315327688
1580420491.26027,-1.98367284657047,-1.37331197070262,-1.0681315327688
1580420491.26427,-2.10574502174404,-1.31227588311594,-1.0070954451819
1580420491.26827,-2.10574502174404,-1.25123979552905,-1.0070954451819
1580420491.27225,-2.04470893415737,-1.31227588311594,-0.946059357595232
1580420491.27625,-2.04470893415737,-1.31227588311594,-1.12916762035547
1580420491.28024,-2.10574502174404,-1.43434805828952,-1.0070954451819
1580420491.28424,-2.04470893415737,-1.31227588311594,-0.885023270008332
1580420491.28824,-1.80056458381023,-1.49538414587619,-0.885023270008332
1580420491.29224,-1.67849240863666,-1.43434805828952,-0.823987182421661
1580420491.29624,-1.55642023346309,-1.43434805828952,-0.640878919661191
1580420491.30024,-1.37331197070262,-1.31227588311594,-0.579842832074519
1580420491.30424,-1.19020370794237,-1.19020370794237,-0.579842832074519
1580420491.30824,-1.12916762035547,-1.25123979552905,-0.579842832074519
1580420491.31223,-1.0681315327688,-1.19020370794237,-0.396734569314049
1580420491.31623,-1.12916762035547,-1.0681315327688,-0.274662394140478
1580420491.32023,-1.0070954451819,-1.0681315327688,-0.091554131380235
1580420491.32423,-1.0681315327688,-1.19020370794237,-0.091554131380235
1580420491.32823,-1.0681315327688,-1.31227588311594,-0.152590218966907
1580420491.33223,-1.0681315327688,-1.31227588311594,-0.152590218966907
1580420491.33623,-1.25123979552905,-1.19020370794237,-0.091554131380235
1580420491.34023,-1.43434805828952,-1.12916762035547,0.091554131380235
1580420491.34422,-1.73952849622333,-1.19020370794237,0.0305180437933359
1580420491.34822,-2.10574502174404,-1.37331197070262,-0.0305180437933359
1580420491.35223,-2.34988937209118,-1.43434805828952,-0.0305180437933359
1580420491.35623,-2.53299763485165,-1.55642023346309,0.152590218966907
1580420491.36023,-2.34988937209118,-1.61745632104976,0.274662394140478
1580420491.36423,-2.41092545967808,-1.67849240863666,0.579842832074519
1580420491.36823,-2.10574502174404,-1.49538414587619,0.51880674448762
1580420491.37223,-1.98367284657047,-1.37331197070262,0.640878919661191
1580420491.37623,-1.8616006713969,-1.31227588311594,0.762951094834762
1580420491.38022,-1.43434805828952,-1.43434805828952,1.0070954451819
1580420491.38422,-1.0070954451819,-1.49538414587619,1.12916762035547
1580420491.38822,-0.640878919661191,-1.43434805828952,1.25123979552905
1580420491.39222,-0.457770656900948,-1.37331197070262,1.31227588311594
1580420491.39622,-0.762951094834762,-1.25123979552905,1.25123979552905
1580420491.40022,-1.25123979552905,-1.25123979552905,1.19020370794237
1580420491.40422,-1.49538414587619,-1.12916762035547,1.37331197070262
1580420491.40822,-1.67849240863666,-1.12916762035547,1.49538414587619
1580420491.41221,-1.73952849622333,-0.946059357595232,1.61745632104976
1580420491.41621,-1.9226367589838,-1.0070954451819,1.67849240863666
1580420491.42021,-1.9226367589838,-1.0070954451819,1.61745632104976
1580420491.42421,-1.8616006713969,-1.0681315327688,1.67849240863666
1580420491.42821,-1.67849240863666,-1.0681315327688,1.80056458381023
1580420491.43222,-1.61745632104976,-1.0681315327688,1.8616006713969
1580420491.43622,-1.67849240863666,-1.0070954451819,1.9226367589838
1580420491.44022,-1.73952849622333,-0.762951094834762,1.98367284657047
1580420491.44422,-1.80056458381023,-0.885023270008332,1.9226367589838
1580420491.44822,-1.8616006713969,-0.885023270008332,1.98367284657047
1580420491.45221,-1.8616006713969,-0.885023270008332,2.04470893415737
1580420491.45621,-1.98367284657047,-0.823987182421661,1.98367284657047
1580420491.46021,-1.9226367589838,-0.823987182421661,1.98367284657047
1580420491.46421,-1.73952849622333,-0.762951094834762,1.98367284657047
1580420491.46821,-1.55642023346309,-0.70191500724809,1.80056458381023
1580420491.47221,-1.61745632104976,-0.70191500724809,1.73952849622333
1580420491.47621,-1.67849240863666,-0.457770656900948,1.73952849622333
1580420491.4802,-1.55642023346309,-0.579842832074519,1.67849240863666
1580420491.4842,-1.31227588311594,-0.579842832074519,1.55642023346309
1580420491.4882,-1.0681315327688,-0.457770656900948,1.73952849622333
1580420491.4922,-1.0681315327688,-0.396734569314049,1.73952849622333
1580420491.4962,-1.25123979552905,-0.152590218966907,1.55642023346309
1580420491.5002,-1.49538414587619,-0.091554131380235,1.49538414587619
1580420491.5042,-1.67849240863666,-0.0305180437933359,1.37331197070262
1580420491.5082,-1.67849240863666,-0.0305180437933359,1.37331197070262
1580420491.51218,-1.67849240863666,-0.091554131380235,1.37331197070262
1580420491.51618,-1.67849240863666,-0.152590218966907,1.25123979552905
1580420491.52017,-1.8616006713969,-0.335698481727377,1.0681315327688
1580420491.52417,-1.73952849622333,-0.396734569314049,1.0070954451819
1580420491.52817,-1.61745632104976,-0.51880674448762,0.946059357595232
1580420491.53217,-1.49538414587619,-0.579842832074519,0.762951094834762
1580420491.53617,-1.19020370794237,-0.457770656900948,0.579842832074519
1580420491.54017,-1.0681315327688,-0.579842832074519,0.579842832074519
1580420491.54417,-0.946059357595232,-0.70191500724809,0.70191500724809
1580420491.54816,-1.12916762035547,-0.70191500724809,0.640878919661191
1580420491.55216,-1.0681315327688,-0.640878919661191,0.579842832074519
1580420491.55616,-0.762951094834762,-0.640878919661191,0.457770656900948
1580420491.56016,-0.457770656900948,-0.70191500724809,0.274662394140478
1580420491.56416,-0.213626306553806,-0.70191500724809,0.091554131380235
1580420491.56816,0.213626306553806,-0.640878919661191,0.213626306553806
1580420491.57216,0.51880674448762,-0.70191500724809,0.0305180437933359
1580420491.57616,0.946059357595232,-0.70191500724809,0.0305180437933359
1580420491.58015,1.12916762035547,-0.640878919661191,-0.0305180437933359
1580420491.58415,1.19020370794237,-0.640878919661191,-0.213626306553806
1580420491.58815,1.12916762035547,-0.579842832074519,-0.335698481727377
1580420491.59216,1.25123979552905,-0.51880674448762,-0.457770656900948
1580420491.59616,1.12916762035547,-0.457770656900948,-0.579842832074519
1580420491.60016,0.946059357595232,-0.396734569314049,-0.70191500724809
1580420491.60416,0.70191500724809,-0.335698481727377,-0.70191500724809
1580420491.60816,0.762951094834762,-0.213626306553806,-0.823987182421661
1580420491.61216,0.396734569314049,-0.152590218966907,-0.885023270008332
1580420491.61615,0.152590218966907,-0.091554131380235,-1.12916762035547
1580420491.62015,-0.274662394140478,-0.152590218966907,-1.12916762035547
1580420491.62415,-0.579842832074519,-0.213626306553806,-1.37331197070262
1580420491.62815,-0.823987182421661,-0.091554131380235,-1.49538414587619
1580420491.63215,-1.0070954451819,-0.152590218966907,-1.67849240863666
1580420491.63615,-1.0070954451819,-0.0305180437933359,-1.61745632104976
1580420491.64015,-1.19020370794237,-0.0305180437933359,-1.80056458381023
1580420491.64415,-1.49538414587619,0.091554131380235,-1.9226367589838
1580420491.64814,-1.49538414587619,0.152590218966907,-2.04470893415737
1580420491.65214,-1.61745632104976,0.091554131380235,-1.80056458381023
1580420491.65614,-1.80056458381023,0.213626306553806,-1.80056458381023
1580420491.66014,-1.67849240863666,0.152590218966907,-1.9226367589838
1580420491.66414,-1.61745632104976,0.091554131380235,-1.9226367589838
1580420491.66814,-1.73952849622333,0.091554131380235,-1.8616006713969
1580420491.67212,-1.61745632104976,0.0305180437933359,-1.73952849622333
1580420491.67612,-1.43434805828952,0.0305180437933359,-1.73952849622333
1580420491.68012,-1.37331197070262,-0.091554131380235,-1.67849240863666
1580420491.68411,-1.43434805828952,0.091554131380235,-1.67849240863666
1580420491.68811,-1.0681315327688,0.091554131380235,-1.43434805828952
1580420491.69211,-1.0070954451819,0.0305180437933359,-1.37331197070262
1580420491.69611,-0.640878919661191,0.091554131380235,-1.19020370794237
1580420491.70011,-0.274662394140478,0.0305180437933359,-1.25123979552905
1580420491.70411,0.0305180437933359,0.152590218966907,-1.12916762035547
1580420491.70811,0.274662394140478,0.213626306553806,-1.0681315327688
1580420491.71211,0.396734569314049,0.274662394140478,-1.0070954451819
1580420491.7161,0.457770656900948,0.213626306553806,-0.885023270008332
1580420491.7201,0.396734569314049,0.335698481727377,-0.885023270008332
1580420491.7241,0.091554131380235,0.457770656900948,-0.823987182421661
1580420491.7281,-0.0305180437933359,0.579842832074519,-0.823987182421661
1580420491.7321,-0.0305180437933359,0.51880674448762,-0.823987182421661
1580420491.7361,-0.091554131380235,0.457770656900948,-0.762951094834762
1580420491.7401,-0.091554131380235,0.457770656900948,-0.885023270008332
1580420491.7441,-0.152590218966907,0.335698481727377,-0.823987182421661
1580420491.7481,-0.457770656900948,0.396734569314049,-0.885023270008332
1580420491.7521,-0.51880674448762,0.51880674448762,-1.0681315327688
1580420491.7561,-0.579842832074519,0.579842832074519,-0.946059357595232
1580420491.7601,-0.640878919661191,0.579842832074519,-1.0070954451819
1580420491.7641,-0.640878919661191,0.457770656900948,-0.885023270008332
1580420491.7681,-0.885023270008332,0.579842832074519,-0.946059357595232
1580420491.7721,-1.12916762035547,0.640878919661191,-0.885023270008332
1580420491.7761,-1.31227588311594,0.70191500724809,-0.762951094834762
1580420491.7801,-1.37331197070262,0.640878919661191,-0.70191500724809
1580420491.78409,-1.25123979552905,0.762951094834762,-0.579842832074519
1580420491.78809,-1.0070954451819,0.762951094834762,-0.640878919661191
1580420491.79209,-0.762951094834762,0.823987182421661,-0.640878919661191
1580420491.79609,-0.51880674448762,0.70191500724809,-0.640878919661191
1580420491.80009,-0.457770656900948,0.762951094834762,-0.579842832074519
1580420491.80409,-0.579842832074519,0.640878919661191,-0.457770656900948
1580420491.80809,-0.579842832074519,0.70191500724809,-0.457770656900948
1580420491.81209,-0.579842832074519,0.762951094834762,-0.274662394140478
1580420491.81608,-0.396734569314049,0.823987182421661,-0.335698481727377
1580420491.82008,-0.213626306553806,0.823987182421661,-0.335698481727377
1580420491.82408,0.091554131380235,0.640878919661191,-0.274662394140478
1580420491.82808,0.213626306553806,0.762951094834762,-0.213626306553806
1580420491.83206,-0.091554131380235,0.70191500724809,-0.152590218966907
1580420491.83606,-0.152590218966907,0.823987182421661,-0.213626306553806
1580420491.84006,-0.396734569314049,0.823987182421661,-0.274662394140478
1580420491.84406,-0.579842832074519,0.823987182421661,-0.396734569314049
1580420491.84806,-0.885023270008332,0.762951094834762,-0.335698481727377
1580420491.85205,-1.0681315327688,0.762951094834762,-0.274662394140478
1580420491.85605,-1.25123979552905,0.946059357595232,-0.274662394140478
1580420491.86005,-1.49538414587619,0.946059357595232,-0.396734569314049
1580420491.86405,-1.67849240863666,0.946059357595232,-0.396734569314049
1580420491.86805,-2.10574502174404,0.946059357595232,-0.274662394140478
1580420491.87205,-2.59403372243833,1.0681315327688,-0.335698481727377
1580420491.87605,-2.89921416037237,1.0070954451819,-0.396734569314049
1580420491.88005,-3.20439459830618,1.0070954451819,-0.51880674448762
1580420491.88404,-3.63164721141379,0.946059357595232,-0.396734569314049
1580420491.88804,-3.93682764934761,0.70191500724809,-0.274662394140478
1580420491.89204,-4.18097199969475,0.762951094834762,-0.213626306553806
1580420491.89604,-4.24200808728165,0.885023270008332,-0.091554131380235
1580420491.90004,-3.93682764934761,0.946059357595232,0.0305180437933359
1580420491.90404,-3.69268329900046,1.0070954451819,0.213626306553806
1580420491.90804,-3.57061112382689,1.0681315327688,0.274662394140478
1580420491.91205,-3.14335851071951,1.0681315327688,0.396734569314049
1580420491.91605,-2.96025024795904,1.0070954451819,0.640878919661191
1580420491.92004,-3.02128633554594,1.0070954451819,0.823987182421661
1580420491.92404,-2.83817807278547,1.0070954451819,1.0681315327688
1580420491.92804,-2.83817807278547,0.885023270008332,1.0070954451819
1580420491.93204,-2.89921416037237,0.762951094834762,1.12916762035547
1580420491.93604,-2.89921416037237,0.946059357595232,1.19020370794237
1580420491.94004,-2.47196154726475,0.885023270008332,1.12916762035547
1580420491.94404,-2.34988937209118,0.823987182421661,1.25123979552905
1580420491.94804,-2.34988937209118,0.640878919661191,1.37331197070262
1580420491.95204,-2.16678110933094,0.579842832074519,1.37331197070262
1580420491.95603,-1.98367284657047,0.70191500724809,1.43434805828952
1580420491.96003,-1.73952849622333,0.51880674448762,1.49538414587619
1580420491.96403,-1.49538414587619,0.579842832074519,1.31227588311594
1580420491.96803,-1.43434805828952,0.51880674448762,1.37331197070262
1580420491.97203,-1.43434805828952,0.70191500724809,1.31227588311594
1580420491.97603,-1.61745632104976,0.70191500724809,1.31227588311594
1580420491.98003,-1.9226367589838,0.823987182421661,1.37331197070262
1580420491.98403,-2.28885328450451,0.640878919661191,1.31227588311594
1580420491.98802,-2.65506981002522,0.579842832074519,1.37331197070262
1580420491.992,-2.59403372243833,0.70191500724809,1.43434805828952
1580420491.996,-2.96025024795904,0.70191500724809,1.37331197070262
1580420492,-3.38750286106665,0.640878919661191,1.37331197070262
1580420492.004,-3.69268329900046,0.51880674448762,1.25123979552905
1580420492.008,-3.44853894865332,0.579842832074519,1.12916762035547
1580420492.012,-3.26543068589308,0.579842832074519,1.12916762035547
1580420492.016,-3.50957503624022,0.579842832074519,1.19020370794237
1580420492.01999,-3.75371938658736,0.640878919661191,1.12916762035547
1580420492.02399,-4.05889982452118,0.51880674448762,1.19020370794237
1580420492.02799,-4.11993591210808,0.762951094834762,1.12916762035547
1580420492.03199,-4.18097199969475,0.823987182421661,1.12916762035547
1580420492.03599,-4.05889982452118,0.70191500724809,1.25123979552905
1580420492.03999,-3.81475547417404,0.762951094834762,1.25123979552905
1580420492.04399,-3.69268329900046,0.51880674448762,1.25123979552905
1580420492.04799,-3.69268329900046,0.640878919661191,1.31227588311594
1580420492.05199,-3.63164721141379,0.51880674448762,1.37331197070262
1580420492.05598,-3.38750286106665,0.457770656900948,1.37331197070262
1580420492.05998,-3.08232242313261,0.396734569314049,1.37331197070262
1580420492.06398,-2.96025024795904,0.396734569314049,1.55642023346309
1580420492.06798,-2.7161058976119,0.579842832074519,1.49538414587619
1580420492.07199,-2.53299763485165,0.51880674448762,1.49538414587619
1580420492.07599,-2.22781719691761,0.457770656900948,1.49538414587619
1580420492.07999,-2.04470893415737,0.51880674448762,1.49538414587619
1580420492.08399,-2.16678110933094,0.579842832074519,1.49538414587619
1580420492.08799,-2.47196154726475,0.579842832074519,1.49538414587619
1580420492.09198,-2.34988937209118,0.579842832074519,1.49538414587619
1580420492.09598,-2.28885328450451,0.457770656900948,1.49538414587619
1580420492.09998,-2.16678110933094,0.396734569314049,1.37331197070262
1580420492.10398,-2.10574502174404,0.457770656900948,1.37331197070262
1580420492.10798,-1.8616006713969,0.51880674448762,1.43434805828952
1580420492.11198,-1.8616006713969,0.51880674448762,1.37331197070262
1580420492.11598,-1.61745632104976,0.396734569314049,1.19020370794237
1580420492.11998,-1.49538414587619,0.457770656900948,1.19020370794237
1580420492.12397,-1.31227588311594,0.70191500724809,1.31227588311594
1580420492.12797,-1.25123979552905,0.70191500724809,1.25123979552905
1580420492.13197,-1.0681315327688,0.579842832074519,1.19020370794237
1580420492.13597,-0.946059357595232,0.579842832074519,1.19020370794237
1580420492.13997,-0.640878919661191,0.335698481727377,1.12916762035547
1580420492.14397,-0.457770656900948,0.51880674448762,1.19020370794237
1580420492.14797,-0.335698481727377,0.579842832074519,1.19020370794237
1580420492.15195,-0.396734569314049,0.579842832074519,1.19020370794237
1580420492.15594,-0.213626306553806,0.579842832074519,1.0070954451819
1580420492.15994,-0.335698481727377,0.51880674448762,1.0681315327688
1580420492.16394,-0.457770656900948,0.51880674448762,1.0070954451819
1580420492.16794,-0.51880674448762,0.70191500724809,0.762951094834762
1580420492.17194,-0.762951094834762,0.579842832074519,0.762951094834762
1580420492.17594,-0.823987182421661,0.579842832074519,0.579842832074519
1580420492.17994,-0.885023270008332,0.70191500724809,0.457770656900948
1580420492.18394,-0.885023270008332,0.70191500724809,0.335698481727377
1580420492.18793,-0.885023270008332,0.70191500724809,0.213626306553806
1580420492.19193,-0.762951094834762,0.762951094834762,0.213626306553806
1580420492.19593,-0.885023270008332,0.70191500724809,0.091554131380235
1580420492.19993,-0.885023270008332,0.823987182421661,-0.091554131380235
1580420492.20393,-1.25123979552905,0.946059357595232,-0.0305180437933359
1580420492.20793,-1.25123979552905,1.19020370794237,0.0305180437933359
1580420492.21193,-1.0681315327688,1.25123979552905,-0.091554131380235
1580420492.21593,-0.946059357595232,1.31227588311594,-0.152590218966907
1580420492.21993,-0.823987182421661,1.19020370794237,-0.091554131380235
1580420492.22392,-0.762951094834762,1.25123979552905,-0.213626306553806
1580420492.22792,-0.640878919661191,1.37331197070262,-0.091554131380235
1580420492.23193,-0.579842832074519,1.43434805828952,-0.091554131380235
1580420492.23593,-0.579842832074519,1.37331197070262,-0.213626306553806
1580420492.23993,-0.51880674448762,1.31227588311594,-0.152590218966907
1580420492.24393,-0.579842832074519,1.37331197070262,-0.091554131380235
1580420492.24793,-0.579842832074519,1.37331197070262,-0.152590218966907
1580420492.25193,-0.640878919661191,1.37331197070262,-0.152590218966907
1580420492.25593,-0.762951094834762,1.37331197070262,-0.213626306553806
1580420492.25992,-0.579842832074519,1.19020370794237,-0.213626306553806
1580420492.26392,-0.579842832074519,1.12916762035547,-0.213626306553806
1580420492.26792,-0.335698481727377,1.12916762035547,-0.213626306553806
1580420492.27192,-0.396734569314049,1.0681315327688,-0.152590218966907
1580420492.27592,-0.213626306553806,1.19020370794237,0.0305180437933359
1580420492.27992,0.0305180437933359,1.0681315327688,-0.0305180437933359
1580420492.28392,0.213626306553806,1.12916762035547,-0.152590218966907
1580420492.28792,0.274662394140478,1.0070954451819,0.091554131380235
1580420492.29191,0.457770656900948,1.12916762035547,0.091554131380235
1580420492.29591,0.579842832074519,1.19020370794237,0.152590218966907
1580420492.29991,0.762951094834762,1.19020370794237,0.213626306553806
1580420492.30391,0.946059357595232,1.0681315327688,0.213626306553806
1580420492.30791,0.823987182421661,1.0681315327688,0.213626306553806
1580420492.31189,0.579842832074519,1.0681315327688,0.213626306553806
1580420492.31589,0.579842832074519,1.12916762035547,0.091554131380235
1580420492.31989,0.274662394140478,1.19020370794237,0.152590218966907
1580420492.32389,0.335698481727377,1.19020370794237,-0.0305180437933359
1580420492.32788,0.213626306553806,1.19020370794237,-0.0305180437933359
1580420492.33188,0.335698481727377,1.31227588311594,0.0305180437933359
1580420492.33588,0.152590218966907,1.19020370794237,-0.152590218966907
1580420492.33988,0.152590218966907,1.0681315327688,-0.0305180437933359
1580420492.34388,0.0305180437933359,1.0681315327688,-0.0305180437933359
1580420492.34788,-0.152590218966907,1.19020370794237,-0.213626306553806
1580420492.35188,-0.274662394140478,1.19020370794237,-0.213626306553806
1580420492.35588,-0.457770656900948,1.19020370794237,-0.152590218966907
1580420492.35987,-0.457770656900948,1.31227588311594,-0.0305180437933359
1580420492.36387,-0.640878919661191,1.19020370794237,-0.0305180437933359
1580420492.36787,-0.885023270008332,1.19020370794237,-0.152590218966907
1580420492.37187,-0.946059357595232,1.31227588311594,-0.0305180437933359
1580420492.37587,-0.823987182421661,1.37331197070262,0.0305180437933359
1580420492.37987,-0.640878919661191,1.37331197070262,0.213626306553806
1580420492.38387,-0.396734569314049,1.31227588311594,0.091554131380235
1580420492.38787,-0.213626306553806,1.37331197070262,0.152590218966907
1580420492.39188,-0.213626306553806,1.31227588311594,0.213626306553806
1580420492.39587,0.091554131380235,1.19020370794237,0.335698481727377
1580420492.39987,0.274662394140478,1.19020370794237,0.457770656900948
1580420492.40387,0.396734569314049,1.19020370794237,0.457770656900948
1580420492.40787,0.51880674448762,1.25123979552905,0.396734569314049
1580420492.41187,0.762951094834762,1.25123979552905,0.335698481727377
1580420492.41587,1.0681315327688,1.19020370794237,0.274662394140478
1580420492.41987,1.12916762035547,1.12916762035547,0.274662394140478
1580420492.42387,0.885023270008332,1.12916762035547,0.274662394140478
1580420492.42787,0.396734569314049,1.25123979552905,0.335698481727377
1580420492.43186,-0.091554131380235,1.31227588311594,0.335698481727377
1580420492.43586,-0.396734569314049,1.31227588311594,0.335698481727377
1580420492.43986,-0.51880674448762,1.25123979552905,0.335698481727377
1580420492.44386,-0.640878919661191,1.19020370794237,0.213626306553806
1580420492.44786,-0.70191500724809,1.19020370794237,0.213626306553806
1580420492.45186,-0.762951094834762,1.19020370794237,0.396734569314049
1580420492.45586,-0.885023270008332,1.19020370794237,0.396734569314049
1580420492.45985,-0.946059357595232,1.12916762035547,0.396734569314049
1580420492.46385,-1.31227588311594,1.0681315327688,0.396734569314049
1580420492.46785,-1.43434805828952,1.0681315327688,0.396734569314049
1580420492.47183,-1.37331197070262,1.19020370794237,0.457770656900948
1580420492.47583,-1.37331197070262,1.0681315327688,0.457770656900948
1580420492.47983,-1.0070954451819,1.0070954451819,0.457770656900948
1580420492.48383,-0.70191500724809,0.946059357595232,0.70191500724809
1580420492.48783,-0.396734569314049,0.823987182421661,0.762951094834762
1580420492.49183,-0.213626306553806,0.823987182421661,0.762951094834762
1580420492.49582,0.091554131380235,0.762951094834762,0.762951094834762
1580420492.49982,0.213626306553806,0.823987182421661,0.70191500724809
1580420492.50382,0.396734569314049,0.946059357595232,0.640878919661191
1580420492.50782,0.457770656900948,0.885023270008332,0.762951094834762
1580420492.51182,0.640878919661191,0.885023270008332,0.640878919661191
1580420492.51582,0.823987182421661,0.762951094834762,0.640878919661191
1580420492.51982,0.885023270008332,0.762951094834762,0.51880674448762
1580420492.52382,0.823987182421661,0.640878919661191,0.579842832074519
1580420492.52781,0.640878919661191,0.640878919661191,0.51880674448762
1580420492.53181,0.51880674448762,0.70191500724809,0.51880674448762
1580420492.53581,0.213626306553806,0.762951094834762,0.335698481727377
1580420492.53981,0.0305180437933359,0.640878919661191,0.274662394140478
1580420492.54381,-0.091554131380235,0.579842832074519,0.274662394140478
1580420492.54781,-0.274662394140478,0.70191500724809,0.152590218966907
1580420492.55182,-0.51880674448762,0.70191500724809,0.152590218966907
1580420492.55582,-0.946059357595232,0.51880674448762,0.091554131380235
1580420492.55982,-1.31227588311594,0.51880674448762,0.091554131380235
1580420492.56381,-1.80056458381023,0.213626306553806,0.0305180437933359
1580420492.56781,-1.9226367589838,0.0305180437933359,0.0305180437933359
1580420492.57181,-1.61745632104976,-0.274662394140478,0.0305180437933359
1580420492.57581,-1.12916762035547,-0.457770656900948,-0.0305180437933359
1580420492.57981,-0.640878919661191,-0.396734569314049,0.152590218966907
1580420492.58381,-0.0305180437933359,-0.51880674448762,0.274662394140478
1580420492.58781,0.457770656900948,-0.457770656900948,0.457770656900948
1580420492.59181,0.885023270008332,-0.213626306553806,0.51880674448762
1580420492.5958,1.31227588311594,-0.0305180437933359,0.762951094834762
1580420492.5998,1.73952849622333,-0.0305180437933359,0.885023270008332
1580420492.6038,1.98367284657047,0.213626306553806,1.0681315327688
1580420492.6078,2.16678110933094,0.091554131380235,1.12916762035547
1580420492.6118,2.47196154726475,0.091554131380235,1.25123979552905
1580420492.6158,2.53299763485165,0.0305180437933359,1.31227588311594
1580420492.6198,2.7161058976119,-0.091554131380235,1.43434805828952
1580420492.6238,2.65506981002522,-0.091554131380235,1.31227588311594
1580420492.62779,2.47196154726475,-0.0305180437933359,1.31227588311594
1580420492.63177,1.98367284657047,0.0305180437933359,1.12916762035547
1580420492.63577,1.67849240863666,-0.091554131380235,1.0681315327688
1580420492.63977,1.37331197070262,-0.152590218966907,1.0070954451819
1580420492.64377,1.0681315327688,-0.0305180437933359,0.946059357595232
1580420492.64777,0.640878919661191,-0.152590218966907,0.946059357595232
1580420492.65177,0.457770656900948,-0.152590218966907,0.762951094834762
1580420492.65577,0.091554131380235,-0.335698481727377,0.946059357595232
1580420492.65977,-0.274662394140478,-0.213626306553806,0.946059357595232
1580420492.66376,-0.396734569314049,-0.091554131380235,0.885023270008332
1580420492.66776,-0.51880674448762,-0.0305180437933359,1.0070954451819
1580420492.67176,-0.579842832074519,-0.091554131380235,1.0070954451819
1580420492.67576,-0.51880674448762,-0.091554131380235,1.0681315327688
1580420492.67976,-0.396734569314049,-0.152590218966907,1.19020370794237
1580420492.68376,0.0305180437933359,-0.213626306553806,1.25123979552905
1580420492.68776,0.152590218966907,-0.213626306553806,1.37331197070262
1580420492.69176,0.213626306553806,-0.274662394140478,1.55642023346309
1580420492.69576,0.640878919661191,-0.396734569314049,1.67849240863666
1580420492.69975,0.885023270008332,-0.335698481727377,1.8616006713969
1580420492.70375,1.0681315327688,-0.335698481727377,1.80056458381023
1580420492.70775,1.0681315327688,-0.396734569314049,1.9226367589838
1580420492.71176,0.823987182421661,-0.396734569314049,2.04470893415737
1580420492.71576,0.823987182421661,-0.51880674448762,2.10574502174404
1580420492.71976,0.885023270008332,-0.579842832074519,1.98367284657047
1580420492.72376,1.0681315327688,-0.640878919661191,2.04470893415737
1580420492.72776,1.12916762035547,-0.640878919661191,2.04470893415737
1580420492.73176,1.31227588311594,-0.823987182421661,2.10574502174404
1580420492.73575,1.37331197070262,-0.946059357595232,2.22781719691761
1580420492.73975,1.43434805828952,-0.946059357595232,2.28885328450451
1580420492.74375,1.55642023346309,-0.885023270008332,2.22781719691761
1580420492.74775,1.55642023346309,-0.946059357595232,2.34988937209118
1580420492.75175,1.73952849622333,-0.946059357595232,2.22781719691761
1580420492.75575,1.73952849622333,-1.0681315327688,2.16678110933094
1580420492.75975,1.73952849622333,-1.0070954451819,2.10574502174404
1580420492.76374,1.61745632104976,-1.12916762035547,1.9226367589838
1580420492.76774,1.43434805828952,-1.31227588311594,1.8616006713969
1580420492.77174,1.0070954451819,-1.12916762035547,1.67849240863666
1580420492.77574,0.762951094834762,-1.0681315327688,1.73952849622333
1580420492.77974,0.640878919661191,-1.19020370794237,1.49538414587619
1580420492.78374,0.640878919661191,-1.43434805828952,1.43434805828952
1580420492.78774,0.70191500724809,-1.37331197070262,1.37331197070262
1580420492.79172,0.762951094834762,-1.19020370794237,1.19020370794237
1580420492.79572,0.762951094834762,-1.37331197070262,1.0681315327688
1580420492.79972,0.762951094834762,-1.43434805828952,1.0070954451819
1580420492.80371,0.51880674448762,-1.67849240863666,0.762951094834762
1580420492.80771,0.335698481727377,-1.80056458381023,0.640878919661191
1580420492.81171,0.274662394140478,-1.73952849622333,0.457770656900948
1580420492.81571,0.0305180437933359,-1.73952849622333,0.274662394140478
1580420492.81971,-0.0305180437933359,-1.80056458381023,0.274662394140478
1580420492.82371,-0.213626306553806,-1.8616006713969,0.213626306553806
1580420492.82771,-0.335698481727377,-1.9226367589838,0.091554131380235
1580420492.8317,-0.335698481727377,-1.8616006713969,0.0305180437933359
1580420492.8357,-0.152590218966907,-1.9226367589838,0.091554131380235
1580420492.8397,0.213626306553806,-2.10574502174404,0.0305180437933359
1580420492.8437,0.396734569314049,-2.22781719691761,-0.091554131380235
1580420492.8477,0.51880674448762,-2.16678110933094,-0.091554131380235
1580420492.8517,0.51880674448762,-2.16678110933094,-0.213626306553806
1580420492.8557,0.579842832074519,-2.53299763485165,-0.335698481727377
1580420492.8597,0.640878919661191,-2.59403372243833,-0.335698481727377
1580420492.86369,0.762951094834762,-2.7161058976119,-0.457770656900948
1580420492.86769,1.0681315327688,-2.89921416037237,-0.579842832074519
1580420492.8717,1.31227588311594,-2.96025024795904,-0.51880674448762
1580420492.8757,1.61745632104976,-2.89921416037237,-0.457770656900948
1580420492.8797,1.73952849622333,-2.96025024795904,-0.457770656900948
1580420492.8837,1.73952849622333,-2.7771419851988,-0.51880674448762
1580420492.8877,1.80056458381023,-2.89921416037237,-0.579842832074519
1580420492.8917,1.80056458381023,-3.02128633554594,-0.51880674448762
1580420492.8957,1.98367284657047,-3.02128633554594,-0.762951094834762
1580420492.89969,1.8616006713969,-2.89921416037237,-0.946059357595232
1580420492.90369,1.43434805828952,-3.08232242313261,-1.12916762035547
1580420492.90769,1.31227588311594,-3.08232242313261,-1.31227588311594
1580420492.91169,1.0681315327688,-3.14335851071951,-1.43434805828952
1580420492.91569,0.762951094834762,-3.26543068589308,-1.43434805828952
1580420492.91969,0.579842832074519,-3.20439459830618,-1.43434805828952
1580420492.92369,0.213626306553806,-3.26543068589308,-1.49538414587619
1580420492.92769,0.0305180437933359,-3.26543068589308,-1.49538414587619
1580420492.93168,0.0305180437933359,-3.26543068589308,-1.55642023346309
1580420492.93568,0.091554131380235,-3.38750286106665,-1.37331197070262
1580420492.93968,0.51880674448762,-3.57061112382689,-1.61745632104976
1580420492.94368,0.823987182421661,-3.57061112382689,-1.61745632104976
1580420492.94768,1.0070954451819,-3.63164721141379,-1.49538414587619
1580420492.95166,1.31227588311594,-3.57061112382689,-1.43434805828952
1580420492.95566,1.49538414587619,-3.57061112382689,-1.37331197070262
1580420492.95966,1.43434805828952,-3.44853894865332,-1.25123979552905
1580420492.96366,1.49538414587619,-3.50957503624022,-1.12916762035547
1580420492.96765,1.55642023346309,-3.57061112382689,-1.19020370794237
1580420492.97165,1.73952849622333,-3.69268329900046,-1.25123979552905
1580420492.97565,1.61745632104976,-3.63164721141379,-1.31227588311594
1580420492.97965,1.67849240863666,-3.63164721141379,-1.25123979552905
1580420492.98365,1.67849240863666,-3.81475547417404,-1.19020370794237
1580420492.98765,1.55642023346309,-3.93682764934761,-1.19020370794237
1580420492.99165,1.37331197070262,-4.18097199969475,-1.12916762035547
1580420492.99565,1.12916762035547,-4.30304417486832,-1.12916762035547
1580420492.99964,0.946059357595232,-4.36408026245522,-1.0681315327688
1580420493.00364,1.0681315327688,-4.42511635004189,-1.12916762035547
1580420493.00764,1.0681315327688,-4.54718852521546,-1.12916762035547
1580420493.01164,1.37331197070262,-4.60822461280236,-1.19020370794237
1580420493.01564,1.49538414587619,-4.60822461280236,-1.0070954451819
1580420493.01964,1.73952849622333,-4.60822461280236,-1.0070954451819
1580420493.02364,2.16678110933094,-4.66926070038903,-0.823987182421661
1580420493.02764,2.53299763485165,-4.73029678797593,-0.640878919661191
1580420493.03165,2.83817807278547,-4.66926070038903,-0.640878919661191
1580420493.03565,3.14335851071951,-4.66926070038903,-0.640878919661191
1580420493.03964,3.63164721141379,-4.54718852521546,-0.457770656900948
1580420493.04364,3.81475547417404,-4.54718852521546,-0.396734569314049
1580420493.04764,4.05889982452118,-4.48615243762879,-0.396734569314049
1580420493.05164,4.30304417486832,-4.48615243762879,-0.335698481727377
1580420493.05564,4.11993591210808,-4.36408026245522,-0.152590218966907
1580420493.05964,3.87579156176093,-4.36408026245522,-0.152590218966907
1580420493.06364,3.63164721141379,-4.30304417486832,-0.0305180437933359
1580420493.06763,3.20439459830618,-4.24200808728165,-0.152590218966907
1580420493.07163,3.08232242313261,-4.30304417486832,-0.152590218966907
1580420493.07563,3.08232242313261,-4.42511635004189,-0.152590218966907
1580420493.07963,3.44853894865332,-4.36408026245522,-0.213626306553806
1580420493.08363,3.50957503624022,-4.42511635004189,-0.213626306553806
1580420493.08763,3.57061112382689,-4.48615243762879,-0.335698481727377
1580420493.09163,3.57061112382689,-4.48615243762879,-0.274662394140478
1580420493.09563,3.20439459830618,-4.48615243762879,-0.091554131380235
1580420493.09962,3.02128633554594,-4.48615243762879,-0.0305180437933359
1580420493.10362,2.96025024795904,-4.48615243762879,-0.0305180437933359
1580420493.10762,3.02128633554594,-4.54718852521546,-0.091554131380235
1580420493.1116,3.32646677347975,-4.66926070038903,0.0305180437933359
1580420493.1156,3.50957503624022,-4.73029678797593,0.091554131380235
1580420493.1196,3.63164721141379,-5.09651331349664,0.152590218966907
1580420493.1236,4.05889982452118,-5.40169375143046,0.0305180437933359
1580420493.1276,4.7913328755626,-5.58480201419093,0.091554131380235
1580420493.1316,5.40169375143046,-5.7068741893645,0.213626306553806
1580420493.13559,5.95101853971164,-5.58480201419093,0.51880674448762
1580420493.13959,6.13412680247188,-5.27962157625689,0.762951094834762
1580420493.14359,6.07309071488521,-4.97444113832307,1.0681315327688
1580420493.14759,6.07309071488521,-4.66926070038903,1.12916762035547
1580420493.15159,6.25619897764545,-4.60822461280236,1.31227588311594
1580420493.15559,6.43930724040592,-4.60822461280236,1.31227588311594
1580420493.15959,6.86655985351331,-4.54718852521546,1.25123979552905
1580420493.16359,6.92759594110021,-4.60822461280236,1.25123979552905
1580420493.16758,6.98863202868688,-4.54718852521546,1.12916762035547
1580420493.17158,6.56137941557949,-4.36408026245522,1.37331197070262
1580420493.17558,6.31723506523235,-4.30304417486832,1.37331197070262
1580420493.17958,6.31723506523235,-4.18097199969475,1.31227588311594
1580420493.18358,6.19516289005878,-4.24200808728165,1.43434805828952
1580420493.18758,5.82894636453807,-4.24200808728165,1.25123979552905
1580420493.19159,5.6458381017776,-4.36408026245522,1.0681315327688
1580420493.19559,5.40169375143046,-4.18097199969475,1.0070954451819
1580420493.19959,5.09651331349664,-4.24200808728165,0.885023270008332
1580420493.20358,5.03547722590974,-4.42511635004189,0.640878919661191
1580420493.20758,4.73029678797593,-4.36408026245522,0.579842832074519
1580420493.21158,3.99786373693451,-4.18097199969475,0.457770656900948
1580420493.21558,3.20439459830618,-3.93682764934761,0.335698481727377
1580420493.21958,2.65506981002522,-3.81475547417404,0.213626306553806
1580420493.22358,2.7771419851988,-3.93682764934761,0.152590218966907
1580420493.22758,3.50957503624022,-4.05889982452118,0.274662394140478
1580420493.23158,4.36408026245522,-3.93682764934761,0.51880674448762
1580420493.23557,4.8523689631495,-3.93682764934761,0.579842832074519
1580420493.23957,5.58480201419093,-3.69268329900046,0.640878919661191
1580420493.24357,6.25619897764545,-3.81475547417404,0.70191500724809
1580420493.24757,7.11070420386045,-4.42511635004189,0.762951094834762
1580420493.25157,7.47692072938116,-5.03547722590974,0.885023270008332
1580420493.25557,7.23277637903402,-5.03547722590974,1.12916762035547
1580420493.25957,6.19516289005878,-4.7913328755626,1.12916762035547
1580420493.26357,4.73029678797593,-4.60822461280236,1.0070954451819
1580420493.26757,3.26543068589308,-4.66926070038903,0.70191500724809
1580420493.27154,1.61745632104976,-4.97444113832307,0.457770656900948
1580420493.27554,0.152590218966907,-5.27962157625689,0.457770656900948
1580420493.27954,-0.946059357595232,-5.46272983901736,0.457770656900948
1580420493.28354,-1.61745632104976,-5.52376592660403,0.396734569314049
1580420493.28754,-2.47196154726475,-6.13412680247188,-0.091554131380235
1580420493.29154,-3.57061112382689,-7.72106507972831,-0.823987182421661
1580420493.29554,-5.09651331349664,-9.97940032043948,-2.04470893415737
1580420493.29954,-6.80552376592664,-11.2001220721752,-2.89921416037237
1580420493.30353,-7.41588464179449,-11.6273746852826,-3.44853894865332
1580420493.30753,-7.04966811627378,-11.7494468604561,-4.11993591210808
1580420493.31153,-6.01205462729831,-11.810482948043,-4.18097199969475
1580420493.31553,-5.95101853971164,-11.6273746852826,-4.18097199969475
1580420493.31953,-6.74448767833974,-11.3221942473488,-4.18097199969475
1580420493.32353,-8.08728160524902,-10.8949416342411,-4.18097199969475
1580420493.32753,-9.4300755321583,-10.3456168459602,-4.42511635004189
1580420493.33153,-10.2845807583733,-9.61318379491877,-4.8523689631495
1580420493.33553,-10.8339055466545,-9.24696726939806,-5.03547722590974
1580420493.33952,-10.5287251087204,-8.94178683146401,-5.15754940108332
1580420493.34352,-9.18593118181116,-9.61318379491877,-5.03547722590974
1580420493.34752,-7.72106507972831,-10.8339055466545,-4.8523689631495
1580420493.35153,-6.74448767833974,-11.3221942473488,-4.7913328755626
1580420493.35553,-6.01205462729831,-11.6884107728695,-4.73029678797593
1580420493.35953,-5.34065766384379,-11.3221942473488,-4.60822461280236
1580420493.36353,-4.8523689631495,-10.8949416342411,-4.54718852521546
1580420493.36753,-4.8523689631495,-10.1625085831997,-4.48615243762879
1580420493.37152,-4.7913328755626,-9.55214770733187,-4.18097199969475
1580420493.37552,-4.36408026245522,-9.00282291905091,-3.69268329900046
1580420493.37952,-3.32646677347975,-8.69764248111687,-3.02128633554594
1580420493.38352,-1.80056458381023,-8.81971465629044,-2.04470893415737
1580420493.38752,-1.19020370794237,-8.51453421835663,-1.25123979552905
1580420493.39152,-2.96025024795904,-7.11070420386045,-0.70191500724809
1580420493.39552,-6.68345159075307,-4.7913328755626,-0.946059357595232
1580420493.39952,-9.85732814526591,-3.14335851071951,-1.67849240863666
1580420493.40351,-10.8949416342411,-2.47196154726475,-1.98367284657047
1580420493.40751,-10.4066529335469,-2.41092545967808,-1.73952849622333
1580420493.41151,-10.650797283894,-2.28885328450451,-1.0681315327688
1580420493.41551,-12.4208438239109,-2.28885328450451,-0.396734569314049
1580420493.41951,-15.9609369039445,-2.47196154726475,-0.152590218966907
1580420493.42351,-20.5996795605402,-2.89921416037237,-0.213626306553806
1580420493.42751,-25.0553139543754,-3.44853894865332,-0.762951094834762
1580420493.43149,-28.1681544213016,-3.75371938658736,-1.25123979552905
1580420493.43549,-29.2057679102768,-3.57061112382689,-1.55642023346309
1580420493.43948,-28.5954070344089,-3.14335851071951,-1.61745632104976
1580420493.44348,-26.7032883192187,-2.28885328450451,-1.31227588311594
1580420493.44748,-23.5904478522925,-1.25123979552905,-0.762951094834762
1580420493.45148,-19.8672465094987,-0.396734569314049,0.213626306553806
1580420493.45548,-15.4116121156633,0.213626306553806,1.31227588311594
1580420493.45948,-10.7118333714809,0.823987182421661,2.41092545967808
1580420493.46348,-5.95101853971164,1.25123979552905,3.44853894865332
1580420493.46748,-0.70191500724809,1.67849240863666,4.42511635004189
1580420493.47147,4.18097199969475,2.10574502174404,5.27962157625689
1580420493.47547,8.14831769283592,2.47196154726475,5.95101853971164
1580420493.47947,11.3221942473488,2.83817807278547,6.5003433279926
1580420493.48347,13.6415655756466,3.14335851071951,6.92759594110021
1580420493.48747,15.1674677653161,3.44853894865332,7.23277637903402
1580420493.49147,16.0219729915311,3.75371938658736,7.47692072938116
1580420493.49547,16.5712977798123,3.99786373693451,7.41588464179449
1580420493.49947,16.9985503929197,4.11993591210808,7.23277637903402
1580420493.50346,17.3037308308537,4.24200808728165,7.04966811627378
1580420493.50746,17.1206225680933,4.54718852521546,6.62241550316617
1580420493.51147,16.632333867399,4.60822461280236,6.19516289005878
1580420493.51547,15.7167925535973,4.66926070038903,5.82894636453807
1580420493.51947,14.6791790646218,4.48615243762879,5.34065766384379
1580420493.52347,13.519493400473,4.48615243762879,4.60822461280236
1580420493.52747,12.1156633859769,4.30304417486832,4.05889982452118
1580420493.53147,10.4676890211338,4.05889982452118,3.75371938658736
1580420493.53547,8.88075074387734,3.75371938658736,3.50957503624022
1580420493.53947,6.92759594110021,3.44853894865332,3.14335851071951
1580420493.54346,5.03547722590974,3.26543068589308,2.89921416037237
1580420493.54746,3.08232242313261,2.89921416037237,2.7161058976119
1580420493.55146,1.0681315327688,2.65506981002522,2.34988937209118
1580420493.55546,-0.762951094834762,2.34988937209118,1.98367284657047
1580420493.55946,-2.41092545967808,2.04470893415737,1.8616006713969
1580420493.56346,-3.75371938658736,1.61745632104976,1.73952849622333
1580420493.56746,-4.91340505073617,1.31227588311594,1.55642023346309
1580420493.57146,-6.01205462729831,1.12916762035547,1.49538414587619
1580420493.57545,-7.11070420386045,0.762951094834762,1.55642023346309
1580420493.57945,-8.27038986800949,0.579842832074519,1.67849240863666
1580420493.58345,-9.12489509422448,0.335698481727377,1.49538414587619
1580420493.58745,-9.85732814526591,0.152590218966907,1.61745632104976
1580420493.59143,-10.7118333714809,-0.0305180437933359,1.80056458381023
1580420493.59543,-11.505302510109,-0.213626306553806,1.9226367589838
1580420493.59943,-12.0546272983902,-0.274662394140478,2.04470893415737
1580420493.60343,-12.4208438239109,-0.579842832074519,2.16678110933094
1580420493.60742,-12.7870603494316,-0.70191500724809,2.47196154726475
1580420493.61142,-12.7870603494316,-1.0681315327688,2.65506981002522
1580420493.61542,-12.6039520866711,-1.0681315327688,3.02128633554594
1580420493.61942,-12.1156633859769,-1.19020370794237,3.38750286106665
1580420493.62342,-11.3832303349354,-1.12916762035547,3.69268329900046
1580420493.62742,-10.7728694590676,-1.0681315327688,3.93682764934761
1580420493.63142,-10.1014724956131,-1.25123979552905,4.36408026245522
1580420493.63542,-9.36903944457163,-1.25123979552905,4.91340505073617
1580420493.63942,-8.51453421835663,-1.12916762035547,5.40169375143046
1580420493.64341,-7.66002899214163,-1.25123979552905,5.76791027695117
1580420493.64741,-6.5003433279926,-1.25123979552905,6.25619897764545
1580420493.65141,-5.34065766384379,-1.19020370794237,6.5003433279926
1580420493.65541,-4.11993591210808,-1.0681315327688,6.74448767833974
1580420493.65941,-2.65506981002522,-1.12916762035547,7.11070420386045
1580420493.66341,-1.55642023346309,-0.885023270008332,7.35484855420759
1580420493.66741,-0.70191500724809,-0.762951094834762,7.53795681696806
1580420493.67142,0.335698481727377,-0.885023270008332,7.7821011673152
1580420493.67542,1.25123979552905,-0.823987182421661,7.90417334248878
1580420493.67941,1.9226367589838,-0.885023270008332,7.84313725490188
1580420493.68341,2.34988937209118,-0.946059357595232,7.7821011673152
1580420493.68741,2.53299763485165,-1.0681315327688,7.72106507972831
1580420493.69141,2.47196154726475,-1.19020370794237,7.66002899214163
1580420493.69541,2.34988937209118,-1.55642023346309,7.47692072938116
1580420493.69941,2.34988937209118,-1.67849240863666,7.23277637903402
1580420493.70341,2.7161058976119,-1.8616006713969,6.98863202868688
1580420493.70741,3.38750286106665,-1.9226367589838,6.68345159075307
1580420493.7114,3.93682764934761,-1.9226367589838,6.37827115281902
1580420493.7154,4.30304417486832,-1.8616006713969,6.13412680247188
1580420493.7194,4.42511635004189,-1.9226367589838,5.58480201419093
1580420493.7234,4.18097199969475,-2.16678110933094,5.21858548867021
1580420493.7274,3.75371938658736,-2.59403372243833,4.66926070038903
1580420493.7314,3.75371938658736,-2.83817807278547,4.24200808728165
1580420493.7354,3.81475547417404,-2.96025024795904,3.69268329900046
1580420493.7394,3.99786373693451,-2.83817807278547,3.38750286106665
1580420493.74339,4.48615243762879,-2.7771419851988,3.20439459830618
1580420493.74739,4.7913328755626,-2.59403372243833,3.14335851071951
1580420493.75137,5.34065766384379,-2.28885328450451,3.32646677347975
1580420493.75537,5.88998245212474,-2.16678110933094,3.50957503624022
1580420493.75937,6.43930724040592,-2.04470893415737,3.69268329900046
1580420493.76337,7.17174029144735,-1.98367284657047,3.93682764934761
1580420493.76737,7.7821011673152,-1.67849240863666,3.99786373693451
1580420493.77137,8.39246204318306,-1.49538414587619,4.11993591210808
1580420493.77536,9.36903944457163,-1.31227588311594,4.05889982452118
1580420493.77936,10.3456168459602,-1.12916762035547,4.11993591210808
1580420493.78336,11.4442664225223,-0.885023270008332,4.36408026245522
1580420493.78736,12.6039520866711,-0.579842832074519,4.54718852521546
1580420493.79136,13.4584573128861,-0.274662394140478,4.60822461280236
1580420493.79536,14.1298542763409,0.0305180437933359,4.8523689631495
1580420493.79936,14.6791790646218,0.274662394140478,5.15754940108332
1580420493.80336,15.0453955901426,0.70191500724809,5.52376592660403
1580420493.80736,15.1064316777295,0.885023270008332,5.82894636453807
1580420493.81135,15.1064316777295,1.19020370794237,6.01205462729831
1580420493.81535,14.9843595025559,1.19020370794237,6.13412680247188
1580420493.81935,14.8012512397954,1.43434805828952,6.07309071488521
1580420493.82335,14.4960708018616,1.61745632104976,6.07309071488521
1580420493.82735,14.0077821011673,1.67849240863666,5.95101853971164
1580420493.83133,13.2753490501259,1.80056458381023,5.88998245212474
1580420493.83533,12.7260242618447,1.80056458381023,5.58480201419093
1580420493.83933,11.810482948043,1.9226367589838,5.27962157625689
1580420493.84332,10.955977721828,1.8616006713969,5.03547722590974
1580420493.84732,9.85732814526591,1.80056458381023,4.60822461280236
1580420493.85132,8.27038986800949,1.80056458381023,4.18097199969475
1580420493.85532,6.56137941557949,1.73952849622333,3.75371938658736
1580420493.85932,4.60822461280236,1.55642023346309,3.26543068589308
1580420493.86332,2.89921416037237,1.49538414587619,2.59403372243833
1580420493.86732,1.0681315327688,1.25123979552905,2.04470893415737
1580420493.87132,-0.51880674448762,1.12916762035547,1.37331197070262
1580420493.87531,-2.10574502174404,0.885023270008332,0.762951094834762
1580420493.87931,-3.63164721141379,0.946059357595232,0.091554131380235
1580420493.88331,-4.73029678797593,0.885023270008332,-0.51880674448762
1580420493.88731,-5.7068741893645,0.946059357595232,-0.946059357595232
1580420493.89131,-6.19516289005878,1.0070954451819,-1.37331197070262
1580420493.89531,-6.68345159075307,0.885023270008332,-1.73952849622333
1580420493.89931,-6.80552376592664,0.823987182421661,-2.04470893415737
1580420493.90331,-7.23277637903402,0.823987182421661,-2.16678110933094
1580420493.90731,-7.41588464179449,0.823987182421661,-2.41092545967808
1580420493.91132,-7.29381246662092,1.0070954451819,-2.41092545967808
1580420493.91531,-7.04966811627378,0.946059357595232,-2.47196154726475
1580420493.91931,-6.62241550316617,1.0070954451819,-2.28885328450451
1580420493.92331,-6.19516289005878,1.0681315327688,-2.28885328450451
1580420493.92731,-6.01205462729831,1.19020370794237,-2.28885328450451
1580420493.93131,-6.07309071488521,1.25123979552905,-2.16678110933094
1580420493.93531,-6.31723506523235,1.31227588311594,-2.10574502174404
1580420493.93931,-6.5003433279926,1.49538414587619,-2.22781719691761
1580420493.94331,-6.98863202868688,1.67849240863666,-2.28885328450451
1580420493.9473,-7.29381246662092,1.67849240863666,-2.10574502174404
1580420493.9513,-7.35484855420759,1.80056458381023,-2.28885328450451
1580420493.9553,-6.92759594110021,1.9226367589838,-2.28885328450451
1580420493.9593,-6.56137941557949,2.04470893415737,-2.34988937209118
1580420493.9633,-6.07309071488521,2.22781719691761,-2.28885328450451
1580420493.9673,-5.76791027695117,2.47196154726475,-2.10574502174404
1580420493.9713,-5.27962157625689,2.47196154726475,-2.10574502174404
1580420493.9753,-4.8523689631495,2.47196154726475,-2.16678110933094
1580420493.97929,-4.91340505073617,2.7161058976119,-2.10574502174404
1580420493.98329,-5.09651331349664,2.65506981002522,-2.10574502174404
1580420493.98729,-5.34065766384379,2.7161058976119,-2.04470893415737
1580420493.9913,-5.6458381017776,2.7771419851988,-2.22781719691761
1580420493.9953,-6.19516289005878,2.7161058976119,-2.53299763485165
1580420493.9993,-6.68345159075307,2.59403372243833,-2.7771419851988
1580420494.0033,-7.29381246662092,2.34988937209118,-3.02128633554594
1580420494.0073,-7.90417334248878,2.04470893415737,-3.32646677347975
1580420494.0113,-8.39246204318306,1.67849240863666,-3.81475547417404
1580420494.0153,-8.51453421835663,1.37331197070262,-4.42511635004189
1580420494.01929,-8.69764248111687,1.25123979552905,-4.60822461280236
1580420494.02329,-8.5755703059433,1.12916762035547,-4.8523689631495
1580420494.02729,-8.51453421835663,1.25123979552905,-4.91340505073617
1580420494.03129,-8.75867856870377,1.43434805828952,-5.15754940108332
1580420494.03529,-9.12489509422448,1.43434805828952,-5.46272983901736
1580420494.03929,-9.85732814526591,1.43434805828952,-5.52376592660403
1580420494.04329,-10.5287251087204,1.19020370794237,-5.7068741893645
1580420494.04728,-11.2611581597619,1.12916762035547,-5.88998245212474
1580420494.05128,-11.5663385976959,0.946059357595232,-6.13412680247188
1580420494.05528,-11.7494468604561,0.823987182421661,-6.13412680247188
1580420494.05928,-11.3221942473488,0.70191500724809,-6.25619897764545
1580420494.06328,-10.4066529335469,0.640878919661191,-6.13412680247188
1580420494.06728,-9.36903944457163,0.579842832074519,-5.88998245212474
1580420494.07126,-8.27038986800949,0.457770656900948,-5.58480201419093
1580420494.07526,-7.29381246662092,0.579842832074519,-5.15754940108332
1580420494.07926,-6.5003433279926,0.457770656900948,-4.91340505073617
1580420494.08325,-6.19516289005878,0.51880674448762,-4.54718852521546
1580420494.08725,-5.95101853971164,0.274662394140478,-4.18097199969475
1580420494.09125,-5.76791027695117,0.213626306553806,-3.99786373693451
1580420494.09525,-5.82894636453807,0.0305180437933359,-3.87579156176093
1580420494.09925,-5.82894636453807,0.0305180437933359,-3.75371938658736
1580420494.10325,-5.6458381017776,-0.091554131380235,-3.44853894865332
1580420494.10725,-5.95101853971164,0.0305180437933359,-3.32646677347975
1580420494.11125,-6.68345159075307,-0.0305180437933359,-3.20439459830618
1580420494.11524,-6.92759594110021,-0.091554131380235,-3.14335851071951
1580420494.11924,-7.04966811627378,-0.213626306553806,-3.14335851071951
1580420494.12324,-7.04966811627378,-0.396734569314049,-3.14335851071951
1580420494.12724,-6.62241550316617,-0.274662394140478,-3.08232242313261
1580420494.13124,-6.13412680247188,-0.152590218966907,-3.02128633554594
1580420494.13524,-5.52376592660403,-0.091554131380235,-2.96025024795904
1580420494.13924,-4.91340505073617,0.0305180437933359,-2.89921416037237
1580420494.14324,-4.30304417486832,-0.0305180437933359,-2.7771419851988
1580420494.14723,-3.87579156176093,-0.091554131380235,-2.7161058976119
1580420494.15124,-3.57061112382689,-0.152590218966907,-2.7771419851988
1580420494.15524,-3.32646677347975,-0.335698481727377,-3.08232242313261
1580420494.15924,-3.20439459830618,-0.396734569314049,-3.14335851071951
1580420494.16324,-3.02128633554594,-0.640878919661191,-3.38750286106665
1580420494.16724,-2.96025024795904,-0.762951094834762,-3.63164721141379
1580420494.17124,-2.7771419851988,-0.823987182421661,-3.75371938658736
1580420494.17524,-2.28885328450451,-0.885023270008332,-3.93682764934761
1580420494.17924,-1.43434805828952,-0.946059357595232,-3.93682764934761
1580420494.18323,-0.762951094834762,-0.823987182421661,-4.11993591210808
1580420494.18723,0.396734569314049,-0.640878919661191,-4.11993591210808
1580420494.19123,1.19020370794237,-0.70191500724809,-4.05889982452118
1580420494.19523,2.16678110933094,-0.579842832074519,-3.87579156176093
1580420494.19923,2.89921416037237,-0.457770656900948,-3.81475547417404
1580420494.20323,3.63164721141379,-0.396734569314049,-3.75371938658736
1580420494.20723,4.05889982452118,-0.396734569314049,-3.63164721141379
1580420494.21123,3.87579156176093,-0.396734569314049,-3.50957503624022
1580420494.21522,3.44853894865332,-0.396734569314049,-3.44853894865332
1580420494.21922,3.02128633554594,-0.396734569314049,-3.63164721141379
1580420494.22322,2.7161058976119,-0.51880674448762,-3.63164721141379
1580420494.22722,2.41092545967808,-0.579842832074519,-3.63164721141379
1580420494.2312,1.9226367589838,-0.70191500724809,-3.63164721141379
1580420494.2352,1.43434805828952,-0.640878919661191,-3.44853894865332
1580420494.2392,0.823987182421661,-0.823987182421661,-3.20439459830618
1580420494.2432,0.335698481727377,-0.70191500724809,-2.83817807278547
1580420494.2472,-0.091554131380235,-0.885023270008332,-2.59403372243833
1580420494.25119,-0.335698481727377,-1.19020370794237,-2.16678110933094
1580420494.25519,-0.885023270008332,-1.19020370794237,-1.67849240863666
1580420494.25919,-1.67849240863666,-1.19020370794237,-1.25123979552905
1580420494.26319,-2.22781719691761,-1.0070954451819,-0.762951094834762
1580420494.26719,-2.28885328450451,-0.885023270008332,-0.274662394140478
1580420494.27119,-1.98367284657047,-0.823987182421661,0.213626306553806
1580420494.27519,-1.49538414587619,-0.762951094834762,0.762951094834762
1580420494.27919,-1.12916762035547,-0.70191500724809,1.43434805828952
1580420494.28319,-0.51880674448762,-0.579842832074519,1.9226367589838
1580420494.28718,0.213626306553806,-0.51880674448762,2.47196154726475
1580420494.29118,0.946059357595232,-0.579842832074519,3.14335851071951
1580420494.29518,1.61745632104976,-0.396734569314049,3.69268329900046
1580420494.29918,2.10574502174404,-0.396734569314049,4.18097199969475
1580420494.30318,2.16678110933094,-0.457770656900948,4.66926070038903
1580420494.30718,2.53299763485165,-0.335698481727377,5.27962157625689
1580420494.31119,2.65506981002522,-0.213626306553806,5.58480201419093
1580420494.31519,2.89921416037237,-0.213626306553806,5.95101853971164
1580420494.31919,2.96025024795904,-0.091554131380235,6.43930724040592
1580420494.32318,2.89921416037237,-0.152590218966907,6.62241550316617
1580420494.32718,2.7771419851988,-0.152590218966907,6.92759594110021
1580420494.33118,2.7161058976119,-0.152590218966907,7.17174029144735
1580420494.33518,3.14335851071951,-0.091554131380235,7.35484855420759
1580420494.33918,3.26543068589308,-0.0305180437933359,7.66002899214163
1580420494.34318,3.02128633554594,-0.152590218966907,7.84313725490188
1580420494.34718,2.7771419851988,-0.0305180437933359,7.96520943007545
1580420494.35117,2.22781719691761,-0.152590218966907,7.90417334248878
1580420494.35517,1.55642023346309,-0.274662394140478,7.90417334248878
1580420494.35917,1.0070954451819,-0.579842832074519,7.72106507972831
1580420494.36317,0.579842832074519,-0.51880674448762,7.66002899214163
1580420494.36717,0.213626306553806,-0.457770656900948,7.53795681696806
1580420494.37117,-0.152590218966907,-0.274662394140478,7.66002899214163
1580420494.37517,-0.640878919661191,-0.091554131380235,7.66002899214163
1580420494.37917,-1.19020370794237,0.091554131380235,7.66002899214163
1580420494.38316,-1.49538414587619,0.091554131380235,7.7821011673152
1580420494.38716,-1.9226367589838,0.213626306553806,7.84313725490188
1580420494.39114,-2.28885328450451,0.396734569314049,7.84313725490188
1580420494.39514,-2.65506981002522,0.51880674448762,7.90417334248878
1580420494.39914,-2.83817807278547,0.51880674448762,7.96520943007545
1580420494.40314,-3.14335851071951,0.51880674448762,8.14831769283592
1580420494.40714,-3.44853894865332,0.335698481727377,8.39246204318306
1580420494.41114,-3.57061112382689,0.457770656900948,8.69764248111687
1580420494.41514,-3.93682764934761,0.396734569314049,8.88075074387734
1580420494.41913,-4.42511635004189,0.396734569314049,9.18593118181116
1580420494.42313,-4.7913328755626,0.396734569314049,9.61318379491877
1580420494.42713,-5.27962157625689,0.213626306553806,9.85732814526591
1580420494.43113,-5.58480201419093,0.213626306553806,10.2235446707866
1580420494.43513,-5.88998245212474,0.152590218966907,10.5287251087204
1580420494.43913,-6.56137941557949,0.213626306553806,10.955977721828
1580420494.44313,-7.35484855420759,0.152590218966907,11.3221942473488
1580420494.44713,-8.14831769283592,0.091554131380235,11.7494468604561
1580420494.45112,-8.94178683146401,0.091554131380235,12.2987716487373
1580420494.45512,-9.79629205767901,0.0305180437933359,12.5429159990845
1580420494.45912,-10.5287251087204,-0.0305180437933359,12.7870603494316
1580420494.46312,-11.2001220721752,-0.091554131380235,12.9701686121919
1580420494.46712,-11.9935912108033,-0.274662394140478,13.519493400473
1580420494.47113,-12.7260242618447,-0.51880674448762,13.6415655756466
1580420494.47513,-13.7636377508202,-0.823987182421661,13.6415655756466
1580420494.47913,-15.3505760280766,-0.946059357595232,13.7636377508202
1580420494.48313,-16.9985503929197,-1.0681315327688,13.8246738384069
1580420494.48712,-18.5244525825894,-1.0681315327688,13.7636377508202
1580420494.49112,-19.8672465094987,-1.12916762035547,13.7026016632333
1580420494.49512,-21.3321126115816,-0.946059357595232,13.7636377508202
1580420494.49912,-22.4917982757304,-1.0070954451819,14.0077821011673
1580420494.50312,-23.773556115053,-0.946059357595232,14.2519264515145
1580420494.50712,-24.8111696040282,-0.823987182421661,14.373998626688
1580420494.51112,-25.8487830930037,-0.70191500724809,14.7402151522087
1580420494.51512,-26.7643244068054,-0.51880674448762,15.0453955901426
1580420494.51911,-27.4357213702601,-0.51880674448762,15.2895399404897
1580420494.52311,-28.1071183337147,-0.396734569314049,15.8388647287709
1580420494.52711,-28.7174792095825,-0.396734569314049,16.3271534294652
1580420494.53111,-28.900587472343,-0.396734569314049,17.1816586556802
1580420494.53511,-29.3278400854504,-0.152590218966907,18.0361638818952
1580420494.53911,-29.9382009613182,0.0305180437933359,18.7685969329366
1580420494.54311,-30.1823453116654,0.152590218966907,19.8672465094987
1580420494.54711,-29.9992370489051,0.152590218966907,20.9658960860609
1580420494.55109,-29.8771648737315,0.152590218966907,22.1866178377966
1580420494.55508,-29.755092698558,0.152590218966907,23.5904478522925
1580420494.55908,-29.9992370489051,0.396734569314049,25.1163500419623
1580420494.56308,-29.6330205233844,0.70191500724809,26.4591439688716
1580420494.56708,-28.900587472343,0.823987182421661,27.9240100709544
1580420494.57108,-28.2902265964751,0.885023270008332,29.5109483482108
1580420494.57508,-27.6798657206073,1.0070954451819,31.1589227130539
1580420494.57908,-27.1305409323261,1.0070954451819,32.7458609903103
1580420494.58308,-26.7032883192187,0.762951094834762,34.3938353551537
1580420494.58707,-26.2760357061111,0.640878919661191,36.2249179827572
1580420494.59107,-26.0318913557639,0.640878919661191,37.9949645227739
1580420494.59507,-25.7267109178301,0.640878919661191,39.8870832379644
1580420494.59907,-25.5436026550697,0.396734569314049,41.7792019531546
1580420494.60307,-25.6046387426566,0.213626306553806,43.7933928435186
1580420494.60707,-25.8487830930037,0.152590218966907,45.8075837338824
1580420494.61107,-26.0929274433508,0.274662394140478,48.0048828870067
1580420494.61507,-25.9098191805904,0.457770656900948,50.0190737773705
1580420494.61907,-25.2994583047225,0.823987182421661,52.2163729304948
1580420494.62306,-24.0177004654001,1.19020370794237,54.7188525215533
1580420494.62706,-22.3697261005568,1.43434805828952,57.3434042877848
1580420494.63107,-20.6607156481268,1.80056458381023,60.0289921416033
1580420494.63507,-18.5854886701761,2.22781719691761,63.0197604333566
1580420494.63907,-16.2050812542916,2.53299763485165,66.0715648126957
1580420494.64307,-13.8857099259938,3.08232242313261,69.0012970168614
1580420494.64707,-11.505302510109,3.32646677347975,71.9310292210271
1580420494.65107,-9.06385900663759,3.32646677347975,74.6776531624323
1580420494.65506,-6.62241550316617,3.50957503624022,77.3022049286642
1580420494.65906,-4.18097199969475,3.69268329900046,79.7436484321356
1580420494.66306,-1.61745632104976,3.57061112382689,82.3071641107808
1580420494.66706,0.51880674448762,3.44853894865332,84.3823910887313
1580420494.67106,2.10574502174404,3.44853894865332,86.3355458915084
1580420494.67506,3.38750286106665,3.32646677347975,88.1666285191122
1580420494.67906,4.66926070038903,3.63164721141379,89.6314946211951
1580420494.68306,6.01205462729831,3.93682764934761,91.0963607232779
1580420494.68705,7.66002899214163,3.99786373693451,92.5001907377737
1580420494.69105,8.88075074387734,4.11993591210808,94.0260929274436
1580420494.69505,9.85732814526591,4.18097199969475,95.1857785915922
1580420494.69905,10.8949416342411,4.24200808728165,96.4675364309151
1580420494.70305,11.9935912108033,4.24200808728165,97.7492942702374
1580420494.70705,13.4584573128861,4.48615243762879,99.1531242847336
1580420494.71103,15.3505760280766,4.66926070038903,100.495918211643
1580420494.71503,16.937514305333,4.97444113832307,101.899748226139
1580420494.71903,17.9751277943083,5.27962157625689,103.364614328222
1580420494.72302,18.341344319829,5.7068741893645,104.646372167544
1580420494.72702,18.2803082322423,6.01205462729831,105.683985656519
1580420494.73102,18.2192721446554,6.07309071488521,106.904707408255
1580420494.73502,17.9140917067216,6.43930724040592,107.942320897231
1580420494.73902,17.3037308308537,6.5003433279926,108.979934386206
1580420494.74302,16.632333867399,6.5003433279926,109.956511787595
1580420494.74702,15.5947203784237,6.43930724040592,110.749980926223
1580420494.75102,14.1908903639276,6.37827115281902,111.604486152438
1580420494.75501,12.7870603494316,6.25619897764545,112.397955291066
1580420494.75901,11.1390859845883,6.07309071488521,113.069352254521
1580420494.76301,9.55214770733187,5.88998245212474,113.740749217975
1580420494.76701,7.7821011673152,5.58480201419093,114.41214618143
1580420494.77101,5.34065766384379,5.34065766384379,114.961470969711
1580420494.77501,2.65506981002522,4.97444113832307,115.205615320058
1580420494.77901,-0.091554131380235,4.66926070038903,115.205615320058
1580420494.78301,-2.47196154726475,4.42511635004189,115.266651407645
1580420494.787,-4.73029678797593,4.05889982452118,115.205615320058
1580420494.79101,-6.86655985351331,3.69268329900046,115.083543144885
1580420494.79501,-8.5755703059433,3.50957503624022,115.266651407645
1580420494.79901,-10.1625085831997,3.44853894865332,115.327687495232
1580420494.80301,-11.810482948043,3.32646677347975,115.449759670405
1580420494.80701,-13.3974212252995,3.20439459830618,115.632867933165
1580420494.81101,-14.373998626688,3.08232242313261,115.571831845579
1580420494.81501,-14.9843595025559,2.89921416037237,115.754940108339
1580420494.81901,-15.4116121156633,2.7771419851988,115.754940108339
1580420494.823,-15.6557564660104,2.65506981002522,115.327687495232
1580420494.827,-15.777828641184,2.53299763485165,115.144579232471
1580420494.831,-16.1440451667047,2.34988937209118,114.778362706951
1580420494.835,-16.5712977798123,2.28885328450451,114.229037918669
1580420494.839,-17.3037308308537,2.10574502174404,113.740749217975
1580420494.843,-17.7309834439611,1.9226367589838,113.191424429694
1580420494.847,-17.7309834439611,1.67849240863666,112.764171816586
1580420494.851,-17.9140917067216,1.25123979552905,112.214847028305
1580420494.855,-18.0971999694818,1.0070954451819,111.604486152438
1580420494.85899,-17.9140917067216,0.640878919661191,110.749980926223
1580420494.86299,-17.486839093614,0.213626306553806,109.773403524834
1580420494.86699,-17.0595864805066,-0.335698481727377,108.674753948272
1580420494.87097,-16.632333867399,-0.885023270008332,107.454032196536
1580420494.87497,-16.8154421301595,-1.25123979552905,106.233310444801
1580420494.87897,-17.792019531548,-1.67849240863666,105.073624780652
1580420494.88297,-19.4399938963911,-1.9226367589838,103.852903028916
1580420494.88697,-21.5762569619287,-2.16678110933094,102.388036926833
1580420494.89096,-24.1397726405737,-2.53299763485165,101.106279087511
1580420494.89496,-26.1539635309375,-2.7771419851988,100.068665598535
1580420494.89896,-27.7409018081939,-2.7771419851988,99.0920881971465
1580420494.90296,-28.7174792095825,-2.7771419851988,98.2986190585184
1580420494.90696,-29.1447318226901,-2.89921416037237,97.7492942702374
1580420494.91096,-29.3278400854504,-3.08232242313261,97.3830777447165
1580420494.91496,-29.2057679102768,-3.02128633554594,97.1999694819565
1580420494.91896,-28.5954070344089,-3.02128633554594,97.5051499198903
1580420494.92296,-27.9850461585411,-3.32646677347975,97.8713664454108
1580420494.92695,-27.7409018081939,-3.32646677347975,98.2375829709317
1580420494.93095,-27.9240100709544,-3.32646677347975,98.5427634088655
1580420494.93495,-28.1071183337147,-3.50957503624022,98.8479438467994
1580420494.93895,-27.6188296330204,-3.63164721141379,99.3362325474936
1580420494.94295,-26.8863965819789,-3.63164721141379,99.7024490730146
1580420494.94695,-26.2149996185244,-3.50957503624022,99.6414129854279
1580420494.95096,-25.1773861295489,-3.69268329900046,99.3972686350808
1580420494.95496,-24.322880903334,-3.93682764934761,98.9089799343865
1580420494.95895,-23.2852674143587,-4.11993591210808,98.3596551461051
1580420494.96295,-21.759365224689,-4.18097199969475,97.5051499198903
1580420494.96695,-20.355535210193,-4.24200808728165,96.7116807812622
1580420494.97095,-19.4399938963911,-4.30304417486832,95.9182116426337
1580420494.97495,-19.6841382467383,-4.24200808728165,95.1247425040056
1580420494.97895,-20.2944991226061,-4.30304417486832,94.3312733653775
1580420494.98295,-20.904859998474,-4.05889982452118,93.2936598764022
1580420494.98695,-21.0269321736475,-3.57061112382689,92.3781185626003
1580420494.99094,-20.2334630350194,-3.32646677347975,91.7677576867322
1580420494.99494,-18.5244525825894,-3.14335851071951,91.4015411612118
1580420494.99894,-16.083009079118,-2.7161058976119,91.3405050736251
1580420495.00294,-13.3363851377126,-2.16678110933094,91.5236133363851
1580420495.00694,-10.1625085831997,-1.67849240863666,91.9508659494927
1580420495.01094,-6.98863202868688,-1.0681315327688,92.5001907377737
1580420495.01494,-3.99786373693451,-0.213626306553806,93.1715877012284
1580420495.01894,-1.31227588311594,0.335698481727377,93.9040207522698
1580420495.02293,0.823987182421661,0.885023270008332,94.4533455405508
1580420495.02693,2.65506981002522,1.43434805828952,95.0637064164189
1580420495.03091,3.69268329900046,1.8616006713969,95.6130312046998
1580420495.03491,4.30304417486832,2.22781719691761,95.9182116426337
1580420495.03891,5.15754940108332,2.59403372243833,96.1623559929808
1580420495.04291,6.37827115281902,2.96025024795904,96.4065003433279
1580420495.04691,7.66002899214163,3.32646677347975,96.5285725185017
1580420495.05091,9.12489509422448,3.57061112382689,96.5896086060884
1580420495.05491,10.3456168459602,3.75371938658736,96.5896086060884
1580420495.0589,11.3221942473488,3.75371938658736,96.4065003433279
1580420495.0629,12.4208438239109,3.99786373693451,96.2844281681546
1580420495.0669,13.7636377508202,4.30304417486832,95.9182116426337
1580420495.0709,15.1674677653161,4.60822461280236,95.6130312046998
1580420495.0749,16.632333867399,5.09651331349664,95.2468146791794
1580420495.0789,18.341344319829,5.58480201419093,94.8195620660717
1580420495.0829,20.050354772259,6.07309071488521,94.148165102617
1580420495.0869,22.1255817502097,6.5003433279926,93.7209124895094
1580420495.09089,24.5670252536811,7.04966811627378,92.8664072632946
1580420495.09489,27.191577019913,7.35484855420759,91.9508659494927
1580420495.09889,29.9992370489051,7.53795681696806,90.9132524605175
1580420495.10289,32.6237888151368,7.66002899214163,89.8756389715422
1580420495.10689,34.8210879682611,7.7821011673152,88.8990615701537
1580420495.1109,36.6521705958646,7.96520943007545,87.6173037308308
1580420495.1149,38.3001449607079,8.14831769283592,86.2134737163351
1580420495.1189,39.7039749752039,8.33142595559616,84.5654993514918
1580420495.1229,40.802624551766,8.69764248111687,82.6733806363013
1580420495.1269,41.8402380407415,8.6366063935302,80.5371175707637
1580420495.13089,42.3895628290225,8.39246204318306,78.0956740672923
1580420495.13489,42.7557793545432,8.02624551766235,75.4100862134737
1580420495.13889,42.9999237048903,7.72106507972831,72.480354009308
1580420495.14289,43.4882124055846,7.53795681696806,69.1844052796218
1580420495.14689,43.9765011062789,7.47692072938116,66.010528725109
1580420495.15089,44.3427176317996,7.66002899214163,62.592507820249
1580420495.15489,44.5258258945601,7.90417334248878,58.8082703898676
1580420495.15889,44.5258258945601,8.02624551766235,54.5967803463795
1580420495.16288,44.2816815442129,7.90417334248878,50.2632181277177
1580420495.16688,43.8544289311053,7.90417334248878,45.929655909056
1580420495.17088,43.4271763179979,7.11070420386045,41.4740215152208
1580420495.17488,42.5726710917829,6.5003433279926,36.7132066834515
1580420495.17888,40.9246967269396,5.58480201419093,31.7082475013351
1580420495.18288,38.8494697489889,4.66926070038903,26.5812161440451
1580420495.18688,36.4690623331044,3.69268329900046,21.210040436408
1580420495.19086,34.3327992675668,2.59403372243833,16.0219729915311
1580420495.19485,31.8303196765087,1.80056458381023,10.7118333714809
1580420495.19885,28.7785152971694,1.0070954451819,4.97444113832307
1580420495.20285,25.2384222171358,0.0305180437933359,-0.885023270008332
1580420495.20685,21.4541847867551,-0.762951094834762,-6.92759594110021
1580420495.21085,17.3037308308537,-1.98367284657047,-13.1532768749523
1580420495.21485,12.9091325246052,-3.14335851071951,-19.6841382467383
1580420495.21885,8.39246204318306,-4.05889982452118,-26.2149996185244
1580420495.22285,4.05889982452118,-5.03547722590974,-33.1120775158313
1580420495.22685,0.091554131380235,-5.88998245212474,-40.0701915007248
1580420495.23084,-3.69268329900046,-6.74448767833974,-46.7841611352712
1580420495.23484,-7.35484855420759,-7.41588464179449,-53.437094682231
1580420495.23884,-11.6273746852826,-8.14831769283592,-60.0289921416038
1580420495.24284,-15.8388647287709,-8.51453421835663,-66.5598535133897
1580420495.24684,-19.6231021591516,-9.24696726939806,-72.9686427100023
1580420495.25084,-23.0411230640116,-10.1625085831997,-79.1943236438544
1580420495.25484,-26.2149996185244,-11.0780498970016,-85.1758602273594
1580420495.25883,-29.2668039978637,-11.7494468604561,-91.0353246356908
1580420495.26283,-31.7082475013353,-12.5429159990845,-96.8947890440224
1580420495.26683,-33.1731136034182,-13.1532768749523,-102.44907301442
1580420495.27084,-33.783474479286,-13.5805294880597,-108.003356984817
1580420495.27484,-33.6614023041125,-13.7636377508202,-113.557640955215
1580420495.27884,-32.9900053406577,-13.8246738384069,-118.745708400092
1580420495.28284,-32.2575722896163,-13.6415655756466,-123.689631494621
1580420495.28684,-31.4030670634013,-13.519493400473,-128.45044632639
1580420495.29084,-30.9758144502937,-13.5805294880597,-133.272297245747
1580420495.29484,-30.5485618371861,-13.5805294880597,-138.277256427863
1580420495.29883,-30.4264896620125,-13.8246738384069,-143.099107347219
1580420495.30283,-30.1213092240787,-14.068818188754,-147.859922178988
1580420495.30683,-30.0602731364918,-14.0077821011673,-152.742809185931
1580420495.31083,-29.9382009613182,-13.6415655756466,-157.503624017701
1580420495.31483,-29.6940566109711,-13.214312962539,-162.08133058671
1580420495.31883,-29.3888761730373,-12.5429159990845,-166.536964980545
1580420495.32283,-29.1447318226901,-11.8715190356297,-170.504310673686
1580420495.32683,-28.5954070344089,-11.4442664225223,-174.471656366827
1580420495.33082,-27.5577935454337,-10.8949416342411,-178.255893797208
1580420495.33482,-26.337071793698,-10.5897611963073,-181.612878614481
1580420495.33882,-24.8111696040282,-10.1625085831997,-184.66468299382
1580420495.34282,-22.9800869764247,-9.73525597009234,-187.777523460746
1580420495.34682,-20.8438239108873,-9.4300755321583,-190.341039139391
1580420495.3508,-19.501029983978,-9.24696726939806,-192.782482642863
1580420495.3548,-18.8906691081102,-8.94178683146401,-194.9187457084
1580420495.3588,-19.0127412832837,-8.5755703059433,-196.749828336004
1580420495.36279,-19.4399938963911,-8.14831769283592,-198.031586175326
1580420495.36679,-20.5386434729533,-7.84313725490188,-199.069199664302
1580420495.37079,-22.7359426260775,-7.53795681696806,-199.740596627756
1580420495.37479,-26.2760357061111,-7.59899290455473,-200.22888532845
1580420495.37879,-30.4875257495994,-7.66002899214163,-200.595101853971
1580420495.38279,-34.637979705501,-7.41588464179449,-200.839246204318
1580420495.38679,-37.5677119096667,-6.92759594110021,-200.961318379492
1580420495.39079,-39.2156862745098,-6.25619897764545,-200.839246204318
1580420495.39479,-39.5208667124439,-5.34065766384379,-199.984740978103
1580420495.39878,-39.459830624857,-4.18097199969475,-198.764019226368
1580420495.40278,-39.7039749752041,-3.14335851071951,-196.871900511177
1580420495.40678,-39.8260471503777,-2.28885328450451,-194.552529182879
1580420495.41078,-40.1312275883117,-1.12916762035547,-191.866941329061
1580420495.41478,-40.1922636758984,0.0305180437933359,-189.364461738003
1580420495.41878,-39.765011062791,1.0681315327688,-186.861982146944
1580420495.42278,-38.6663614862289,1.80056458381023,-184.48157473106
1580420495.42678,-36.896314946212,2.7161058976119,-182.467383840696
1580420495.43079,-34.2107270923934,4.18097199969475,-180.270084687572
1580420495.43478,-30.3044174868389,5.03547722590974,-178.194857709621
1580420495.43878,-26.3981078812847,6.07309071488521,-176.241702906844
1580420495.44278,-23.1631952391851,6.74448767833974,-174.776836804761
1580420495.44678,-20.8438239108873,7.04966811627378,-173.617151140612
1580420495.45078,-18.8906691081102,7.47692072938116,-172.88471808957
1580420495.45478,-16.3881895170518,7.90417334248878,-172.33539330129
1580420495.45878,-12.9701686121919,8.69764248111687,-171.602960250248
1580420495.46278,-9.12489509422448,9.36903944457163,-170.199130235752
1580420495.46677,-5.40169375143046,9.61318379491877,-168.91737239643
1580420495.47077,-2.7771419851988,9.85732814526591,-167.452506294347
1580420495.47477,-1.49538414587619,10.1014724956131,-165.987640192264
1580420495.47877,0.0305180437933359,10.2845807583733,-164.461738002594
1580420495.48277,3.08232242313261,10.8339055466545,-162.44754711223
1580420495.48677,6.98863202868688,11.3221942473488,-160.250247959106
1580420495.49077,10.4066529335469,11.3832303349354,-157.625696192874
1580420495.49477,12.9091325246052,11.1390859845883,-154.757000076295
1580420495.49876,14.9843595025559,10.955977721828,-151.949340047303
1580420495.50276,17.9140917067216,10.650797283894,-148.897535667964
1580420495.50676,21.1490043488211,10.8339055466545,-146.334019989319
1580420495.51074,24.1397726405737,11.0780498970016,-143.953612573434
1580420495.51474,26.337071793698,10.955977721828,-142.183566033417
1580420495.51874,27.8629739833675,10.8339055466545,-140.901808194095
1580420495.52274,28.7174792095825,10.8339055466545,-139.864194705119
1580420495.52674,28.7174792095825,10.8949416342411,-138.887617303731
1580420495.53074,27.8629739833675,11.4442664225223,-138.094148165103
1580420495.53473,26.5201800564582,11.7494468604561,-137.361715114061
1580420495.53873,24.1397726405737,12.0546272983902,-136.751354238193
1580420495.54273,20.6607156481268,12.0546272983902,-136.140993362325
1580420495.54673,16.4492256046387,11.9325551232166,-135.469596398871
1580420495.55073,12.2377355611504,11.6273746852826,-134.493018997482
1580420495.55473,9.18593118181116,11.4442664225223,-133.455405508507
1580420495.55873,6.80552376592664,11.2611581597619,-132.417792019532
1580420495.56273,4.60822461280236,11.505302510109,-131.746395056077
1580420495.56672,2.22781719691761,11.5663385976959,-131.258106355383
1580420495.57072,-0.213626306553806,11.9325551232166,-130.830853742275
1580420495.57472,-1.9226367589838,12.4208438239109,-130.403601129168
1580420495.57872,-3.20439459830618,12.7260242618447,-129.854276340887
1580420495.58272,-4.30304417486832,12.664988174258,-128.877698939498
1580420495.58672,-6.01205462729831,12.5429159990845,-127.718013275349
1580420495.59073,-8.39246204318306,12.2987716487373,-126.619363698787
1580420495.59473,-11.505302510109,12.0546272983902,-125.276569771878
1580420495.59873,-13.9467460135804,11.505302510109,-123.811703669795
1580420495.60273,-14.8622873273823,11.2611581597619,-121.858548867018
1580420495.60672,-13.9467460135804,11.3832303349354,-119.478141451133
1580420495.61072,-11.9325551232166,11.5663385976959,-116.48737315938
1580420495.61472,-9.00282291905091,11.810482948043,-113.191424429694
1580420495.61872,-5.46272983901736,12.2377355611504,-109.28511482414
1580420495.62272,-1.67849240863666,12.9701686121919,-104.890516517891
1580420495.62672,3.44853894865332,13.3974212252995,-100.129701686122
1580420495.63072,9.12489509422448,13.7026016632333,-95.2468146791791
1580420495.63471,14.1298542763409,13.5805294880597,-90.1197833218889
1580420495.63871,17.486839093614,13.4584573128861,-85.7862211032273
1580420495.64271,19.4399938963911,13.0922407873654,-82.0019836728466
1580420495.64671,20.8438239108873,12.7260242618447,-79.0722514686809
1580420495.65071,21.6372930495154,11.810482948043,-76.8139162279697
1580420495.65471,22.2476539253832,10.7728694590676,-74.6776531624323
1580420495.65871,21.9424734874494,9.73525597009234,-72.6634622720683
1580420495.66271,20.4165712977797,8.81971465629044,-71.1375600823987
1580420495.6667,18.1582360570687,7.84313725490188,-70.1609826810102
1580420495.67068,15.4116121156633,6.98863202868688,-69.5506218051423
1580420495.67468,13.2753490501259,6.43930724040592,-69.2454413672083
1580420495.67868,12.4818799114976,6.07309071488521,-68.9402609292745
1580420495.68268,12.4208438239109,6.07309071488521,-68.3909361409933
1580420495.68668,12.2377355611504,6.19516289005878,-67.4753948271916
1580420495.69068,11.6884107728695,6.62241550316617,-66.3767452506295
1580420495.69468,10.7118333714809,7.04966811627378,-64.7898069733731
1580420495.69868,9.18593118181116,7.66002899214163,-63.0807965209431
1580420495.70267,7.11070420386045,7.84313725490188,-61.1276417181659
1580420495.70667,5.34065766384379,7.90417334248878,-58.8693064774548
1580420495.71067,4.05889982452118,7.66002899214163,-56.3668268863967
1580420495.71467,3.08232242313261,7.23277637903402,-53.8643472953383
1580420495.71867,2.41092545967808,6.80552376592664,-51.1177233539331
1580420495.72267,2.04470893415737,6.5003433279926,-48.310063324941
1580420495.72667,2.04470893415737,6.5003433279926,-45.5024032959489
1580420495.73067,2.96025024795904,6.25619897764545,-42.4505989166096
1580420495.73466,3.93682764934761,6.13412680247188,-39.3377584496834
1580420495.73866,4.60822461280236,6.13412680247188,-36.1028458075839
1580420495.74266,5.03547722590974,5.95101853971164,-32.8679331654841
1580420495.74666,5.40169375143046,5.95101853971164,-29.6940566109711
1580420495.75067,5.58480201419093,6.13412680247188,-26.7643244068054
1580420495.75467,5.7068741893645,6.07309071488521,-23.6514839398794
1580420495.75867,5.95101853971164,5.76791027695117,-20.904859998474
1580420495.76267,6.25619897764545,5.76791027695117,-17.9751277943083
1580420495.76667,6.5003433279926,5.52376592660403,-15.1674677653161
1580420495.77066,6.98863202868688,5.40169375143046,-12.2987716487373
1580420495.77466,7.66002899214163,5.58480201419093,-9.4300755321583
1580420495.77866,8.5755703059433,5.46272983901736,-6.5003433279926
1580420495.78266,10.1625085831997,5.27962157625689,-3.38750286106665
1580420495.78666,12.0546272983902,5.03547722590974,-0.152590218966907
1580420495.79066,13.7026016632333,4.73029678797593,3.26543068589308
1580420495.79466,15.2895399404897,4.48615243762879,6.56137941557949
1580420495.79866,16.9985503929197,4.05889982452118,9.55214770733187
1580420495.80265,18.1582360570687,3.69268329900046,12.2987716487373
1580420495.80665,19.4399938963911,3.08232242313261,15.0453955901426
1580420495.81065,20.5386434729533,2.47196154726475,17.7309834439611
1580420495.81465,20.904859998474,1.67849240863666,20.2334630350194
1580420495.81865,20.2944991226061,1.19020370794237,22.7359426260775
1580420495.82265,18.646524757763,0.396734569314049,25.2384222171358
1580420495.82665,16.5102616922254,-0.152590218966907,27.4967574578468
1580420495.83063,14.1298542763409,-0.70191500724809,29.755092698558
1580420495.83463,11.7494468604561,-1.12916762035547,32.1355001144425
1580420495.83862,9.73525597009234,-1.98367284657047,34.6379797055008
1580420495.84262,8.02624551766235,-2.65506981002522,37.5066758220796
1580420495.84662,6.80552376592664,-3.14335851071951,40.6195162890058
1580420495.85062,5.76791027695117,-3.44853894865332,43.6102845807582
1580420495.85462,4.48615243762879,-3.69268329900046,46.784161135271
1580420495.85862,3.20439459830618,-3.87579156176093,49.8970016021972
1580420495.86262,1.9226367589838,-4.30304417486832,53.0098420691234
1580420495.86662,0.335698481727377,-4.60822461280236,56.1837186236362
1580420495.87062,-1.43434805828952,-5.03547722590974,59.357595178149
1580420495.87461,-3.38750286106665,-5.46272983901736,62.6535439078357
1580420495.87861,-5.6458381017776,-5.76791027695117,65.5832761120014
1580420495.88261,-8.27038986800949,-6.25619897764545,68.5130083161671
1580420495.88661,-10.3456168459602,-6.5003433279926,71.3817044327461
1580420495.89061,-11.9935912108033,-6.68345159075307,74.3114366369118
1580420495.89461,-13.3974212252995,-6.74448767833974,77.1801327534909
1580420495.89861,-14.3129625391011,-6.98863202868688,80.0488288700694
1580420495.9026,-14.8622873273823,-6.86655985351331,83.1006332494089
1580420495.9066,-14.923323414969,-6.62241550316617,86.152437628748
1580420495.91061,-14.5571068894483,-6.62241550316617,89.3873502708479
1580420495.91461,-13.8246738384069,-6.68345159075307,92.5612268253608
1580420495.91861,-12.1156633859769,-6.86655985351331,96.0402838178074
1580420495.92261,-10.5897611963073,-7.04966811627378,99.4583047226674
1580420495.92661,-9.18593118181116,-7.35484855420759,102.693217364767
1580420495.93061,-7.96520943007545,-7.47692072938116,105.683985656519
1580420495.93461,-7.04966811627378,-7.53795681696806,108.491645685512
1580420495.9386,-6.13412680247188,-7.41588464179449,110.872053101396
1580420495.9426,-4.8523689631495,-7.35484855420759,113.191424429694
1580420495.9466,-3.02128633554594,-7.23277637903402,115.571831845579
1580420495.9506,-1.55642023346309,-7.04966811627378,118.135347524224
1580420495.9546,-0.457770656900948,-7.11070420386045,120.759899290455
1580420495.9586,-0.152590218966907,-7.11070420386045,123.262378881514
1580420495.9626,0.152590218966907,-7.11070420386045,125.581750209812
1580420495.9666,1.12916762035547,-7.04966811627378,127.901121538109
1580420495.97059,2.65506981002522,-6.74448767833974,129.97634851606
1580420495.97459,4.7913328755626,-6.62241550316617,132.234683756771
1580420495.97859,7.04966811627378,-6.56137941557949,134.370946822309
1580420495.98259,9.00282291905091,-6.31723506523235,136.140993362325
1580420495.98659,10.5897611963073,-6.01205462729831,137.605859464408
1580420495.99057,11.5663385976959,-5.46272983901736,139.009689478904
1580420495.99457,12.1156633859769,-5.09651331349664,140.23041123064
1580420495.99857,12.1766994735638,-4.7913328755626,141.329060807202
1580420496.00257,11.5663385976959,-4.73029678797593,142.305638208591
1580420496.00656,10.2845807583733,-5.09651331349664,143.343251697566
1580420496.01056,8.6366063935302,-5.15754940108332,144.075684748608
1580420496.01456,7.23277637903402,-5.09651331349664,144.747081712062
1580420496.01856,6.07309071488521,-4.91340505073617,145.418478675517
1580420496.02256,5.40169375143046,-4.91340505073617,146.150911726558
1580420496.02656,4.8523689631495,-4.7913328755626,146.944380865186
1580420496.03056,3.81475547417404,-4.36408026245522,147.798886091402
1580420496.03456,2.47196154726475,-4.05889982452118,148.653391317616
1580420496.03855,1.67849240863666,-3.81475547417404,149.141680018311
1580420496.04255,1.43434805828952,-3.32646677347975,149.752040894179
1580420496.04655,1.49538414587619,-2.89921416037237,150.118257419699
1580420496.05055,1.9226367589838,-2.59403372243833,150.667582207981
1580420496.05455,2.34988937209118,-2.22781719691761,151.094834821088
1580420496.05855,2.10574502174404,-2.16678110933094,151.400015259022
1580420496.06255,1.0681315327688,-1.9226367589838,151.705195696956
1580420496.06655,-0.091554131380235,-2.10574502174404,151.888303959716
1580420496.07056,-1.19020370794237,-2.22781719691761,151.827267872129
1580420496.07455,-3.26543068589308,-2.28885328450451,151.094834821088
1580420496.07855,-5.76791027695117,-2.65506981002522,150.30136568246
1580420496.08255,-7.29381246662092,-2.7771419851988,149.446860456245
1580420496.08655,-8.69764248111687,-2.65506981002522,148.836499580377
1580420496.09055,-10.1014724956131,-2.65506981002522,148.165102616922
1580420496.09455,-11.5663385976959,-2.59403372243833,147.798886091402
1580420496.09855,-13.2753490501259,-2.22781719691761,147.432669565881
1580420496.10255,-15.7167925535973,-2.04470893415737,147.005416952773
1580420496.10654,-17.9140917067216,-1.9226367589838,146.272983901732
1580420496.11054,-20.050354772259,-1.98367284657047,145.418478675517
1580420496.11454,-22.1866178377966,-1.98367284657047,144.502937361715
1580420496.11854,-23.8956282902266,-2.22781719691761,143.46532387274
1580420496.12254,-25.2384222171358,-2.34988937209118,142.427710383764
1580420496.12654,-26.0929274433508,-2.22781719691761,141.512169069963
1580420496.13054,-26.3981078812847,-2.34988937209118,140.535591668574
1580420496.13454,-26.0318913557639,-2.59403372243833,139.864194705119
1580420496.13854,-25.482566567483,-2.83817807278547,139.131761654078
1580420496.14253,-25.0553139543754,-3.08232242313261,138.33829251545
1580420496.14653,-25.0553139543754,-3.14335851071951,137.605859464408
1580420496.15051,-24.7501335164416,-3.26543068589308,136.873426413367
1580420496.15451,-23.5294117647059,-3.26543068589308,136.202029449912
1580420496.15851,-21.6983291371023,-3.38750286106665,135.530632486458
1580420496.16251,-19.4399938963911,-3.81475547417404,135.225452048523
1580420496.16651,-17.3647669184404,-4.11993591210808,135.10337987335
1580420496.17051,-15.0453955901426,-4.36408026245522,134.737163347829
1580420496.1745,-12.6039520866711,-4.66926070038903,134.493018997482
1580420496.1785,-9.36903944457163,-4.8523689631495,134.370946822309
1580420496.1825,-5.82894636453807,-5.27962157625689,134.431982909895
1580420496.1865,-3.08232242313261,-5.7068741893645,134.248874647135
1580420496.1905,-2.16678110933094,-6.68345159075307,133.760585946441
1580420496.1945,-2.59403372243833,-7.7821011673152,132.478828107118
1580420496.1985,-3.26543068589308,-8.27038986800949,130.891889829862
1580420496.2025,-2.89921416037237,-8.20935378042259,128.877698939498
1580420496.2065,-1.31227588311594,-8.08728160524902,126.5583276112
1580420496.21049,1.19020370794237,-7.66002899214163,124.422064545663
1580420496.21449,3.20439459830618,-6.98863202868688,122.285801480125
1580420496.21849,4.48615243762879,-5.88998245212474,120.454718852522
1580420496.22249,5.76791027695117,-4.66926070038903,118.867780575265
1580420496.22649,6.86655985351331,-3.20439459830618,117.280842298009
1580420496.2305,7.7821011673152,-1.98367284657047,115.571831845579
1580420496.2345,8.69764248111687,-0.70191500724809,113.618677042802
1580420496.2385,9.36903944457163,0.152590218966907,111.482413977264
1580420496.24249,9.91836423285258,0.70191500724809,109.407186999314
1580420496.24649,9.67421988250544,0.885023270008332,107.087815671016
1580420496.25049,8.88075074387734,1.0070954451819,104.829480430305
1580420496.25449,7.72106507972831,0.70191500724809,102.388036926833
1580420496.25849,6.07309071488521,0.51880674448762,99.885557335775
1580420496.26249,4.30304417486832,0.396734569314049,97.566186007477
1580420496.26649,2.34988937209118,0.457770656900948,95.1247425040056
1580420496.27049,0.274662394140478,0.51880674448762,92.8664072632946
1580420496.27448,-1.73952849622333,0.51880674448762,90.4859998474099
1580420496.27848,-3.69268329900046,0.579842832074519,88.1666285191122
1580420496.28248,-5.21858548867021,0.579842832074519,85.7251850156408
1580420496.28648,-6.31723506523235,0.579842832074519,83.2227054245823
1580420496.29048,-7.04966811627378,0.70191500724809,80.6591897459375
1580420496.29448,-7.53795681696806,0.70191500724809,77.9736018921189
1580420496.29848,-8.33142595559616,0.70191500724809,75.1659418631266
1580420496.30248,-9.61318379491877,0.396734569314049,72.2362096589609
1580420496.30647,-11.810482948043,0.274662394140478,69.062333104448
1580420496.31045,-14.5571068894483,-0.091554131380235,65.5832761120014
1580420496.31445,-17.486839093614,-0.51880674448762,61.8600747692071
1580420496.31845,-20.050354772259,-1.25123979552905,58.0148012512395
1580420496.32245,-22.4917982757304,-2.04470893415737,53.9253833829248
1580420496.32645,-24.322880903334,-2.22781719691761,49.65285725185
1580420496.33045,-24.8722056916151,-1.9226367589838,45.6244754711222
1580420496.33445,-23.8956282902266,-0.823987182421661,41.9012741283282
1580420496.33845,-21.5152208743418,0.396734569314049,38.7273975738153
1580420496.34244,-18.341344319829,1.55642023346309,35.8587014572365
1580420496.34644,-14.9843595025559,2.59403372243833,33.2951857785915
1580420496.35044,-11.7494468604561,3.38750286106665,31.0368505378804
1580420496.35444,-9.36903944457163,3.93682764934761,28.7785152971694
1580420496.35844,-8.08728160524902,4.30304417486832,26.3981078812847
1580420496.36244,-7.72106507972831,4.42511635004189,23.5904478522925
1580420496.36644,-7.90417334248878,3.81475547417404,20.5386434729533
1580420496.37044,-8.45349813076973,3.26543068589308,17.4258030060273
1580420496.37443,-9.00282291905091,2.65506981002522,14.373998626688
1580420496.37843,-9.00282291905091,2.04470893415737,10.955977721828
1580420496.38243,-8.20935378042259,1.80056458381023,7.90417334248878
1580420496.38643,-6.56137941557949,1.19020370794237,4.8523689631495
1580420496.39044,-4.48615243762879,0.70191500724809,2.16678110933094
1580420496.39444,-2.16678110933094,-0.0305180437933359,-0.51880674448762
1580420496.39844,0.335698481727377,-0.823987182421661,-3.32646677347975
1580420496.40244,3.20439459830618,-0.823987182421661,-6.13412680247188
1580420496.40644,5.88998245212474,-0.70191500724809,-8.81971465629044
1580420496.41043,7.7821011673152,-0.152590218966907,-11.6884107728695
1580420496.41443,9.55214770733187,-0.213626306553806,-14.4350347142747
1580420496.41843,11.2001220721752,-0.396734569314049,-17.3037308308537
1580420496.42243,12.2377355611504,-0.823987182421661,-20.2944991226061
1580420496.42643,12.4208438239109,-1.31227588311594,-23.5294117647059
1580420496.43043,12.2377355611504,-1.73952849622333,-27.0084687571525
1580420496.43443,12.0546272983902,-2.47196154726475,-30.8537422751201
1580420496.43843,11.810482948043,-3.08232242313261,-34.7600518806746
1580420496.44243,11.3221942473488,-3.69268329900046,-38.6663614862289
1580420496.44642,10.955977721828,-4.30304417486832,-42.6337071793698
1580420496.45042,11.0170138094147,-5.09651331349664,-46.5400167849241
1580420496.45442,10.8949416342411,-5.76791027695117,-50.2632181277181
1580420496.45842,10.7728694590676,-5.88998245212474,-54.0474555580988
1580420496.46242,10.5897611963073,-6.19516289005878,-57.7096208133059
1580420496.46642,11.3221942473488,-6.25619897764545,-61.3107499809262
1580420496.4704,12.5429159990845,-6.5003433279926,-64.6677347981995
1580420496.4744,14.2519264515145,-6.74448767833974,-67.7805752651254
1580420496.47839,15.9609369039445,-7.23277637903402,-70.9544518196383
1580420496.48239,18.1582360570687,-7.72106507972831,-73.8231479362173
1580420496.48639,20.5386434729533,-8.69764248111687,-76.447699702449
1580420496.49039,23.468375677119,-9.85732814526591,-79.316395819028
1580420496.49439,26.5812161440451,-11.7494468604561,-81.8188754100861
1580420496.49839,29.9992370489051,-14.2519264515145,-84.2603189135575
1580420496.50239,32.8068970778972,-16.6933699549859,-86.3965819790951
1580420496.50639,35.0041962310215,-18.7685969329366,-88.715953307393
1580420496.51039,35.9807736324101,-20.7827878233004,-91.0963607232775
1580420496.51438,35.3093766689553,-22.2476539253832,-93.4767681391622
1580420496.51838,33.4782940413518,-23.3463035019454,-95.7961394674603
1580420496.52238,30.1823453116654,-24.0787365529868,-98.2986190585184
1580420496.52638,25.4215304798961,-24.8722056916151,-100.55695429923
1580420496.53038,19.3789578088044,-25.5436026550697,-102.26596475166
1580420496.53438,12.4818799114976,-26.1539635309375,-103.181506065461
1580420496.53838,5.52376592660403,-26.8253604943923,-103.181506065461
1580420496.54237,-1.43434805828952,-27.3746852826732,-102.204928664073
1580420496.54637,-8.6366063935302,-27.9240100709544,-100.495918211643
1580420496.55038,-15.5336842908368,-27.9850461585411,-97.871366445411
1580420496.55438,-20.8438239108873,-27.8629739833675,-94.148165102617
1580420496.55838,-23.468375677119,-27.4967574578468,-89.5094224460211
1580420496.56238,-23.4073395895323,-27.1305409323261,-83.1006332494087
1580420496.56638,-21.6372930495154,-26.5201800564582,-75.5321583886473
1580420496.57038,-19.5620660715647,-26.2760357061111,-66.9260700389104
1580420496.57438,-17.9751277943083,-25.8487830930037,-57.7706569008926
1580420496.57837,-15.5336842908368,-25.1773861295489,-48.4321355001146
1580420496.58237,-11.6273746852826,-24.3839169909209,-39.2156862745098
1580420496.58637,-6.37827115281902,-23.5904478522925,-30.5485618371861
1580420496.59037,-0.335698481727377,-22.919050888838,-22.7359426260775
1580420496.59437,5.82894636453807,-22.613870450904,-15.4726482032502
1580420496.59837,12.2987716487373,-22.2476539253832,-9.00282291905091
1580420496.60237,18.9517051956968,-22.0035095750361,-3.20439459830618
1580420496.60637,25.6046387426566,-22.1255817502097,1.73952849622333
1580420496.61036,31.8913557640954,-22.5528343633173,6.25619897764545
1580420496.61436,37.5066758220796,-23.2852674143587,9.97940032043948
1580420496.61836,41.9623102159151,-23.8956282902266,12.664988174258
1580420496.62236,46.2958724345767,-24.4449530785075,14.5571068894483
1580420496.62636,51.6060120546272,-24.8111696040282,15.7167925535973
1580420496.63034,57.8927290760662,-24.9942778667887,17.0595864805066
1580420496.63434,64.6066987106128,-25.1163500419623,18.646524757763
1580420496.63834,70.4661631189442,-24.8111696040282,20.355535210193
1580420496.64234,74.7997253376061,-24.6890974288547,22.064545662623
1580420496.64633,78.3398184176394,-24.2618448157473,23.773556115053
1580420496.65033,82.2461280231937,-23.5904478522925,25.2384222171358
1580420496.65433,86.7017624170294,-23.4073395895323,26.4591439688716
1580420496.65833,91.8287937743194,-23.6514839398794,27.8629739833675
1580420496.66233,97.016861219196,-23.8956282902266,29.4499122606239
1580420496.66633,101.838712138552,-24.0177004654001,31.2199588006408
1580420496.67033,105.683985656519,-24.322880903334,33.1120775158311
1580420496.67433,108.430609597925,-24.8111696040282,35.0041962310215
1580420496.67832,109.590295262074,-25.2384222171358,36.9573510337987
1580420496.68232,110.078583962768,-26.337071793698,38.4832532234682
1580420496.68632,108.979934386206,-27.3136491950866,39.8260471503775
1580420496.69032,105.073624780652,-27.8019378957808,40.4364080262453
1580420496.69432,99.6414129854279,-28.9616235599296,40.6805523765925
1580420496.69832,93.2326237888151,-30.3044174868389,40.6805523765925
1580420496.70232,85.9082932784008,-31.769283588922,40.4974441138322
1580420496.70632,78.2787823300528,-34.0886549172199,40.6805523765925
1580420496.71033,69.7337300679028,-36.346990157931,40.7415884641794
1580420496.71433,59.9679560540167,-38.8494697489891,41.1078049897001
1580420496.71832,49.2866407263291,-41.7181658655682,41.1688410772867
1580420496.72232,38.1170366979475,-44.4037537193867,40.9857328145265
1580420496.72632,26.0318913557639,-46.7841611352712,40.4364080262453
1580420496.73032,13.3974212252995,-48.8593881132219,39.2156862745096
1580420496.73432,0.946059357595232,-50.3242542153048,37.8728923476003
1580420496.73832,-9.97940032043948,-51.3008316166934,36.6521705958646
1580420496.74232,-18.341344319829,-52.2163729304953,35.7976653696496
1580420496.74632,-24.4449530785075,-52.9488059815367,36.0418097199968
1580420496.75031,-29.5719844357975,-53.3760585946441,36.8352788586251
1580420496.75431,-33.478294041352,-53.9864194705119,38.3001449607079
1580420496.75831,-35.5535210193027,-54.7188525215533,40.4364080262453
1580420496.76231,-36.2859540703441,-55.3902494850081,42.5726710917829
1580420496.76631,-36.1638818951706,-55.5733577477683,44.7089341573203
1580420496.77031,-34.5159075303275,-55.6343938353552,46.8451972228579
1580420496.77431,-30.9147783627068,-54.9629968719005,49.1035324635691
1580420496.77831,-25.6046387426566,-54.0474555580988,51.4839398794534
1580420496.7823,-19.3789578088044,-53.1319142442969,54.2915999084457
1580420496.7863,-13.2753490501259,-52.1553368429084,57.5875486381319
1580420496.79028,-8.08728160524902,-51.3618677042803,60.9445334554052
1580420496.79428,-3.50957503624022,-50.7515068284124,64.1794460975052
1580420496.79828,1.37331197070262,-50.3852903028917,67.2312504768447
1580420496.80228,7.41588464179449,-50.019073777371,70.2220187685971
1580420496.80628,13.0922407873654,-49.9580376897841,73.0907148851761
1580420496.81028,18.341344319829,-49.5307850766767,75.715266651408
1580420496.81428,22.613870450904,-48.4321355001146,78.0956740672923
1580420496.81827,26.7032883192187,-46.9672693980317,79.9267566948961
1580420496.82227,31.0368505378804,-45.2582589456017,81.7578393224994
1580420496.82627,35.0041962310215,-43.3661402304112,83.5889219501032
1580420496.83027,37.384603646906,-41.474021515221,85.5420767528803
1580420496.83427,37.8118562600137,-40.0091554131382,87.3731593804837
1580420496.83827,37.0794232089722,-38.910505836576,89.2652780956741
1580420496.84227,37.0794232089722,-37.6897840848403,91.2184328984513
1580420496.84626,38.7884336614022,-36.041809719997,93.2326237888151
1580420496.85026,40.9246967269396,-34.8821240558482,95.0637064164189
1580420496.85426,42.1454184786753,-33.7224383916991,96.8947890440222
1580420496.85826,42.2064545662622,-32.3186083772032,98.5427634088655
1580420496.86226,42.1454184786753,-30.8537422751201,99.885557335775
1580420496.86626,42.3285267414358,-29.0836957351032,101.350423437858
1580420496.87027,41.9623102159151,-27.6188296330204,102.510109102006
1580420496.87427,40.0091554131379,-26.4591439688716,103.852903028916
1580420496.87827,36.7742427710382,-25.3604943923094,105.073624780652
1580420496.88227,33.1120775158311,-24.5059891660944,106.111238269627
1580420496.88626,29.3888761730373,-23.7125200274661,106.904707408255
1580420496.89026,26.2760357061111,-23.0411230640116,107.75921263447
1580420496.89426,23.6514839398794,-22.3697261005568,108.857862211032
1580420496.89826,22.0035095750361,-21.4541847867551,109.956511787595
1580420496.90226,20.1113908598459,-20.2944991226061,111.116197451744
1580420496.90626,18.2192721446554,-18.9517051956968,112.397955291066
1580420496.91026,16.3881895170518,-17.5478751812009,113.252460517281
1580420496.91426,14.068818188754,-15.9609369039445,113.923857480735
1580420496.91825,11.505302510109,-13.9467460135804,114.229037918669
1580420496.92225,8.6366063935302,-11.9935912108033,114.168001831083
1580420496.92625,5.7068741893645,-10.2235446707866,113.496604867628
1580420496.93025,2.96025024795904,-8.45349813076973,112.458991378653
1580420496.93425,1.0070954451819,-6.92759594110021,111.17723353933
1580420496.93825,-0.213626306553806,-5.52376592660403,109.346150911726
1580420496.94225,-0.457770656900948,-3.93682764934761,107.454032196536
1580420496.94625,0.335698481727377,-2.47196154726475,105.500877393759
1580420496.95022,2.28885328450451,-1.19020370794237,103.547722590982
1580420496.95422,5.09651331349664,-0.0305180437933359,101.594567788205
1580420496.95822,9.12489509422448,1.31227588311594,99.5193408102541
1580420496.96222,14.4350347142747,2.28885328450451,97.4441138323036
1580420496.96622,20.6607156481268,3.32646677347975,95.4909590295265
1580420496.97022,27.3136491950866,4.42511635004189,93.7209124895094
1580420496.97422,34.5159075303272,5.27962157625689,92.0119020370794
1580420496.97822,42.6337071793696,5.76791027695117,90.5470359349965
1580420496.98222,50.6904707408253,6.07309071488521,89.3873502708479
1580420496.98621,58.0758373388262,6.56137941557949,88.1666285191122
1580420496.99021,65.2170595864809,6.98863202868688,86.7017624170294
1580420496.99421,71.6258487830933,7.35484855420759,84.7486076142523
1580420496.99821,76.4476997024494,7.7821011673152,81.9409475852599
1580420497.00221,79.6215762569623,8.14831769283592,78.0346379797056
1580420497.00621,80.9033340962847,8.27038986800949,73.3958953231099
1580420497.01021,80.2929732204166,8.27038986800949,67.4143587396052
1580420497.01421,78.767071030747,7.7821011673152,60.5783169298847
1580420497.0182,75.4711223010609,6.98863202868688,53.4370946822305
1580420497.0222,69.5506218051423,6.74448767833974,45.6244754711222
1580420497.0262,61.5548943312733,6.37827115281902,37.3235675593194
1580420497.03021,51.911192492561,6.01205462729831,28.4733348592354
1580420497.03421,40.7415884641794,5.82894636453807,19.4399938963911
1580420497.03821,28.9616235599296,5.27962157625689,10.2235446707866
1580420497.04221,18.0971999694818,4.36408026245522,1.19020370794237
1580420497.04621,8.51453421835663,3.14335851071951,-7.35484855420759
1580420497.05021,0.0305180437933359,1.98367284657047,-15.3505760280766
1580420497.0542,-7.47692072938116,0.579842832074519,-22.9800869764247
1580420497.0582,-14.2519264515145,-0.762951094834762,-29.9992370489051
1580420497.0622,-19.9282825970854,-1.61745632104976,-36.7132066834517
1580420497.0662,-24.0177004654001,-2.28885328450451,-42.8168154421303
1580420497.0702,-26.4591439688716,-2.7161058976119,-48.3710994125277
1580420497.0742,-27.8019378957808,-2.65506981002522,-53.3760585946441
1580420497.0782,-28.2902265964751,-2.28885328450451,-58.3199816891738
1580420497.0822,-27.9850461585411,-2.04470893415737,-62.5925078202488
1580420497.08619,-26.5812161440451,-1.9226367589838,-66.6208896009766
1580420497.09019,-24.7501335164416,-2.04470893415737,-70.4051270313573
1580420497.09419,-22.3086900129701,-2.22781719691761,-74.2504005493247
1580420497.09819,-20.1113908598459,-2.28885328450451,-78.0346379797054
1580420497.10219,-18.341344319829,-2.04470893415737,-81.879911497673
1580420497.10619,-17.1816586556802,-1.98367284657047,-85.7251850156404
1580420497.11017,-16.2661173418783,-1.67849240863666,-89.3873502708475
1580420497.11417,-15.8388647287709,-0.946059357595232,-93.1715877012282
1580420497.11817,-15.8388647287709,-0.152590218966907,-96.5896086060884
1580420497.12216,-16.4492256046387,0.640878919661191,-100.068665598535
1580420497.12616,-17.3037308308537,1.31227588311594,-103.486686503395
1580420497.13016,-18.0361638818952,1.8616006713969,-106.843671320668
1580420497.13416,-18.8906691081102,2.53299763485165,-109.956511787595
1580420497.13816,-19.3789578088044,3.02128633554594,-112.947280079347
1580420497.14216,-19.3789578088044,3.57061112382689,-115.693904020752
1580420497.14616,-18.646524757763,4.54718852521546,-118.257419699397
1580420497.15016,-17.2426947432668,5.7068741893645,-120.454718852522
1580420497.15415,-15.4726482032502,6.98863202868688,-122.468909742885
1580420497.15815,-13.2753490501259,8.39246204318306,-124.361028458076
1580420497.16215,-10.7118333714809,9.18593118181116,-126.009002822919
1580420497.16615,-7.90417334248878,10.0404364080262,-127.473868925002
1580420497.17015,-5.09651331349664,10.3456168459602,-128.694590676738
1580420497.17415,-2.22781719691761,10.4676890211338,-129.7932402533
1580420497.17815,-0.579842832074519,10.7118333714809,-130.891889829862
1580420497.18215,-0.0305180437933359,11.1390859845883,-131.807431143664
1580420497.18614,-0.396734569314049,11.505302510109,-132.845044632639
1580420497.19016,-1.25123979552905,12.1156633859769,-133.699549858854
1580420497.19415,-1.61745632104976,12.9091325246052,-134.554055085069
1580420497.19815,-1.9226367589838,13.519493400473,-135.347524223697
1580420497.20215,-2.59403372243833,14.0077821011673,-136.140993362325
1580420497.20615,-3.81475547417404,14.6181429770352,-137.239642938888
1580420497.21015,-5.15754940108332,14.9843595025559,-138.52140077821
1580420497.21415,-6.25619897764545,15.228503852903,-140.04730296788
1580420497.21815,-6.92759594110021,15.5336842908368,-141.75631342031
1580420497.22214,-6.5003433279926,15.9609369039445,-143.221179522393
1580420497.22614,-5.40169375143046,16.3271534294652,-144.747081712062
1580420497.23014,-4.73029678797593,16.937514305333,-146.089875638972
1580420497.23414,-5.15754940108332,17.4258030060273,-147.737850003815
1580420497.23814,-6.13412680247188,17.6699473563745,-149.385824368658
1580420497.24214,-7.17174029144735,17.8530556191347,-151.094834821088
1580420497.24614,-7.66002899214163,18.341344319829,-152.742809185931
1580420497.25014,-8.08728160524902,19.0127412832837,-154.512855725948
1580420497.25413,-8.81971465629044,19.2568856336309,-156.282902265965
1580420497.25813,-10.3456168459602,18.8296330205233,-157.808804455635
1580420497.26213,-12.4818799114976,18.0971999694818,-159.273670557717
1580420497.26613,-15.1064316777295,17.3037308308537,-160.677500572213
1580420497.27011,-17.2426947432668,16.5712977798123,-161.898222323949
1580420497.27411,-18.5854886701761,15.5336842908368,-162.935835812925
1580420497.27811,-19.5620660715647,14.8622873273823,-163.912413214313
1580420497.28211,-20.6607156481268,14.3129625391011,-164.950026703288
1580420497.28611,-22.613870450904,13.8246738384069,-165.804531929503
1580420497.2901,-24.5670252536811,13.3974212252995,-166.353856717785
1580420497.2941,-26.2149996185244,13.1532768749523,-166.720073243305
1580420497.2981,-28.1071183337147,13.2753490501259,-167.208361944
1580420497.3021,-31.1589227130539,12.9091325246052,-168.245975432975
1580420497.3061,-35.5535210193027,12.1766994735638,-169.893949797818
1580420497.3101,-40.5584802014191,11.6884107728695,-171.969176775769
1580420497.3141,-45.3803311207753,11.6273746852826,-174.288548104067
1580420497.3181,-49.2866407263296,12.0546272983902,-176.668955519951
1580420497.32209,-52.6436255436026,12.4818799114976,-178.622110322728
1580420497.32609,-55.9395742732891,13.0922407873654,-179.842832074464
1580420497.33009,-59.4186312657359,13.8246738384069,-180.331120775158
1580420497.33409,-63.2639047837033,14.373998626688,-180.514229037919
1580420497.33809,-66.3157091630426,15.0453955901426,-180.697337300679
1580420497.34209,-67.2312504768445,16.3881895170518,-180.392156862745
1580420497.34609,-65.7663843747616,17.4258030060273,-179.659723811704
1580420497.3501,-62.4704356450752,17.2426947432668,-178.744182497902
1580420497.3541,-58.7472343022812,16.4492256046387,-177.462424658579
1580420497.35809,-56.7940794995041,15.4116121156633,-176.11963073167
1580420497.36209,-57.4044403753719,14.6791790646218,-175.265125505455
1580420497.36609,-58.5641260395209,14.068818188754,-174.166475928893
1580420497.37009,-58.1979095140002,13.519493400473,-173.067826352331
1580420497.37409,-57.4654764629588,12.9701686121919,-171.297779812314
1580420497.37809,-58.6861982146945,12.4818799114976,-169.527733272297
1580420497.38209,-63.1418326085297,11.8715190356297,-167.75768673228
1580420497.38609,-69.3675135423819,11.6884107728695,-166.109712367437
1580420497.39008,-75.5321583886473,11.8715190356297,-164.766918440528
1580420497.39408,-81.2085145342182,12.2987716487373,-163.546196688792
1580420497.39808,-86.7017624170289,12.4208438239109,-162.813763637751
1580420497.40208,-92.5001907377737,12.2987716487373,-162.020294499123
1580420497.40608,-98.9700160219732,12.2377355611504,-161.287861448081
1580420497.41008,-105.561913481346,12.1766994735638,-160.494392309453
1580420497.41408,-111.726558327611,12.2987716487373,-159.212634470131
1580420497.41808,-117.524986648356,12.4208438239109,-157.686732280461
1580420497.42208,-122.896162355993,12.4818799114976,-155.550469214923
1580420497.42607,-128.755626764324,12.4818799114976,-152.681773098344
1580420497.43005,-135.10337987335,12.7870603494316,-149.507896543832
1580420497.43405,-141.329060807202,13.5805294880597,-145.723659113451
1580420497.43805,-146.761272602426,14.7402151522087,-141.695277332723
1580420497.44205,-150.789654383154,16.3271534294652,-137.422751201648
1580420497.44605,-152.742809185931,18.2192721446554,-132.722972457465
1580420497.45005,-152.620737010757,20.1113908598459,-127.779049362936
1580420497.45405,-150.606546120394,21.6372930495154,-122.285801480125
1580420497.45805,-147.005416952773,23.1631952391851,-116.609445334554
1580420497.46204,-142.366674296178,24.9332417792018,-110.933089188983
1580420497.46604,-135.835812924392,26.6422522316318,-105.256733043412
1580420497.47004,-128.023193713283,28.1071183337147,-99.6414129854277
1580420497.47404,-118.684672312505,29.8771648737315,-94.0871290150303
1580420497.47804,-107.75921263447,31.6472114137482,-88.2887006942854
1580420497.48204,-95.7961394674603,33.173113603418,-82.2461280231937
1580420497.48604,-83.588921950103,34.5159075303272,-76.3866636148623
1580420497.49003,-70.8934157320516,35.7366292820629,-70.5271992065309
1580420497.49403,-57.5875486381324,36.9573510337987,-64.6677347981995
1580420497.49803,-43.5492484931717,37.9949645227739,-59.0524147402152
1580420497.50203,-29.5109483482108,38.9105058365758,-53.4981307698176
1580420497.50603,-15.1674677653161,39.7650110627908,-48.3710994125277
1580420497.51004,-0.51880674448762,40.5584802014189,-43.6713206683453
1580420497.51404,14.6791790646218,41.1078049897001,-39.2767223620967
1580420497.51804,29.5109483482108,41.7792019531546,-35.0041962310218
1580420497.52204,43.0609597924772,42.2064545662622,-31.2199588006408
1580420497.52603,55.4512855725948,42.2064545662622,-27.9850461585411
1580420497.53003,65.5222400244147,42.3895628290225,-25.3604943923094
1580420497.53403,73.5790035858704,42.3285267414358,-23.1631952391851
1580420497.53803,79.5605401693751,42.2064545662622,-21.4541847867551
1580420497.54203,84.0772106507975,42.1454184786753,-20.2944991226061
1580420497.54603,86.5796902418556,41.4740215152208,-19.501029983978
1580420497.55003,87.1900511177237,40.9246967269396,-19.0737773708704
1580420497.55403,86.3355458915084,40.4974441138322,-19.0737773708704
1580420497.55802,84.260318913558,40.0091554131379,-19.5620660715647
1580420497.56202,81.6968032349127,39.2156862745096,-19.9282825970854
1580420497.56602,78.2177462424661,38.5442893110551,-20.4776073853666
1580420497.57002,73.4569314106966,37.5677119096665,-21.0269321736475
1580420497.57402,67.170214389258,36.3469901579308,-21.5152208743418
1580420497.57802,60.0900282291905,34.9431601434346,-22.1255817502097
1580420497.58202,52.2774090180819,33.5393301289387,-22.613870450904
1580420497.58602,44.3427176317996,32.0744640268558,-23.1631952391851
1580420497.59,36.2249179827572,30.4875257495994,-23.7125200274661
1580420497.59399,28.3512626840618,28.8395513847561,-24.1397726405737
1580420497.59799,20.5996795605402,27.3746852826732,-24.3839169909209
1580420497.60199,13.7026016632333,25.8487830930037,-24.2618448157473
1580420497.60599,7.96520943007545,24.4449530785075,-23.773556115053
1580420497.60999,3.02128633554594,23.1021591515982,-22.7359426260775
1580420497.61399,-0.823987182421661,21.5762569619287,-21.4541847867551
1580420497.61799,-3.57061112382689,20.355535210193,-19.8062104219118
1580420497.62199,-5.03547722590974,19.3789578088044,-17.792019531548
1580420497.62598,-5.52376592660403,18.341344319829,-15.228503852903
1580420497.62998,-5.15754940108332,17.3647669184404,-12.6039520866711
1580420497.63398,-4.54718852521546,16.4492256046387,-9.79629205767901
1580420497.63798,-3.38750286106665,15.6557564660104,-6.92759594110021
1580420497.64198,-1.49538414587619,14.923323414969,-4.24200808728165
1580420497.64598,0.762951094834762,14.2519264515145,-1.8616006713969
1580420497.64998,3.20439459830618,13.6415655756466,0.579842832074519
1580420497.65398,5.82894636453807,13.0922407873654,2.89921416037237
1580420497.65797,8.33142595559616,12.7260242618447,5.15754940108332
1580420497.66197,11.1390859845883,12.1156633859769,7.41588464179449
1580420497.66597,13.8246738384069,11.505302510109,9.30800335698473
1580420497.66998,16.5102616922254,10.7118333714809,11.1390859845883
1580420497.67398,18.2803082322423,10.1625085831997,12.5429159990845
1580420497.67798,20.1724269474325,11.4442664225223,13.8246738384069
1580420497.68198,23.0411230640116,13.9467460135804,14.9843595025559
1580420497.68598,27.1305409323261,13.1532768749523,16.3881895170518
1580420497.68998,31.9523918516823,7.35484855420759,18.646524757763
1580420497.69397,37.0183871213853,2.28885328450451,21.3931486991683
1580420497.69797,39.3987945372701,1.98367284657047,22.4917982757304
1580420497.70197,41.2298771648736,3.93682764934761,22.1866178377966
1580420497.70597,44.9530785076674,5.6458381017776,21.8204013122759
1580420497.70997,50.7515068284119,6.37827115281902,22.613870450904
1580420497.71397,56.2447547112229,6.68345159075307,24.0177004654001
1580420497.71797,60.0900282291905,6.43930724040592,25.3604943923094
1580420497.72197,62.5314717326623,5.52376592660403,25.6046387426566
1580420497.72597,62.8366521705962,4.11993591210808,24.8111696040282
1580420497.72996,61.5548943312733,2.41092545967808,23.8345922026397
1580420497.73396,59.4186312657357,1.0070954451819,22.3697261005568
1580420497.73796,57.4654764629586,0.51880674448762,20.9658960860609
1580420497.74196,55.2071412222476,0.457770656900948,19.6231021591516
1580420497.74596,51.2397955291062,0.274662394140478,17.9751277943083
1580420497.74991,45.075150682841,-0.457770656900948,15.9609369039445
1580420497.75391,37.6897840848401,-1.31227588311594,13.8857099259938
1580420497.75791,30.4875257495994,-2.16678110933094,11.7494468604561
1580420497.7619,24.4449530785075,-3.44853894865332,9.55214770733187
1580420497.7659,19.0127412832837,-4.54718852521546,7.41588464179449
1580420497.7699,14.923323414969,-5.58480201419093,5.76791027695117
1580420497.7739,12.4818799114976,-6.25619897764545,4.66926070038903
1580420497.7779,10.8949416342411,-6.80552376592664,3.93682764934761
1580420497.7819,9.30800335698473,-7.29381246662092,3.63164721141379
1580420497.7859,8.14831769283592,-7.66002899214163,3.38750286106665
1580420497.7899,7.04966811627378,-8.02624551766235,3.02128633554594
1580420497.79389,6.07309071488521,-8.51453421835663,2.7771419851988
1580420497.79789,5.21858548867021,-9.12489509422448,2.59403372243833
1580420497.80189,4.54718852521546,-9.73525597009234,2.65506981002522
1580420497.80589,3.81475547417404,-10.1014724956131,2.7161058976119
1580420497.80989,3.32646677347975,-10.8339055466545,2.7771419851988
1580420497.81389,3.20439459830618,-11.3221942473488,3.20439459830618
1580420497.81789,3.26543068589308,-11.0780498970016,3.69268329900046
1580420497.82189,3.14335851071951,-10.8339055466545,4.42511635004189
1580420497.82588,2.83817807278547,-10.7118333714809,5.21858548867021
1580420497.8299,2.47196154726475,-10.5287251087204,6.5003433279926
1580420497.83389,1.8616006713969,-10.2845807583733,7.66002899214163
1580420497.83789,0.885023270008332,-10.1014724956131,8.88075074387734
1580420497.84189,0.396734569314049,-10.1014724956131,10.2845807583733
1580420497.84589,-0.0305180437933359,-10.1014724956131,11.505302510109
1580420497.84989,-0.213626306553806,-10.0404364080262,12.664988174258
1580420497.85389,-0.457770656900948,-10.3456168459602,13.7026016632333
1580420497.85789,-0.70191500724809,-10.4676890211338,14.7402151522087
1580420497.86188,-0.946059357595232,-10.4676890211338,15.6557564660104
1580420497.86588,-1.25123979552905,-10.5897611963073,16.3881895170518
1580420497.86988,-1.80056458381023,-10.7118333714809,17.1206225680933
1580420497.87388,-2.22781719691761,-10.955977721828,17.6699473563745
1580420497.87788,-2.22781719691761,-11.0780498970016,18.2803082322423
1580420497.88188,-1.55642023346309,-11.2611581597619,18.8296330205233
1580420497.88588,-0.457770656900948,-11.3221942473488,19.4399938963911
1580420497.88988,1.0070954451819,-11.2611581597619,20.4165712977797
1580420497.89387,2.16678110933094,-11.0780498970016,21.3321126115816
1580420497.89787,2.7161058976119,-10.5897611963073,22.1255817502097
1580420497.90187,3.44853894865332,-10.4066529335469,23.0411230640116
1580420497.90587,4.73029678797593,-10.4676890211338,23.6514839398794
1580420497.90985,7.11070420386045,-10.8339055466545,24.3839169909209
1580420497.91385,9.91836423285258,-11.0170138094147,25.1163500419623
1580420497.91785,12.5429159990845,-11.3832303349354,25.7267109178301
1580420497.92185,15.2895399404897,-11.505302510109,26.0929274433508
1580420497.92585,18.1582360570687,-11.505302510109,25.9708552681773
1580420497.92984,22.064545662623,-11.6273746852826,25.8487830930037
1580420497.93384,26.9474326695658,-12.0546272983902,25.9708552681773
1580420497.93784,32.318608377203,-12.8480964370183,26.3981078812847
1580420497.94184,37.2014953841458,-13.4584573128861,26.9474326695658
1580420497.94584,40.802624551766,-14.373998626688,27.3746852826732
1580420497.94984,43.3051041428243,-15.4116121156633,27.6798657206073
1580420497.95384,45.4413672083617,-16.2661173418783,27.6798657206073
1580420497.95784,46.8451972228579,-17.4258030060273,27.6798657206073
1580420497.96183,48.1879911497672,-18.7685969329366,27.3746852826732
1580420497.96583,50.0801098649576,-20.1724269474325,27.191577019913
1580420497.96983,52.1553368429081,-21.8814373998625,27.3136491950866
1580420497.97383,53.9864194705119,-23.4073395895323,27.6188296330204
1580420497.97783,54.9019607843134,-25.0553139543754,27.9240100709544
1580420497.98183,54.6578164339662,-26.7032883192187,28.1681544213016
1580420497.98583,53.8033112077514,-28.4122987716487,28.4733348592354
1580420497.98984,52.3384451056686,-30.2433813992523,28.7174792095825
1580420497.99384,50.8125429159991,-31.769283588922,28.900587472343
1580420497.99783,50.1411459525443,-33.7224383916991,29.2057679102768
1580420498.00183,50.1411459525443,-35.6755931944763,29.6330205233844
1580420498.00583,49.9580376897839,-37.2625314717327,29.9992370489051
1580420498.00983,48.8593881132219,-38.7884336614025,30.5485618371861
1580420498.01383,47.5165941863124,-40.2532997634853,31.0368505378804
1580420498.01783,46.2958724345767,-41.5960936903946,31.5251392385746
1580420498.02183,46.4179446097503,-43.183031967651,32.0134279392689
1580420498.02583,47.8828107118331,-44.8310063324941,32.8679331654839
1580420498.02982,50.0801098649576,-46.1127641718167,33.9055466544594
1580420498.03382,52.8267338063629,-47.5165941863127,35.1873044937818
1580420498.03782,55.5733577477681,-48.8593881132219,36.4690623331044
1580420498.04182,58.5641260395205,-50.3852903028917,38.0560006103608
1580420498.04582,61.249713893339,-51.9722285801481,39.5208667124436
1580420498.04982,63.14183260853,-53.6812390325781,40.9246967269396
1580420498.05382,64.4846265354395,-55.7564660105288,42.0233463035017
1580420498.05782,64.6677347981995,-58.1368734264133,43.0609597924772
1580420498.06182,64.301518272679,-60.8834973678188,43.4882124055846
1580420498.06581,63.8742656595714,-63.6911573968109,43.7933928435186
1580420498.06979,63.5080491340509,-66.3767452506295,43.8544289311053
1580420498.07379,63.14183260853,-68.757152666514,44.0375371938658
1580420498.07779,62.4093995574881,-71.0154879072252,44.0985732814524
1580420498.08179,61.3717860685128,-73.029678797589,44.220645456626
1580420498.08579,59.6627756160829,-75.1659418631266,44.220645456626
1580420498.08979,57.9537651636529,-77.1190966659037,44.3427176317996
1580420498.09379,56.4278629739833,-79.1332875562675,44.3427176317996
1580420498.09778,55.4512855725948,-81.1474784466316,44.2816815442129
1580420498.10178,55.2071412222476,-83.2227054245823,44.3427176317996
1580420498.10578,55.2681773098343,-85.0537880521858,44.4647898069732
1580420498.10978,55.1461051346605,-86.6407263294423,44.5258258945601
1580420498.11378,54.9019607843134,-88.5938811322194,44.5868619821467
1580420498.11778,55.0240329594872,-90.6080720225832,45.0141145952543
1580420498.12178,55.0240329594872,-92.2560463874265,45.1972228580146
1580420498.12578,54.8409246967267,-94.148165102617,45.4413672083617
1580420498.12978,54.5967803463795,-95.9182116426339,45.5024032959486
1580420498.13377,54.2305638208591,-97.9324025329977,45.4413672083617
1580420498.13777,53.5591668574043,-99.8245212481881,45.2582589456015
