Timestamp_seconds,Accel_X_g,Accel_Y_g,Accel_Z_g
1580420491.286,-0.916273746852827,0.324467841611352,0.0559090562294955
1580420491.31836,-0.932875562676433,0.329839017318989,0.044678416113527
1580420491.35071,-0.94166475928893,0.313237201495383,0.044678416113527
1580420491.38307,-0.947524223697261,0.344975967040511,0.0441901274128327
1580420491.41543,-0.940199893186847,0.314702067597466,0.027588311589227
1580420491.44779,-0.947524223697261,0.313725490196077,0.01196307316701
1580420491.48019,-0.943617914091707,0.303959716182192,0.0363775082017241
1580420491.51255,-0.959731441214618,0.291752498664835,0.0363775082017241
1580420491.54491,-0.948989089799344,0.319096665903714,0.0158693827725642
1580420491.57727,-0.939711604486153,0.327397573815517,0.0290531776913099
1580420491.60963,-0.935317006179904,0.316166933699549,0.0495613031204698
1580420491.64199,-0.935805294880598,0.305912870984969,0.0471198596169984
1580420491.67435,-0.930434119172961,0.31519035629816,0.031006332494087
1580420491.7067,-0.94166475928893,0.33228046082246,0.0505378805218584
1580420491.73906,-0.945571068894484,0.317143511100937,0.037842374303807
1580420491.77142,-0.939223315785458,0.3117723353933,0.0554207675288012
1580420491.80378,-0.933363851377127,0.328374151216906,0.0358892195010299
1580420491.83614,-0.94166475928893,0.324956130312046,0.0354009308003356
1580420491.8685,-0.942641336690318,0.315678644998854,0.0764171816586554
1580420491.90086,-0.947524223697261,0.296635385671777,0.060303654535744
1580420491.93321,-0.942153047989624,0.314702067597466,0.0495613031204698
1580420491.96557,-0.94508278019379,0.320073243305103,0.0441901274128327
1580420491.99793,-0.93141069657435,0.309330891889829,0.0490730144197755
1580420492.03029,-0.947035934996567,0.300053406576637,0.0563973449301898
1580420492.06265,-0.952407110704204,0.302006561379415,0.0578622110322726
1580420492.09501,-0.942153047989624,0.303959716182192,0.0568856336308841
1580420492.12737,-0.957289997711147,0.307377737087052,0.044678416113527
1580420492.15972,-0.949965667200733,0.3117723353933,0.0441901274128327
1580420492.19208,-0.950942244602121,0.299565117875943,0.0598153658350498
1580420492.22444,-0.945571068894484,0.29810025177386,0.0471198596169984
1580420492.2568,-0.93824673838407,0.297611963073166,0.0544441901274126
1580420492.28916,-0.944594491493095,0.312260624093994,0.0388189517051956
1580420492.32152,-0.941176470588236,0.304448004882886,0.0588387884336612
1580420492.35388,-0.94166475928893,0.290775921263446,0.0583504997329669
1580420492.38624,-0.938735027084764,0.314213778896772,0.0627450980392155
1580420492.41859,-0.940688181887541,0.304448004882886,0.0744640268558783
1580420492.45095,-0.950453955901427,0.286869611657892,0.0661631189440754
1580420492.48331,-0.944594491493095,0.292729076066223,0.0520027466239412
1580420492.51567,-0.940199893186847,0.302983138780803,0.0524910353246355
1580420492.54803,-0.951430533302815,0.286869611657892,0.0612802319371326
1580420492.58039,-0.946059357595178,0.300053406576637,0.0544441901274126
1580420492.61275,-0.939223315785458,0.306401159685663,0.0622568093385212
1580420492.6451,-0.943129625391013,0.297611963073166,0.0764171816586554
1580420492.67746,-0.949477378500038,0.290775921263446,0.0622568093385212
1580420492.70982,-0.940199893186847,0.297123674372472,0.0422369726100555
1580420492.74218,-0.949965667200733,0.284916456855115,0.0437018387121384
1580420492.77365,-0.957778286411841,0.278080415045395,0.0441901274128327
1580420492.80601,-0.962661173418784,0.280521858548866,0.0666514076447697
1580420492.83837,-0.951430533302815,0.278080415045395,0.0476081483176927
1580420492.87072,-0.945571068894484,0.299076829175249,0.0598153658350498
1580420492.90308,-0.953383688105593,0.292729076066223,0.0515144579232469
1580420492.93544,-0.960708018616007,0.306401159685663,0.0622568093385212
1580420492.9678,-0.958266575112535,0.293705653467612,0.0607919432364383
1580420493.00015,-0.935317006179904,0.308842603189134,0.0466315709163041
1580420493.03251,-0.939711604486153,0.312260624093994,0.0324711985961699
1580420493.06487,-0.933363851377127,0.312748912794689,0.041260395208667
1580420493.09723,-0.966079194323644,0.302983138780803,0.0334477759975584
1580420493.12959,-0.953871976806287,0.339604791332874,0.01196307316701
1580420493.16194,-0.977798123140307,0.336675059128709,0.0271000228885327
1580420493.1943,-0.988540474555581,0.296635385671777,0.0397955291065841
1580420493.22666,-0.987075608453498,0.347905699244677,-0.00903334096284425
1580420493.25902,-0.953871976806287,0.34253452353704,0.0075684748607614
1580420493.29137,-0.960708018616007,0.302006561379415,0.0476081483176927
1580420493.32373,-0.96217288471809,0.298588540474555,0.0319829098954756
1580420493.35609,-0.977309834439613,0.381109330891888,0.0612802319371326
1580420493.38845,-0.94166475928893,0.23315785458152,0.096437018387121
1580420493.4208,-0.946059357595178,0.190676737621118,0.0988784618905925
1580420493.45316,-0.929945830472267,0.310795757991912,0.0358892195010299
1580420493.48552,-0.901136797131304,0.394781414511328,-0.00512703135728998
1580420493.51788,-0.91773861295491,0.377203021286334,0.00610360875867855
1580420493.55024,-0.93824673838407,0.366948958571754,-0.00805676356145568
1580420493.58259,-0.925062943465324,0.313237201495383,0.0285648889906156
1580420493.61495,-0.933852140077821,0.30835431448844,0.0217288471808956
1580420493.64731,-0.914808880750744,0.300541695277332,0.00659189745937283
1580420493.67967,-0.908461127641718,0.290287632562752,0.00415045395590141
1580420493.71202,-0.920668345159076,0.269779507133592,0.0363775082017241
1580420493.74438,-0.935317006179904,0.279056992446783,0.0764171816586554
1580420493.77674,-0.933852140077821,0.320561532005797,0.0734874494544897
1580420493.8091,-0.923598077363241,0.349858854047454,0.0373540856031127
1580420493.84145,-0.921644922560464,0.32202639810788,0.0490730144197755
1580420493.87381,-0.94508278019379,0.310307469291217,0.0573739223315783
1580420493.90617,-0.95533684290837,0.314213778896772,0.0500495918211641
1580420493.93853,-0.949477378500038,0.327885862516212,0.0422369726100555
1580420493.97089,-0.948012512397955,0.329839017318989,-0.00122072175173571
1580420494.00324,-0.951430533302815,0.314702067597466,0.0261234454871442
1580420494.0356,-0.937270160982681,0.324467841611352,0.0515144579232469
1580420494.06799,-0.929945830472267,0.34937056534676,0.034424353398947
1580420494.10035,-0.949965667200733,0.31519035629816,0.0500495918211641
1580420494.13271,-0.950942244602121,0.294193942168306,0.0227054245822842
1580420494.16507,-0.949965667200733,0.292729076066223,-0.0104982070649271
1580420494.19742,-0.932875562676433,0.278080415045395,-0.00805676356145568
1580420494.22978,-0.963149462119478,0.250736247806515,0.000244144350347142
1580420494.26214,-0.935805294880598,0.2434119172961,0.0129396505683985
1580420494.2945,-0.952407110704204,0.252689402609292,-0.00952162966353853
1580420494.32686,-0.954360265506981,0.235599298084992,-0.00268558785381856
1580420494.35922,-0.960219729915313,0.225833524071106,-0.0114747844663157
1580420494.39157,-0.952407110704204,0.226810101472495,-0.0363775082017241
1580420494.42393,-0.973403524834058,0.199465934233615,-0.0632333867399097
1580420494.45629,-1.00270084687572,0.164797436484321,-0.099855039291981
1580420494.48865,-1.01832608529793,0.108644235904478,-0.11108567940795
1580420494.52101,-0.995376516365301,0.0642099641412983,-0.106691081101701
1580420494.55336,-1.00074769207294,-0.0104982070649271,-0.181399252307926
1580420494.58572,-1.0378576333257,-0.0549324788281069,-0.197512779430838
1580420494.61808,-1.10377660791943,-0.0871595330739297,-0.199954222934309
1580420494.65044,-1.15895323109789,-0.0861829556725411,-0.263431754024568
1580420494.6828,-1.15309376668955,-0.0354009308003356,-0.317631799801633
1580420494.71516,-1.16139467460136,0.0173342488746471,-0.326909285114825
1580420494.74751,-1.16530098420691,0.0114747844663157,-0.324467841611353
1580420494.77987,-1.18727397573815,-0.0388189517051956,-0.289311055161365
1580420494.81223,-1.19948119325551,-0.0534676127260241,-0.303471427481499
1580420494.84459,-1.149187457084,-0.0715342946517126,-0.308842603189136
1580420494.87695,-1.0466468299382,-0.0568856336308841,-0.250247959105822
1580420494.9093,-1.08570992599374,-0.156984817273212,-0.297611963073168
1580420494.94166,-0.998306248569467,-0.226321812771801,-0.281986724650951
1580420494.97402,-0.882093537804227,-0.174563210498206,-0.232181277180132
1580420495.00638,-0.826428625925079,-0.146242465857938,-0.201907377737086
1580420495.03874,-0.821545738918136,-0.0827649347676811,-0.11792172121767
1580420495.0711,-0.779552910658428,0.0290531776913099,-0.0466315709163041
1580420495.10345,-0.732677195391775,0.195071335927366,0.000732433051041426
1580420495.13581,-0.686289768825818,0.358159761959257,0.041260395208667
1580420495.16817,-0.736583504997329,0.483649958037688,-0.00170901045242999
1580420495.20053,-0.86988632028687,0.398687724116883,-0.00512703135728998
1580420495.23289,-0.956801709010453,0.207278553444723,0.0104982070649271
1580420495.26524,-1.072526131075,0.0222171358815899,-0.0954604409857325
1580420495.2976,-1.18873884184024,-0.0187991149767299,-0.231692988479438
1580420495.32996,-1.22536049439231,0.0256351567864499,-0.278568703746091
1580420495.36233,-1.25709925993744,0.0373540856031127,-0.254642557412071
1580420495.39469,-1.38551918822004,-0.138429846646829,-0.266361486228734
1580420495.42705,-1.33962005035477,-0.144289311055161,-0.244388494697489
1580420495.45941,-1.32545967803464,0.0349126420996413,-0.213626306553749
1580420495.49177,-1.3029983978027,0.00854505226214997,-0.314213778896773
1580420495.52413,-1.25319295033188,0.0935072861829553,-0.256595712214848
1580420495.55648,-1.11256580453193,0.000732433051041426,-0.127687495231555
1580420495.58884,-1.10426489662013,0.0949721522850382,-0.114991989013504
1580420495.6212,-1.12037842374304,0.0104982070649271,-0.210208285648889
1580420495.65356,-1.04859998474098,0.0363775082017241,-0.244388494697489
1580420495.68592,-0.993423361562524,-0.0109864957656214,-0.223880369268329
1580420495.71827,-1.00221255817502,-0.0813000686655982,-0.24682993820096
1580420495.75063,-1.05201800564584,-0.0588387884336612,-0.269291218432899
1580420495.78299,-1.04469367513542,-0.0349126420996413,-0.294193942168308
1580420495.81535,-1.04615854123751,0.0109864957656214,-0.305424582284276
1580420495.84771,-1.05641260395209,-0.070557717250324,-0.244876783398183
1580420495.88007,-1.11305409323262,-0.113038834210727,-0.249271381704432
1580420495.91242,-1.17701991302357,-0.0935072861829553,-0.215579461356526
1580420495.94478,-1.27565423056382,-0.0197756923781185,-0.228274967574578
1580420495.97714,-1.30788128480964,0.0251468680857556,-0.244388494697489
1580420496.0095,-1.38307774471656,0.0930189974822611,-0.191165026321812
1580420496.04186,-1.35622186617838,0.119874876020447,-0.190676737621118
1580420496.07421,-1.27663080796521,0.122316319523918,-0.188235294117646
1580420496.10657,-1.23170824750133,0.0720225833524069,-0.118410009918364
1580420496.13893,-1.23805600061036,0.104737926298924,-0.0500495918211641
1580420496.17129,-1.10963607232776,0.129640650034332,-0.0842298008697639
1580420496.20365,-0.944594491493095,0.196536202029449,-0.0485847257190812
1580420496.236,-0.88697642481117,0.207766842145418,0.0173342488746471
1580420496.26836,-0.824475471122302,0.207766842145418,0.0324711985961699
1580420496.30072,-0.79468986037995,0.225345235370412,0.0979018844892039
1580420496.33308,-0.72535286488136,0.123292896925307,0.103761348897535
1580420496.36544,-0.771252002746625,0.194583047226672,0.01196307316701
1580420496.3978,-0.846448462653544,0.157961394674601,-0.0847180895704582
1580420496.43015,-0.919691767757687,-0.00122072175173571,-0.227786678873883
1580420496.46251,-1.05934233615625,-0.0905775539787896,-0.554451819638361
1580420496.49487,-0.899671931029221,-0.175051499198901,-0.702891584649423
1580420496.52723,-0.748302433813992,-0.32300297550927,-0.720958266575112
1580420496.55959,-0.994399938963912,-0.746837567711909,-0.652597848477912
1580420496.59194,-1.12135500114443,-0.691660944533455,-0.734142061493857
1580420496.6243,-0.954848554207675,-0.54859235523003,-0.940688181887541
1580420496.65665,-0.853772793163959,-0.173586633096818,-0.968520637827115
1580420496.689,-0.970962081330587,-0.0798352025635154,-0.831311512932022
1580420496.72136,-1.06178377965972,-0.403082322423133,-0.633066300450141
1580420496.75372,-1.03639276722362,-0.610605020218204,-0.458747234302281
1580420496.78608,-0.976821545738918,-0.450446326390479,-0.388433661402305
1580420496.81844,-0.929945830472267,-0.354253452353705,-0.377203021286336
1580420496.8508,-0.803967345693142,-0.253665980010682,-0.309330891889831
1580420496.88316,-0.850843060959793,-0.230228122377355,-0.077393759060044
1580420496.91552,-0.820569161516747,-0.304936293583582,0.100343327992675
1580420496.94787,-0.729747463187609,-0.0236820019836728,0.142336156252384
1580420496.98023,-0.637949187457084,0.4314030670634,-0.0954604409857325
1580420497.01259,-0.631113145647364,0.290287632562752,-0.0842298008697639
1580420497.04495,-0.747325856412603,0.0852063782711525,-0.00659189745937283
1580420497.07731,-0.833752956435493,0.00268558785381856,-0.0764171816586554
1580420497.10967,-0.902113374532693,-0.0842298008697639,-0.0754406042572668
1580420497.14203,-0.941176470588236,-0.0725108720531011,-0.181399252307926
1580420497.17438,-1.08619821469444,-0.00952162966353853,-0.274662394140536
1580420497.20674,-1.17116044861524,-0.0168459601739528,-0.308354314488442
1580420497.2391,-1.20436408026245,0.114991989013504,-0.40503547722591
1580420497.27146,-1.37819485770962,0.103273060196841,-0.409918364232853
1580420497.30382,-1.35963988708324,0.0144045166704814,-0.400152590218967
1580420497.33618,-1.28444342717632,0.112062256809338,-0.539314869916838
1580420497.36854,-1.2605172808423,0.164797436484321,-0.590096894789044
1580420497.40089,-1.18873884184024,-0.0427252613107498,-0.462165255207141
1580420497.43325,-1.19313344014649,-0.315678644998856,-0.161867704280155
1580420497.46561,-1.19411001754787,-0.352300297550928,-0.0988784618905925
1580420497.49797,-1.09059281300069,-0.0295414663920042,-0.403570611123827
1580420497.53033,-0.928480964370184,0.279545281147477,-0.489509422446021
1580420497.56269,-0.966079194323644,0.211184863050278,-0.344487678339819
1580420497.59505,-0.968520637827115,0.108155947203784,-0.181887541008621
1580420497.62741,-0.96217288471809,0.127199206530861,-0.146730754558632
1580420497.65976,-0.978774700541695,-0.0104982070649271,-0.103273060196841
1580420497.69212,-0.943617914091707,0.365484092469671,-0.149172198062104
1580420497.72448,-1.00172426947433,0.298588540474555,-0.0993667505912867
1580420497.75684,-1.00611886778058,0.204348821240558,-0.00610360875867855
1580420497.7892,-0.976821545738918,0.25708400091554,-0.0046387426565957
1580420497.82156,-0.970473792629893,0.247806515602349,0.0222171358815899
1580420497.85392,-0.983169298847944,0.259525444419012,-0.0612802319371326
1580420497.88627,-0.936293583581293,0.245853360799572,-0.156984817273212
1580420497.91863,-0.909437705043107,0.415777828641183,-0.286381322957199
1580420497.95099,-0.926527809567407,0.555428397039751,-0.356694895857176
1580420497.98335,-0.94850080109865,0.457770656900891,-0.43579766536965
1580420498.01571,-0.992446784161135,0.517830167086291,-0.441168841077287
1580420498.04806,-1.04518196383612,0.498298619058517,-0.517341878385595
1580420498.08042,-1.1067063401236,0.436285954070343,-0.42896162355993
1580420498.11278,-1.11696040283818,0.376226443884946,-0.401129167620356
1580420498.14514,-1.11989013504234,0.3117723353933,-0.422613870450904
1580420498.1775,-1.13746852826734,0.309330891889829,-0.42212558175021
1580420498.20986,-1.1408865491722,0.27417410543984,-0.388433661402305
1580420498.24222,-0.990005340657664,0.235599298084992,-0.264408331425956
1580420498.27457,-1.0300450141146,0.334233615625237,-0.0842298008697639
1580420498.30693,-0.853284504463264,0.225345235370412,-0.0666514076447697
1580420498.33929,-0.885023270008393,0.080811779964904,0.0158693827725642
1580420498.37165,-0.836682688639659,0.248294804303043,0.205813687342641
1580420498.40401,-0.770275425345236,0.290775921263446,0.134523537041275
1580420498.43637,-0.817151140611887,0.111573968108644,0.178957808804455
1580420498.46873,-0.823987182421607,0.135988403143358,0.0607919432364383
1580420498.50109,-0.844007019150073,0.39380483710994,0.0139162279697871
1580420498.53344,-0.938735027084764,0.286869611657892,-0.0544441901274126
1580420498.5658,-1.05787747005417,0.151613641565575,0.0354009308003356
1580420498.59816,-1.17213702601663,0.140383001449607,-0.0158693827725642
1580420498.63052,-1.15065232318608,0.29126420996414,-0.368902113374533
1580420498.66288,-1.13844510566873,0.368902113374531,-0.359624628061342
1580420498.69524,-0.799084458686199,0.972915236133364,-0.23657587548638
1580420498.7276,-0.660898756389715,0.89723048752575,-0.494880598153658
1580420498.75995,-0.462653543907836,0.929457541771573,-0.520759899290455
1580420498.79231,-0.241458762493323,1.08033875028611,-0.258060578316931
1580420498.82467,-2.19949645227741,0.176516365300984,-0.342534523537042
1580420498.85703,-1.63796444647898,1.26149385824369,-2.40115968566415
1580420498.88939,-0.943617914091707,0.954848554207675,-0.430426489662013
1580420498.92175,-1.01832608529793,-0.71509880216678,0.768322270542459
1580420498.95411,-0.969985503929198,-0.134035248340581,0.228274967574578
1580420498.98646,-0.875257495994507,1.11061264972915,-0.218509193560692
1580420499.01882,-1.07008468757153,0.30151827267872,-0.342046234836348
1580420499.05118,-1.07692072938125,0.0622568093385212,-0.274662394140536
1580420499.08354,-0.908949416342413,0.342046234836346,0.0358892195010299
1580420499.1159,-0.843030441748684,0.126222629129472,0.231692988479438
1580420499.14826,-0.926527809567407,0.462653543907834,-0.0881361104753182
1580420499.18062,-0.947524223697261,0.591561760891128,-0.109132524605172
1580420499.21298,-1.00953688868544,0.3288624399176,0.0563973449301898
1580420499.24536,-0.967544060425727,0.247806515602349,0.409918364232851
1580420499.27772,-0.844007019150073,1.13160906385901,-0.288334477759976
1580420499.31008,-0.905043106736859,0.802990768291753,0.01196307316701
1580420499.34243,-0.970473792629893,0.569588769359886,0.0695811398489354
1580420499.37479,-0.976821545738918,0.735118638895248,0.0642099641412983
1580420499.40715,-0.984634164950027,0.554451819638363,0.112062256809338
1580420499.43951,-1.01344319829099,0.534920271610591,0.218020904859998
1580420499.47187,-0.987563897154192,0.487067978942548,0.326909285114823
1580420499.50423,-0.820080872816053,0.657480735484857,0.338139925230792
1580420499.53658,-0.742931258106355,0.799084458686199,0.30835431448844
1580420499.56894,-0.729747463187609,0.823498893720913,0.274662394140535
1580420499.6013,-0.717051956969557,0.64869153887236,0.359136339360646
1580420499.63366,-0.725841153582055,0.483649958037688,0.412848096437017
1580420499.66602,-0.733653772793163,0.468024719615471,0.311284046692606
1580420499.69837,-0.726817730983443,0.3972228580148,0.200930800335698
1580420499.73073,-0.642832074464026,0.360112916762034,0.167238879987792
1580420499.76309,-0.585214007782101,0.326420996414129,0.135011825741969
1580420499.79545,-0.564217593652247,0.340093080033569,0.0656748302433812
1580420499.82781,-0.555916685740444,0.294682230869,0.101319905394064
1580420499.86017,-0.622812237735561,0.199465934233615,0.163820859082932
1580420499.89252,-0.677988860914015,0.316655222400243,0.125246051728084
1580420499.92488,-0.723887998779277,0.573983367666134,0.117433432516975
1580420499.95724,-0.805920500495919,0.541756313420311,0.196047913328755
1580420499.9896,-0.866956588082704,0.495857175555045,0.281498435950255
1580420500.02196,-0.85279621576257,0.658945601586939,0.00561532005798426
1580420500.05431,-0.896253910124361,0.815686274509805,0.0466315709163041
1580420500.08667,-0.976333257038224,0.570565346761274,0.237064164187075
1580420500.11903,-0.951430533302815,0.552010376134891,0.138429846646829
1580420500.15139,-0.96900892652781,0.658945601586939,0.298588540474555
1580420500.18375,-1.01783779659724,0.85621423666743,0.280521858548866
1580420500.21611,-0.855725947966736,0.653574425879302,0.325932707713434
1580420500.24846,-0.804455634393836,0.845471885252156,0.317143511100937
1580420500.28082,-0.918715190356298,0.947035934996567,0.0461432822156098
1580420500.31318,-0.960219729915313,0.414801251239794,0.42456702525368
1580420500.34554,-0.937270160982681,0.205325398641946,0.491950865949491
1580420500.3779,-0.926039520866713,0.818127718013276,0.0280766002899213
1580420500.41025,-0.94850080109865,0.607186999313345,-0.0549324788281069
1580420500.44261,-0.910414282444496,0.372320134279391,0.0578622110322726
1580420500.47497,-0.85963225757229,0.595468070496683,0.106691081101701
1580420500.50733,-0.841077286945907,0.358648050659951,0.206790264744029
1580420500.53976,-0.953871976806287,0.29810025177386,0.173098344396124
1580420500.57212,-0.965102616922255,0.261966887922483,0.25708400091554
1580420500.60448,-0.935317006179904,0.248294804303043,0.27075608453498
1580420500.63684,-0.949965667200733,0.282475013351643,0.175539787899595
1580420500.6692,-0.953383688105593,0.473395895323108,0.135011825741969
1580420500.70156,-0.903089951934081,0.424078736552985,0.063721675440604
1580420500.73391,-0.960219729915313,0.456794079499502,0.189700160219729
1580420500.76627,-0.892347600518807,0.598886091401543,0.0910658426794839
1580420500.79863,-0.932387273975738,0.552498664835586,0.135988403143358
1580420500.83099,-0.957778286411841,0.637460898756391,-0.0163576714732585
1580420500.86335,-0.954360265506981,0.776134889753568,0.104737926298924
1580420500.8957,-0.919691767757687,0.601327534905014,0.134523537041275
1580420500.92806,-0.932875562676433,0.742442969405662,0.200930800335698
1580420500.96042,-0.981704432745861,0.682383459220265,0.31860837720302
1580420500.99278,-0.985610742351415,0.693125810635539,0.335210193026626
1580420501.02514,-1.07692072938125,0.708751049057756,0.403570611123826
1580420501.05749,-1.04908827344167,0.578866254673077,0.4314030670634
1580420501.08985,-0.953871976806287,0.524177920195317,0.5085526817731
1580420501.12221,-0.821057450217442,0.597909514000154,0.446051728084228
1580420501.15457,-0.679453727016098,0.553475242236974,0.40747692072938
1580420501.18693,-0.519783321889067,0.720469977874419,0.455817502098114
1580420501.21929,-0.479255359731441,0.656992446784162,0.378667887388417
1580420501.25164,-0.585214007782101,0.485603112840465,0.329350728618294
1580420501.284,-0.650156404974441,0.398199435416188,0.214114595254443
1580420501.31636,-0.633554589150835,0.371343556878003,0.266849774929426
1580420501.34872,-0.590096894789044,0.30493629358358,0.214602883955138
1580420501.38108,-0.512947280079347,0.307377737087052,0.178469520103761
1580420501.41343,-0.418219272144656,0.440192263675897,0.145265888456549
1580420501.44579,-0.389410238803693,0.402105745021743,0.184328984512092
1580420501.47815,-0.396246280613413,0.438727397573814,0.23657587548638
1580420501.51051,-0.46655985351339,0.567635614557108,0.293217364766917
1580420501.54287,-0.549080643930724,0.715098802166782,0.246341649500266
1580420501.57522,-0.667734798199435,0.651132982375831,0.296635385671777
1580420501.60758,-0.656504158083466,0.433844510566871,0.369390402075226
1580420501.63994,-0.723887998779277,0.733165484092471,0.220462348363469
1580420501.6723,-0.812268253604945,0.887464713511864,0.361577782864117
1580420501.70466,-0.86988632028687,0.681406881818877,0.457282368200197
1580420501.73702,-0.84596017395285,0.718516823071642,0.45532921339742
1580420501.76937,-0.818127718013276,0.561776150148777,0.43823910887312
1580420501.80173,-0.833264667734799,0.576424811169606,0.36646066987106
1580420501.8342,-0.913344014648661,0.713633936064699,0.33228046082246
1580420501.86656,-1.0300450141146,0.435309376668954,0.402105745021743
1580420501.89891,-1.11110093842985,0.469489585717554,0.340093080033569
1580420501.93127,-1.09205767910277,0.667246509498742,0.262943465323872
1580420501.96363,-0.973403524834058,0.663340199893188,0.228274967574578
1580420501.99599,-0.944594491493095,0.759044785229268,0.166750591287098
1580420502.02835,-0.91090257114519,0.538826581216146,0.25708400091554
1580420502.06071,-0.896742198825056,0.474372472724497,0.248294804303043
1580420502.09307,-0.909925993743801,0.512458991378654,0.131593804837109
1580420502.12542,-0.969985503929198,0.347905699244677,0.127199206530861
1580420502.15778,-0.984634164950027,0.313725490196077,0.146730754558632
1580420502.19014,-0.950942244602121,0.356694895857174,0.164309147783626
1580420502.2225,-0.928480964370184,0.343511100938429,0.179446097505149
1580420502.25486,-0.900160219729916,0.34253452353704,0.135500114442664
1580420502.28722,-0.92457465476463,0.406012054627297,0.129640650034332
1580420502.31958,-0.912855725947967,0.331303883421072,0.116945143816281
1580420502.35194,-0.964614328221561,0.333257038223849,0.123781185626001
1580420502.38429,-0.953871976806287,0.338139925230792,0.142336156252384
1580420502.41665,-0.91773861295491,0.29810025177386,0.158937972075989
1580420502.44901,-0.91773861295491,0.333745326924543,0.152101930266269
1580420502.48137,-0.906996261539636,0.403082322423131,0.174563210498206
1580420502.51373,-0.863538567177844,0.338139925230792,0.197024490730143
1580420502.54609,-0.96217288471809,0.584237430380714,0.246341649500266
1580420502.57845,-0.84937819485771,0.551033798733503,0.248294804303043
1580420502.61081,-0.860120546272984,0.639902342259862,0.296147096971083
1580420502.64316,-0.950942244602121,0.710215915159839,0.10766765850309
1580420502.67552,-0.942641336690318,0.476325627527274,0.168703746089875
1580420502.70788,-0.922133211261158,0.3972228580148,0.219485770962081
1580420502.74024,-0.888441290913253,0.320073243305103,0.374761577782863
1580420502.7726,-0.86988632028687,0.427496757457845,0.347417410543983
1580420502.80496,-0.771740291447319,0.586678873884185,0.40064087891966
1580420502.83732,-0.698496986343175,0.929945830472267,0.385503929198137
1580420502.86967,-0.700450141145952,1.06129549095903,0.241458762493323
1580420502.90203,-0.848401617456322,0.78785381857023,0.27417410543984
1580420502.93439,-0.956801709010453,0.405523765926603,0.136964980544747
1580420502.96675,-1.0212558175021,0.582772564278631,0.112550545510032
1580420502.99911,-1.11891355764095,0.359136339360646,0.027588311589227
1580420503.03147,-1.072526131075,0.3801327534905,-0.11792172121767
1580420503.06383,-0.965102616922255,0.661875333791105,-0.328374151216908
1580420503.09618,-0.844007019150073,0.919691767757687,-0.341069657434959
1580420503.12863,-0.756115053025102,0.799572747386893,-0.250736247806516
1580420503.16099,-0.557869840543221,0.826916914625773,-0.182375829709315
1580420503.19335,-0.653086137178606,0.919691767757687,-0.198489356832226
1580420503.22571,-0.750743877317465,1.01197833218891,-0.121828030823224
1580420503.25807,-0.625741969939726,0.913344014648661,0.0197756923781185
1580420503.29043,-0.639414053559166,0.718516823071642,0.102784771496147
1580420503.32279,-0.688731212329289,0.752697032120242,0.0627450980392155
1580420503.35514,-0.607186999313344,0.881116960402839,0.110597390707255
1580420503.3875,-0.572518501564049,0.865003433279927,0.0139162279697871
1580420503.41986,-0.587655451285572,0.951430533302815,0.0852063782711525
1580420503.45222,-0.486091401541161,0.830823224231327,0.28101014724956
1580420503.48458,-0.550057221332112,0.808850232700085,0.244388494697489
1580420503.51694,-0.452399481193256,0.828381780727856,0.35962462806134
1580420503.5493,-0.38794537270161,0.83912413214313,0.311284046692606
1580420503.58166,-0.325932707713436,0.817151140611887,0.362554360265506
1580420503.61402,-0.321538109407188,0.701426718547342,0.224856946669718
1580420503.64638,-0.184817273212786,0.661387045090411,0.459723811703668
1580420503.67874,-0.32642099641413,0.55640497444114,0.073975738155184
1580420503.71109,-0.313725490196079,0.835217822537576,0.268802929732203
1580420503.74345,-0.234134431982909,0.611581597619594,0.224368657969023
1580420503.77581,-0.227786678873883,0.506599526970323,0.0173342488746471
1580420503.80817,-0.150148775463492,0.767833981841765,0.0969253070878153
1580420503.84053,-0.301518272678722,0.826428625925079,0.0656748302433812
1580420503.87289,-0.351323720149539,0.831799801632716,0.0842298008697639
1580420503.90525,-0.375249866483559,0.824475471122302,0.202883955138475
1580420503.93761,-0.468024719615473,0.773693446250096,0.219485770962081
1580420503.96997,-0.481696803234913,0.82545204852369,0.108155947203784
1580420504.00233,-0.52466620889601,1.08131532768749,0.252201113908598
1580420504.03469,-0.603768978408484,0.930922407873656,0.320561532005797
1580420504.06705,-0.721446555275806,0.667734798199437,0.170168612191958
1580420504.0994,-0.665293354695963,0.82887006942855,0.314213778896772
1580420504.13176,-0.629159990844586,0.932875562676433,0.377203021286334
1580420504.16412,-0.931898985275044,0.864026855878539,0.395757991912717
1580420504.19648,-1.03053330281529,0.731212329289693,0.508064393072406
1580420504.22884,-0.842053864347296,0.593514915693905,0.456794079499502
1580420504.2612,-1.13746852826734,0.491950865949491,0.461188677805751
1580420504.29356,-1.26735332265202,0.499275196459905,0.408941786831463
1580420504.32592,-1.1062180514229,0.664316777294577,0.229251544975966
1580420504.35828,-1.11061264972915,0.498298619058517,0.3459525444419
1580420504.39064,-1.12428473334859,0.189211871519035,0.359136339360646
1580420504.42313,-1.16139467460136,0.303471427481497,0.211184863050278
1580420504.45548,-1.12233157854581,0.448004882887005,0.167238879987792
1580420504.48784,-1.04908827344167,0.489509422446019,0.23315785458152
1580420504.5202,-0.996841382467384,0.39038681620508,0.231204699778743
1580420504.55256,-0.943129625391013,0.432379644464788,0.188235294117646
1580420504.58492,-0.865980010681316,0.479743648432134,0.184328984512092
1580420504.61728,-0.806897077897307,0.568123903257803,0.259037155718318
1580420504.64964,-0.734142061493857,0.569100480659191,0.211184863050278
1580420504.682,-0.71851682307164,0.616952773327231,0.219974059662775
1580420504.71436,-0.737560082398717,0.615487907225148,0.295170519569695
1580420504.74672,-0.746837567711909,0.579842832074466,0.389898527504386
1580420504.77908,-0.700450141145952,0.494880598153657,0.430914778362705
1580420504.81143,-0.673105973907072,0.538826581216146,0.419684138246737
1580420504.84379,-0.680430304417486,0.58374914168002,0.420660715648125
1580420504.87615,-0.706797894254978,0.596932936598765,0.430426489662011
1580420504.90851,-0.71851682307164,0.562752727550166,0.423590447852291
1580420504.94087,-0.71851682307164,0.57007705806058,0.429449912260623
1580420504.97323,-0.68091859311818,0.551522087434197,0.425543602655068
1580420505.00559,-0.656992446784161,0.607186999313345,0.40405889982452
1580420505.03795,-0.642343785763332,0.62134737163348,0.389898527504386
1580420505.07031,-0.617441062027924,0.623788815136951,0.391851682307163
1580420505.10267,-0.599862668802929,0.631113145647365,0.407965209430074
1580420505.13503,-0.608651865415426,0.677012283512628,0.399176012817577
1580420505.16739,-0.639902342259861,0.659433890287634,0.4314030670634
1580420505.19974,-0.70142671854734,0.61792935072862,0.425543602655068
1580420505.2321,-0.79468986037995,0.60767528801404,0.423102159151597
1580420505.26446,-0.895765621423667,0.596932936598765,0.387945372701608
1580420505.29682,-1.0466468299382,0.560311284046694,0.380621042191194
1580420505.32918,-1.15992980849927,0.569100480659191,0.446051728084228
1580420505.36154,-1.20485236896315,0.567147325856414,0.492927443350879
1580420505.3939,-1.15944151979858,0.656992446784162,0.440192263675897
1580420505.42626,-1.08863965819791,0.804455634393836,0.470466163118942
1580420505.45862,-1.04078736552987,0.833264667734799,0.487067978942548
1580420505.49098,-0.902601663233387,0.931898985275044,0.577889677271688
1580420505.52334,-0.771252002746625,0.830334935530633,0.608651865415428
1580420505.55569,-0.673105973907072,0.878187228198673,0.669687953002214
1580420505.58805,-0.519783321889067,0.94850080109865,0.670176241702908
1580420505.62041,-0.289311055161365,0.932387273975738,0.64869153887236
1580420505.65277,-0.168215457389181,0.698008697642482,0.626230258640422
1580420505.68513,-0.105714503700312,0.564705882352943,0.640390630960557
1580420505.71756,-0.0227054245822842,0.542244602121006,0.493904020752268
1580420505.74992,-0.0524910353246355,0.52222476539254,0.389410238803691
1580420505.78228,-0.0114747844663157,0.231204699778743,0.389410238803691
1580420505.81464,0.00317387655451284,0.169192034790569,0.30493629358358
1580420505.847,-0.0563973449301898,0.337163347829403,0.241458762493323
1580420505.87936,-0.203860532539863,0.356694895857174,0.285404745555809
1580420505.91172,-0.359624628061342,0.3630426489662,0.399176012817577
1580420505.94408,-0.48364995803769,0.42456702525368,0.452399481193254
1580420505.97644,-0.590096894789044,0.505622949568934,0.476325627527274
1580420506.0088,-0.686778057526512,0.612558175020983,0.530037384603649
1580420506.04115,-0.769787136644542,0.644785229266805,0.610116731517511
1580420506.07351,-0.765880827038988,0.562264438849471,0.587655451285574
1580420506.10588,-0.78785381857023,0.497322041657128,0.536873426413369
1580420506.13823,-0.779064621957733,0.558358129243917,0.487556267643242
1580420506.17059,-0.72877088578622,0.573006790264746,0.473884184023802
1580420506.20295,-0.722423132677195,0.491950865949491,0.510994125276572
1580420506.23531,-0.757091630426491,0.433356221866177,0.502693217364769
1580420506.26767,-0.736095216296635,0.488044556343937,0.510505836575877
1580420506.30003,-0.727306019684137,0.544197756923783,0.497810330357822
1580420506.33239,-0.7390249485008,0.509529259174489,0.460700389105057
1580420506.36475,-0.78785381857023,0.449469748989088,0.470466163118942
1580420506.39711,-0.803967345693142,0.362554360265506,0.338139925230792
1580420506.42947,-0.859143968871596,0.365972381170366,0.181399252307926
1580420506.46183,-0.890882734416724,0.316166933699549,0.0749523155565726
1580420506.49419,-0.942153047989624,0.161379415579461,0.113527122911421
1580420506.52655,-1.06959639887083,-0.00317387655451284,0.108155947203784
1580420506.55891,-1.07692072938125,-0.0891126878767068,0.122316319523918
1580420506.59127,-1.18434424353399,-0.112550545510032,-0.0695811398489354
1580420506.62363,-1.08131532768749,-0.0598153658350498,-0.146730754558632
1580420506.65599,-1.10768291752499,0.0432135500114441,-0.230228122377355
1580420506.68835,-1.17311360341802,-0.0593270771343555,-0.176028076600289
1580420506.72071,-1.44899671931029,-0.120851453421835,-0.0813000686655982
1580420506.75307,-1.57741664759289,-0.209719996948195,-0.129640650034332
1580420506.78543,-1.33913176165408,-0.235599298084992,-0.212649729152361
1580420506.81779,-1.09156939040207,-0.189211871519035,-0.267338063630122
1580420506.85014,-0.758556496528573,0.0104982070649271,-0.255619134813459
1580420506.8825,-0.720469977874417,-0.162355992980849,-0.234622720683603
1580420506.91487,-0.87672236209659,-0.296635385671779,-0.161867704280155
1580420506.94722,-0.983657587548638,-0.239505607690546,-0.0827649347676811
1580420506.97958,-0.987075608453498,-0.193118181124589,-0.0617685206378269
1580420507.01205,-0.913344014648661,0.0578622110322726,-0.096437018387121
1580420507.04441,-0.915297169451438,0.0915541313801782,-0.0642099641412983
1580420507.07677,-0.840100709544519,0.167238879987792,-0.0920424200808725
1580420507.10913,-0.965102616922255,0.103273060196841,-0.0329594872968642
1580420507.14149,-1.03492790112154,-0.153566796368352,0.108644235904478
1580420507.17385,-0.968032349126421,0.134523537041275,0.155031662470435
1580420507.20621,-0.998794537270161,0.292729076066223,0.171633478294041
1580420507.23857,-1.08522163729305,0.346440833142594,0.130617227435721
1580420507.27093,-1.0891279468986,0.396246280613411,0.209231708247501
1580420507.30329,-1.00074769207294,0.372808422980086,0.392828259708551
1580420507.33565,-1.06471351186389,0.431891355764094,0.394293125810634
1580420507.36801,-1.0300450141146,0.497322041657128,0.276615548943312
1580420507.40037,-0.952407110704204,0.482673380636299,0.286869611657892
1580420507.43273,-0.956801709010453,0.462653543907834,0.401617456321048
1580420507.4651,-0.801037613488976,0.349858854047454,0.309330891889829
1580420507.49745,-0.894300755321584,0.436774242771037,0.401617456321048
1580420507.52981,-0.83570611123827,0.477790493629357,0.406500343327991
1580420507.56218,-0.89381246662089,0.474860761425191,0.503181506065463
1580420507.59453,-0.988540474555581,0.439215686274508,0.5085526817731
1580420507.6269,-0.944594491493095,0.530525673304343,0.505622949568934
1580420507.65926,-1.08180361638819,0.56324101625086,0.40747692072938
1580420507.69162,-0.965102616922255,0.338628213931486,0.0896009765774011
1580420507.72398,-0.763439383535516,0.220950637064163,-0.160891126878766
1580420507.75634,-0.679942015716792,-0.0373540856031127,-0.197024490730143
1580420507.7887,-0.763439383535516,-0.330815594720379,-0.137941557946135
1580420507.82106,-0.97926298924239,-0.291752498664836,-0.0544441901274126
1580420507.85342,-1.20387579156176,-0.0417486839093613,0.118898298619058
1580420507.88578,-1.53835355153735,0.0046387426565957,0.0358892195010299
1580420507.91814,-1.5593499656672,0.0324711985961699,-0.207278553444723
1580420507.9505,-1.33864347295338,-0.0915541313801782,-0.135500114442664
1580420507.98286,-1.13405050736248,-0.122316319523918,-0.106202792401007
1580420508.01522,-0.848401617456322,0.00805676356145568,-0.0910658426794839
1580420508.04758,-0.946059357595178,-0.174074921797512,-0.0852063782711525
1580420508.07994,-1.04029907682918,-0.258060578316931,0.0104982070649271
1580420508.1123,-0.91432059205005,-0.080811779964904,0.00952162966353853
1580420508.14466,-0.834729533836882,0.0925307087815668,-0.0104982070649271
1580420508.17702,-0.97926298924239,0.117433432516975,-0.0720225833524069
1580420508.20938,-1.05934233615625,-0.0329594872968642,-0.0813000686655982
1580420508.24174,-1.0041657129778,0.041260395208667,-0.0661631189440754
1580420508.2741,-1.10963607232776,0.0173342488746471,0.0231937132829785
1580420508.30658,-1.16871900511177,0.121828030823224,0.114015411612115
1580420508.33894,-1.11696040283818,0.0954604409857325,0.143801022354467
1580420508.3713,-1.07057297627222,0.255619134813458,0.281498435950255
1580420508.40366,-0.948989089799344,0.390875104905774,0.268314641031509
1580420508.43602,-0.956801709010453,0.380621042191194,0.151125352864881
1580420508.46838,-0.958266575112535,0.302006561379415,0.128664072632944
1580420508.50074,-0.838147554741742,0.296635385671777,0.281986724650949
1580420508.5331,-0.802990768291753,0.153078507667658,0.247806515602349
1580420508.56546,-0.820569161516747,0.191165026321812,0.244876783398183
1580420508.59782,-0.822522316319525,0.321049820706492,0.230716411078049
1580420508.63018,-0.854261081864653,0.326420996414129,0.215579461356526
1580420508.66254,-0.920668345159076,0.292729076066223,0.246341649500266
1580420508.6949,-0.946059357595178,0.254642557412069,0.271244373235675
1580420508.72726,-0.993423361562524,0.28442816815442,0.322514686808574
1580420508.75962,-0.980239566643778,0.35278858625162,0.342046234836346
1580420508.79198,-0.886488136110476,0.402594033722437,0.276127260242617
1580420508.82434,-0.74244296940566,0.535408560311286,0.379156176089111
1580420508.8567,-0.677012283512626,0.659433890287634,0.290775921263446
1580420508.88906,-0.7048447394522,0.506599526970323,0.402105745021743
1580420508.92142,-0.700938429846646,0.3288624399176,0.398199435416188
1580420508.95378,-0.567635614557107,0.290775921263446,0.281498435950255
1580420508.98614,-0.74586099031052,0.455817502098114,0.360112916762034
1580420509.0185,-0.850354772259099,0.474372472724497,0.264896620126649
1580420509.05086,-0.888441290913253,0.409430075532157,0.265873197528038
1580420509.08322,-1.09303425650416,0.394781414511328,0.296147096971083
1580420509.11558,-1.06520180056458,0.289311055161363,0.137941557946135
1580420509.14794,-1.06813153276875,0.628671702143894,0.166750591287098
1580420509.1803,-1.03932249942779,0.534920271610591,0.235599298084992
1580420509.21266,-1.39772640573739,0.211184863050278,0.160402838178072
1580420509.24502,-1.42702372777905,0.161867704280155,0.167727168688486
1580420509.27738,-1.29372091248951,0.231692988479438,0.0617685206378269
1580420509.30974,-1.48610666056306,0.147707331960021,0.0432135500114441
1580420509.3421,-1.64235904478523,-0.146730754558632,-0.139406424048218
1580420509.37446,-1.66726176852064,0.0632333867399097,-0.122316319523918
1580420509.40682,-1.40749217975128,-0.0554207675288012,-0.0642099641412983
1580420509.43918,-1.49733730067903,0.0798352025635154,0.034424353398947
1580420509.47154,-1.36208133058671,0.134035248340581,-0.0046387426565957
1580420509.5039,-1.28688487067979,0.359136339360646,0.0251468680857556
1580420509.53626,-0.999282825970855,0.408941786831463,0.105226214999618
1580420509.56862,-0.969985503929198,0.533455405508509,0.281498435950255
1580420509.60116,-1.08375677119097,0.342046234836346,0.545174334325171
1580420509.63352,-1.26686503395132,0.567147325856414,0.756603341725796
1580420509.66589,-1.00514229037919,0.860120546272984,0.806897077897307
1580420509.69825,-0.906996261539636,1.00904859998474,0.352300297550926
1580420509.73061,-0.848401617456322,0.61792935072862,0.214602883955138
1580420509.76297,-0.55884641794461,0.143801022354467,0.360112916762034
1580420509.79533,-0.326909285114825,-0.122804608224612,0.0300297550926985
1580420509.82769,-0.245365072098878,-0.232181277180132,-0.294193942168308
1580420509.86005,-0.278568703746091,0.0109864957656214,-0.223880369268329
1580420509.89241,-0.441168841077287,0.123781185626001,0.0969253070878153
1580420509.92477,-0.750743877317465,-0.309819180590525,0.371343556878003
1580420509.95713,-1.21852445258259,0.317143511100937,0.0466315709163041
1580420509.98949,-0.942641336690318,0.428473334859234,-0.0280766002899213
1580420510.02185,-1.08668650339513,0.0178225375753414,-0.170168612191958
1580420510.05421,-1.25319295033188,-0.390875104905776,-0.00512703135728998
1580420510.08657,-1.16823071641108,-0.232669565880826,0.0729991607537954
1580420510.11893,-1.24733348592355,-0.0681162737468526,-0.0588387884336612
1580420510.15129,-1.02027924010071,0.0666514076447697,-0.0158693827725642
1580420510.18365,-0.841565575646602,0.288822766460669,-0.024170290684367
1580420510.21601,-0.850354772259099,0.265384908827343,-0.0651865415426869
1580420510.24837,-0.966079194323644,-0.137453269245441,-0.102296482795452
1580420510.28073,-1.03443961242084,-0.338139925230793,0.0236820019836728
1580420510.31309,-1.01588464179446,-0.327397573815519,0.031006332494087
1580420510.34545,-1.08815136949721,-0.0295414663920042,0.146730754558632
1580420510.37781,-1.0466468299382,0.42114900434882,0.170168612191958
1580420510.41017,-1.1408865491722,0.459723811703668,0.179934386205844
1580420510.44253,-1.15065232318608,0.306889448386357,0.103761348897535
1580420510.47489,-1.04127565423056,0.196047913328755,0.156984817273212
1580420510.50725,-0.988052185854887,0.0803234912642097,0.275150682841229
1580420510.53961,-0.913344014648661,0.115968566414892,0.23657587548638
1580420510.57197,-0.845471885252156,0.324956130312046,0.242923628595406
1580420510.60433,-0.850843060959793,0.484626535439077,0.312748912794689
1580420510.63669,-0.846936751354239,0.546639200427254,0.41773098344396
1580420510.66905,-0.846936751354239,0.453864347295337,0.399664301518271
1580420510.70141,-0.901136797131304,0.370855268177309,0.45874723430228
1580420510.73377,-0.904554818036164,0.315678644998854,0.353765163653009
1580420510.76613,-0.926039520866713,0.343022812237734,0.244388494697489
1580420510.79849,-0.888441290913253,0.303471427481497,0.153078507667658
1580420510.83085,-0.876234073395896,0.201907377737086,0.140871290150301
1580420510.86321,-0.946059357595178,0.0627450980392155,0.171633478294041
1580420510.89575,-1.00709544518196,-0.0593270771343555,0.167238879987792
1580420510.92811,-1.12037842374304,0.0759288929579611,0.0402838178072784
1580420510.96047,-1.14576943617914,0.0969253070878153,-0.0476081483176927
1580420510.99283,-1.12672617685206,-0.0222171358815899,-0.123292896925307
1580420511.02519,-1.06666666666667,-0.213626306553749,-0.126222629129472
1580420511.05755,-0.929945830472267,-0.23657587548638,-0.215091172655832
1580420511.08992,-0.968032349126421,-0.11108567940795,-0.335210193026628
1580420511.12227,-1.25709925993744,-0.147707331960021,-0.261478599221791
1580420511.15464,-1.42018768596933,-0.304936293583582,-0.266361486228734
1580420511.187,-1.29225604638743,-0.334721904325933,-0.215091172655832
1580420511.21936,-0.906019684138247,-0.103273060196841,-0.252201113908599
1580420511.25172,-0.682383459220263,0.00952162966353853,-0.300541695277333
1580420511.28408,-0.762462806134128,-0.188723582818341,-0.271732661936371
1580420511.31644,-0.921644922560464,-0.312260624093996,-0.183840695811398
1580420511.3488,-1.12672617685206,-0.338628213931488,-0.144289311055161
1580420511.38116,-0.756115053025102,-0.0192874036774242,-0.112062256809338
1580420511.41352,-0.918715190356298,-0.0617685206378269,-0.23315785458152
1580420511.44588,-0.94508278019379,-0.189700160219729,-0.188723582818341
1580420511.47824,-0.884534981307699,-0.169680323491264,-0.105714503700312
1580420511.5106,-1.00709544518196,-0.150148775463492,0.00317387655451284
1580420511.54296,-1.00660715648127,-0.0461432822156098,-0.126222629129472
1580420511.57532,-1.12233157854581,0.000244144350347142,-0.0930189974822611
1580420511.60768,-1.08180361638819,0.0456549935149155,-0.00268558785381856
1580420511.64004,-1.18483253223468,0.0690928511482412,0.179934386205844
1580420511.67241,-1.15162890058747,0.0769054703593497,0.0881361104753182
1580420511.70476,-1.0891279468986,0.155031662470435,-0.0212405584802013
1580420511.73713,-0.984634164950027,0.119874876020447,0.104737926298924
1580420511.76949,-0.954848554207675,0.160402838178072,0.172121766994735
1580420511.80185,-0.855237659266042,0.147707331960021,0.162844281681544
1580420511.83421,-0.850354772259099,0.271732661936369,0.199954222934309
1580420511.86657,-0.879652094300756,0.33228046082246,0.252689402609292
1580420511.89893,-0.853284504463264,0.25708400091554,0.200930800335698
1580420511.93129,-0.89381246662089,0.224856946669718,0.199954222934309
1580420511.96365,-0.846448462653544,0.204348821240558,0.133058670939192
1580420511.99601,-0.848401617456322,0.193118181124589,0.0153810940718699
1580420512.02837,-0.879652094300756,0.111573968108644,-0.034424353398947
1580420512.06073,-0.88355840390631,-0.110109102006561,0.00415045395590141
1580420512.09309,-0.928969253070878,-0.222903791866941,-0.0046387426565957
1580420512.12545,-1.04811169604028,-0.133546959639887,-0.0822766460669868
1580420512.15781,-1.06276035706111,0.0153810940718699,-0.177004654001678
1580420512.19025,-1.13600366216525,-0.00561532005798426,-0.268802929732205
1580420512.22261,-1.22438391699092,-0.191653315022506,-0.271732661936371
1580420512.25497,-1.18483253223468,-0.273685816739148,-0.274662394140536
1580420512.28733,-1.38258945601587,-0.292240787365531,-0.36743724727245
1580420512.31969,-1.24928664072633,-0.346440833142596,-0.379644464789807
1580420512.35205,-0.993911650263218,-0.280033569848174,-0.34009308003357
1580420512.38441,-0.676035706111238,-0.133546959639887,-0.387457084000916
1580420512.41677,-0.670176241702906,-0.217044327458609,-0.372320134279393
1580420512.44913,-0.85963225757229,-0.388433661402305,-0.320561532005799
1580420512.48149,-0.821545738918136,-0.213626306553749,-0.275638971541925
1580420512.51385,-0.838635843442436,-0.134523537041275,-0.326909285114825
1580420512.54621,-0.895277332722973,-0.229739833676661,-0.255619134813459
1580420512.57857,-0.933852140077821,-0.254642557412071,-0.179446097505149
1580420512.61093,-0.90064850843061,-0.247318226901655,-0.229739833676661
1580420512.64329,-0.838147554741742,-0.175539787899595,-0.300541695277333
1580420512.67565,-0.874280918593119,-0.166750591287098,-0.235599298084992
1580420512.70801,-0.895765621423667,-0.190188448920424,-0.171633478294041
1580420512.74038,-0.908949416342413,-0.208743419546806,-0.230228122377355
1580420512.77274,-0.932387273975738,-0.181887541008621,-0.214114595254443
1580420512.8051,-0.990005340657664,-0.125246051728084,-0.103273060196841
1580420512.83746,-1.04420538643473,-0.144289311055161,-0.0896009765774011
1580420512.86982,-1.07594415197986,-0.0861829556725411,-0.130128938735027
1580420512.90218,-1.0979171435111,-0.0158693827725642,-0.0988784618905925
1580420512.93454,-1.05397116044862,-0.0505378805218584,-0.0842298008697639
1580420512.9669,-1.08375677119097,-0.0505378805218584,-0.0651865415426869
1580420512.99926,-1.08033875028611,-0.0358892195010299,-0.0222171358815899
1580420513.03162,-1.06227206836042,-0.0422369726100555,-0.0324711985961699
1580420513.06398,-1.05250629434653,-0.0134279392690928,-0.0124513618677042
1580420513.09634,-1.04322880903334,0.000732433051041426,-0.0100099183642328
1580420513.1287,-1.03639276722362,0.024170290684367,-0.0266117341878385
1580420513.16106,-1.00025940337224,0.0173342488746471,-0.00122072175173571
1580420513.19342,-1.00904859998474,0.00854505226214997,0.0178225375753414
1580420513.22578,-0.990005340657664,-0.00952162966353853,-0.0314946211947813
1580420513.25814,-0.964614328221561,0.0168459601739528,-0.044678416113527
1580420513.2905,-0.932875562676433,0.000244144350347142,-0.113038834210727
1580420513.32287,-0.929945830472267,-0.0861829556725411,-0.162355992980849
1580420513.35523,-0.901625085831999,-0.108155947203784,-0.129640650034332
1580420513.38759,-0.958266575112535,-0.0915541313801782,-0.133546959639887
1580420513.41995,-0.981704432745861,-0.170168612191958,-0.210208285648889
1580420513.45231,-0.937758449683376,-0.167238879987792,-0.255130846112765
1580420513.48477,-0.933363851377127,-0.245853360799572,-0.299076829175251
1580420513.51713,-1.05885404745556,-0.157961394674601,-0.217532616159303
1580420513.54949,-1.09645227740902,-0.350835431448845,-0.183352407110704
1580420513.58185,-1.10768291752499,-0.0500495918211641,-0.23657587548638
1580420513.61421,-1.03053330281529,0.175539787899595,-0.312260624093996
1580420513.64657,-0.970473792629893,0.0212405584802013,-0.270756084534982
1580420513.67893,-0.820569161516747,-0.38110933089189,-0.140383001449607
1580420513.71129,-0.699961852445258,-0.393316548409247,-0.219485770962081
1580420513.74366,-0.766857404440376,-0.0622568093385212,-0.445075150682841
1580420513.77602,-0.746837567711909,0.0197756923781185,-0.456794079499504
1580420513.80838,-0.888929579613947,-0.343022812237736,-0.35034714274815
1580420513.84074,-0.94508278019379,-0.452399481193256,-0.275638971541925
1580420513.8731,-0.962661173418784,-0.266849774929428,-0.320561532005799
1580420513.90546,-0.963149462119478,-0.196047913328755,-0.395757991912719
1580420513.93782,-0.984634164950027,-0.140383001449607,-0.456794079499504
1580420513.97018,-0.868909742885482,-0.218020904859998,-0.404058899824522
1580420514.00254,-0.837659266041047,-0.320073243305105,-0.365972381170367
1580420514.0349,-0.850354772259099,-0.268802929732205,-0.406012054627299
1580420514.06726,-0.796643015182728,-0.191165026321812,-0.448981460288396
1580420514.09962,-0.830334935530633,-0.218997482261386,-0.437750820172427
1580420514.13198,-0.89039444571603,-0.367925535973145,-0.39478141451133
1580420514.16434,-1.02662699320974,-0.342046234836348,-0.414801251239796
1580420514.1967,-1.03443961242084,-0.210696574349583,-0.436285954070344
1580420514.22906,-0.844007019150073,-0.236087586785686,-0.346440833142596
1580420514.26143,-0.922621499961853,-0.309819180590525,-0.35718318455787
1580420514.29378,-0.846448462653544,-0.0427252613107498,-0.420172426947433
1580420514.32615,-0.836682688639659,-0.177004654001678,-0.333745326924545
1580420514.35851,-0.92115663385977,-0.649179827573052,-0.339604791332876
1580420514.39087,-0.966079194323644,-0.35034714274815,-0.32983901731899
1580420514.42323,-0.953383688105593,-0.141847867551689,-0.306401159685665
1580420514.45559,-0.981216144045167,-0.0930189974822611,-0.252689402609294
1580420514.48795,-0.829846646829939,-0.208743419546806,-0.32983901731899
1580420514.52031,-0.744396124208437,-0.235599298084992,-0.43237964446479
1580420514.55267,-0.846448462653544,-0.127687495231555,-0.390875104905776
1580420514.58503,-0.941176470588236,-0.140871290150301,-0.173586633096818
1580420514.61739,-0.942153047989624,-0.376714732585642,-0.206301976043335
1580420514.64975,-0.934340428778516,-0.548104066529335,-0.160891126878766
1580420514.68211,-0.885511558709087,-0.38110933089189,-0.229739833676661
1580420514.71447,-0.932387273975738,-0.0627450980392155,-0.47681391622797
1580420514.74683,-0.952895399404898,0.117433432516975,-0.409430075532159
1580420514.77936,-0.904554818036164,-0.131593804837109,-0.388433661402305
1580420514.81172,-0.885511558709087,-0.373296711680782,-0.274662394140536
1580420514.84408,-0.876234073395896,-0.351812008850233,-0.248783093003738
1580420514.87644,-0.929457541771573,-0.177004654001678,-0.345952544441902
1580420514.9088,-0.922133211261158,-0.164797436484321,-0.335698481727322
1580420514.94116,-0.959243152513924,-0.110109102006561,-0.377203021286336
1580420514.97352,-0.918715190356298,-0.339604791332876,-0.271732661936371
1580420515.00588,-0.850354772259099,-0.140871290150301,-0.375249866483559
1580420515.03824,-0.965102616922255,-0.140383001449607,-0.388921950102999
1580420515.0706,-0.889906157015336,-0.230716411078049,-0.336186770428016
1580420515.10296,-0.891371023117419,-0.388433661402305,-0.251712825207905
1580420515.13532,-0.905531395437553,-0.0734874494544897,-0.351812008850233
1580420515.16768,-0.938735027084764,-0.0939955748836496,-0.347417410543985
1580420515.20004,-0.923109788662547,-0.179446097505149,-0.325444419012742
1580420515.2324,-0.891371023117419,-0.425055313954376,-0.269291218432899
1580420515.26477,-0.865980010681316,-0.268802929732205,-0.384039063096056
1580420515.29713,-0.930434119172961,-0.0490730144197755,-0.429449912260624
1580420515.32949,-0.93482871747921,0.0280766002899213,-0.375738155184253
1580420515.36185,-0.98609903105211,-0.297123674372473,-0.297123674372473
1580420515.39421,-0.945571068894484,-0.248294804303043,-0.336186770428016
1580420515.42657,-0.847425040054933,-0.0661631189440754,-0.358648050659953
1580420515.45893,-0.870374608987564,-0.273685816739148,-0.328862439917602
1580420515.49129,-0.890882734416724,-0.218997482261386,-0.368902113374533
1580420515.52365,-0.827893492027162,-0.12133974212253,-0.384039063096056
1580420515.55601,-0.907972838941024,-0.368902113374533,-0.256595712214848
1580420515.58837,-0.943129625391013,-0.39819943541619,-0.345464255741208
1580420515.62073,-0.95533684290837,-0.0764171816586554,-0.414801251239796
1580420515.65309,-0.914808880750744,-0.201419089036392,-0.359624628061342
1580420515.68545,-0.906507972838941,-0.268314641031511,-0.330815594720379
1580420515.71781,-0.904554818036164,-0.216067750057221,-0.365972381170367
1580420515.75017,-0.857190814068819,-0.251712825207905,-0.342534523537042
1580420515.78253,-0.865980010681316,-0.159426260776684,-0.365972381170367
1580420515.81489,-0.861097123674373,-0.130128938735027,-0.386968795300222
1580420515.84726,-0.940688181887541,-0.342534523537042,-0.310795757991913
1580420515.87962,-0.903089951934081,-0.371831845578699,-0.355230029755093
1580420515.91198,-0.759533073929962,-0.293705653467613,-0.477790493629358
1580420515.94434,-0.904554818036164,-0.00805676356145568,-0.499275196459907
1580420515.9767,-0.941176470588236,-0.110109102006561,-0.468024719615473
1580420516.00906,-0.942153047989624,-0.337163347829405,-0.311284046692608
1580420516.04142,-0.95533684290837,-0.321538109407188,-0.174563210498206
1580420516.07394,-0.85963225757229,-0.281498435950256,-0.223880369268329
1580420516.1063,-0.83228809033341,-0.437750820172427,-0.374761577782865
1580420516.13867,-0.869398031586176,-0.147707331960021,-0.413336385137713
1580420516.17103,-0.833264667734799,-0.192141603723201,-0.461188677805753
1580420516.20339,-0.85279621576257,-0.321049820706493,-0.363042648966202
1580420516.23575,-0.893324177920196,-0.483161669336996,-0.380621042191196
1580420516.26811,-0.905043106736859,-0.282963302052339,-0.378667887388419
1580420516.30047,-0.94508278019379,-0.106202792401007,-0.37769130998703
1580420516.33283,-0.952895399404898,-0.198977645532921,-0.300541695277333
1580420516.36519,-0.794201571679256,-0.202395666437781,-0.468024719615473
1580420516.39755,-0.894300755321584,-0.277103837644008,-0.298100251773862
1580420516.42991,-0.896253910124361,-0.414312962539102,-0.270756084534982
1580420516.46228,-0.82887006942855,-0.465583276112001,-0.320073243305105
1580420516.49464,-0.958266575112535,-0.320073243305105,-0.426520180056459
1580420516.527,-0.926039520866713,-0.200442511635003,-0.406988632028687
1580420516.55936,-0.901136797131304,-0.39136339360647,-0.390386816205082
1580420516.59172,-0.920668345159076,-0.0832532234683754,-0.474372472724498
1580420516.62408,-0.864026855878539,-0.114015411612115,-0.397222858014802
1580420516.65644,-0.827893492027162,-0.35376516365301,-0.320561532005799
1580420516.6888,-0.844007019150073,-0.309330891889831,-0.377203021286336
1580420516.72116,-0.860608834973679,-0.102296482795452,-0.388921950102999
1580420516.75353,-0.866956588082704,-0.176516365300984,-0.433844510566873
1580420516.78589,-0.883070115205616,-0.234134431982909,-0.384039063096056
1580420516.81825,-0.815686274509805,-0.264896620126651,-0.391851682307164
1580420516.85061,-0.843518730449379,-0.213626306553749,-0.376226443884947
1580420516.88297,-0.856702525368124,-0.241947051194018,-0.409430075532159
1580420516.91533,-0.899183642328527,-0.210696574349583,-0.43579766536965
1580420516.94769,-0.932875562676433,-0.276615548943314,-0.380132753490502
1580420516.98005,-0.912855725947967,-0.307377737087053,-0.385503929198139
1580420517.01241,-0.866956588082704,-0.358159761959259,-0.428473334859236
1580420517.04478,-0.861585412375067,-0.221927214465552,-0.444586861982147
1580420517.07714,-0.912367437247273,-0.131593804837109,-0.433844510566873
1580420517.1095,-0.884534981307699,-0.453376058594644,-0.407476920729382
1580420517.14186,-0.846936751354239,-0.440192263675899,-0.345464255741208
1580420517.17422,-0.920668345159076,-0.258060578316931,-0.313725490196079
1580420517.20658,-0.866956588082704,-0.158449683375295,-0.332280460822462
1580420517.23894,-0.804455634393836,-0.218997482261386,-0.36060120546273
1580420517.2713,-0.800549324788282,-0.385992217898833,-0.352788586251622
1580420517.30366,-0.835217822537576,-0.325932707713436,-0.339116502632182
1580420517.33602,-0.887464713511864,-0.190676737621118,-0.435309376668956
1580420517.36856,-0.891371023117419,-0.189700160219729,-0.385503929198139
1580420517.40092,-0.935317006179904,-0.279545281147479,-0.35718318455787
1580420517.43328,-0.87330434119173,-0.304936293583582,-0.273197528038454
1580420517.46564,-0.816662851911193,-0.324956130312048,-0.356206607156482
1580420517.49801,-0.822522316319525,-0.317143511100939,-0.40161745632105
1580420517.53037,-0.895765621423667,-0.300541695277333,-0.333745326924545
1580420517.56273,-0.879163805600061,-0.250736247806516,-0.417242694743267
1580420517.59509,-0.959243152513924,-0.370366979476616,-0.37427328908217
1580420517.62745,-0.903578240634776,-0.349858854047456,-0.386480506599527
1580420517.65981,-0.858167391470207,-0.274662394140536,-0.443121995880064
1580420517.69217,-0.910414282444496,-0.164309147783626,-0.468513008316167
1580420517.72454,-0.87330434119173,-0.301029983978028,-0.385992217898833
1580420517.7569,-0.836194399938964,-0.278568703746091,-0.388433661402305
1580420517.78926,-0.864515144579233,-0.191165026321812,-0.407965209430076
1580420517.82162,-0.854261081864653,-0.243900205996795,-0.406012054627299
1580420517.85398,-0.830823224231327,-0.222415503166246,-0.387457084000916
1580420517.88634,-0.82545204852369,-0.118410009918364,-0.439703974975204
1580420517.91871,-0.88355840390631,-0.281986724650951,-0.362554360265507
1580420517.95107,-0.839612420843824,-0.287846189059282,-0.397222858014802
1580420517.98343,-0.850354772259099,-0.224368657969023,-0.403082322423133
1580420518.01579,-0.933363851377127,-0.320561532005799,-0.419684138246739
1580420518.04815,-0.888441290913253,-0.262943465323874,-0.431891355764096
1580420518.08051,-0.881116960402839,-0.343999389639125,-0.406500343327993
1580420518.11287,-0.827893492027162,-0.435309376668956,-0.467048142214084
1580420518.14524,-0.915785458152133,-0.139406424048218,-0.42896162355993
1580420518.1776,-0.90064850843061,-0.310795757991913,-0.417730983443962
1580420518.20996,-0.842053864347296,-0.384039063096056,-0.32300297550927
1580420518.24232,-0.871839475089647,-0.295170519569696,-0.303471427481499
1580420518.27468,-0.902113374532693,-0.162355992980849,-0.210208285648889
1580420518.30704,-0.790783550774396,-0.238529030289158,-0.369390402075227
1580420518.33941,-0.827893492027162,-0.432867933165484,-0.379644464789807
1580420518.37177,-0.859143968871596,-0.304448004882888,-0.291264209964142
1580420518.40413,-0.875745784695201,-0.260013733119708,-0.331303883421073
1580420518.43649,-0.891371023117419,-0.272709239337759,-0.37085526817731
1580420518.46885,-0.878675516899367,-0.265384908827345,-0.34009308003357
1580420518.50121,-0.833264667734799,-0.239017318989852,-0.291264209964142
1580420518.53357,-0.834729533836882,-0.307377737087053,-0.37769130998703
1580420518.56594,-0.882093537804227,-0.375738155184253,-0.46314183260853
1580420518.5983,-0.947035934996567,-0.307866025787748,-0.324956130312048
1580420518.63066,-0.875745784695201,-0.355230029755093,-0.37769130998703
1580420518.66315,-0.922621499961853,-0.38794537270161,-0.469489585717556
1580420518.69551,-0.857190814068819,-0.227786678873883,-0.490974288548104
1580420518.72787,-0.870862897688259,-0.0373540856031127,-0.485114824139773
1580420518.76023,-0.856702525368124,-0.375249866483559,-0.346440833142596
1580420518.79259,-0.892835889219501,-0.338628213931488,-0.361089494163425
1580420518.82495,-0.830334935530633,-0.202395666437781,-0.433844510566873
1580420518.85732,-0.822522316319525,-0.125246051728084,-0.428473334859236
1580420518.88968,-0.849866483558404,-0.287846189059282,-0.383062485694667
1580420518.92204,-0.871839475089647,-0.233646143282215,-0.40503547722591
1580420518.9544,-0.852307927061876,-0.199954222934309,-0.419684138246739
1580420518.98676,-0.868909742885482,-0.198001068131532,-0.417730983443962
1580420519.01912,-0.895765621423667,-0.2434119172961,-0.398687724116884
1580420519.05148,-0.864515144579233,-0.298100251773862,-0.43237964446479
1580420519.08385,-0.914808880750744,-0.217532616159303,-0.454352635996033
1580420519.11621,-0.878675516899367,-0.318608377203022,-0.437262531471733
1580420519.14857,-0.847913328755627,-0.399176012817579,-0.491462577248798
1580420519.18093,-0.912855725947967,-0.103761348897535,-0.448981460288396
1580420519.21329,-0.924086366063936,-0.128664072632944,-0.43921568627451
1580420519.24565,-0.871839475089647,-0.301518272678722,-0.304448004882888
1580420519.27801,-0.823010605020219,-0.337163347829405,-0.235599298084992
1580420519.31038,-0.840588998245213,-0.237552452887769,-0.268802929732205
1580420519.34274,-0.859143968871596,-0.167727168688486,-0.375249866483559
1580420519.3751,-0.847425040054933,-0.305912870984971,-0.417242694743267
1580420519.40746,-0.83570611123827,-0.293217364766919,-0.334233615625239
1580420519.43982,-0.881116960402839,-0.235599298084992,-0.320073243305105
1580420519.47218,-0.924086366063936,-0.242435339894712,-0.409918364232853
1580420519.50455,-0.872816052491036,-0.324467841611353,-0.404058899824522
1580420519.53691,-0.851819638361182,-0.248783093003738,-0.404058899824522
1580420519.56927,-0.974380102235447,-0.343022812237736,-0.302006561379416
1580420519.60163,-0.872816052491036,-0.393804837109942,-0.418219272144656
1580420519.63399,-0.908461127641718,-0.41187151903563,-0.484138246738384
1580420519.66635,-0.92115663385977,-0.0979018844892039,-0.56568245975433
1580420519.69871,-0.829846646829939,-0.225345235370412,-0.426520180056459
1580420519.73108,-0.892835889219501,-0.204348821240558,-0.450934615091173
1580420519.76344,-0.833752956435493,-0.316166933699551,-0.386968795300222
1580420519.7958,-0.857190814068819,-0.217532616159303,-0.36743724727245
1580420519.82816,-0.852307927061876,-0.197512779430838,-0.386968795300222
1580420519.86052,-0.846936751354239,-0.181399252307926,-0.40161745632105
1580420519.89288,-0.838635843442436,-0.225833524071106,-0.417730983443962
1580420519.92525,-0.849866483558404,-0.179446097505149,-0.40161745632105
1580420519.95782,-0.850354772259099,-0.183840695811398,-0.429449912260624
1580420519.99019,-0.85963225757229,-0.202395666437781,-0.402594033722439
1580420520.02255,-0.844007019150073,-0.254154268711376,-0.412359807736324
1580420520.05491,-0.857679102769513,-0.208255130846112,-0.429938200961319
1580420520.08727,-0.855237659266042,-0.240482185091935,-0.440680552376593
1580420520.11963,-0.95875486381323,-0.278080415045396,-0.44263370717937
1580420520.15199,-0.825940337224385,-0.341557946135653,-0.455329213397421
1580420520.18436,-0.802502479591059,-0.338628213931488,-0.485114824139773
1580420520.21672,-0.939711604486153,-0.171633478294041,-0.439703974975204
1580420520.24908,-0.957289997711147,-0.143312733653772,-0.398687724116884
1580420520.28144,-0.861097123674373,-0.239505607690546,-0.380132753490502
1580420520.3138,-0.857679102769513,-0.311284046692608,-0.278080415045396
1580420520.34616,-0.789806973373008,-0.188723582818341,-0.261478599221791
1580420520.37852,-0.833752956435493,-0.359624628061342,-0.383550774395362
1580420520.41088,-0.878675516899367,-0.308354314488442,-0.398687724116884
1580420520.44325,-0.920180056458381,-0.239505607690546,-0.321538109407188
1580420520.47561,-0.978774700541695,-0.188723582818341,-0.314702067597468
1580420520.50797,-0.806897077897307,-0.190676737621118,-0.448493171587701
1580420520.54033,-0.870862897688259,-0.293217364766919,-0.353276874952316
1580420520.57269,-0.91432059205005,-0.347417410543985,-0.39136339360647
1580420520.60505,-0.951430533302815,-0.291752498664836,-0.260990310521096
1580420520.63742,-0.940688181887541,-0.232181277180132,-0.372320134279393
1580420520.66978,-0.955825131609064,-0.142824444953078,-0.451911192492561
1580420520.70214,-0.855237659266042,-0.199954222934309,-0.334721904325933
1580420520.7345,-0.846448462653544,-0.378667887388419,-0.344487678339819
1580420520.76686,-0.913832303349356,-0.285404745555811,-0.406500343327993
1580420520.79922,-0.932875562676433,-0.322026398107882,-0.407476920729382
1580420520.83158,-0.922621499961853,-0.218997482261386,-0.475349050125887
1580420520.86395,-0.93824673838407,-0.211673151750972,-0.454352635996033
1580420520.89631,-0.879163805600061,-0.228274967574578,-0.424078736552987
1580420520.92867,-0.830823224231327,-0.287846189059282,-0.430426489662013
1580420520.96103,-0.889417868314641,-0.185793850614175,-0.436774242771039
1580420520.99339,-0.874280918593119,-0.206790264744029,-0.431891355764096
1580420521.02575,-0.850843060959793,-0.285404745555811,-0.359136339360647
1580420521.05812,-0.88355840390631,-0.198489356832226,-0.403570611123827
1580420521.09048,-0.890882734416724,-0.0886243991760125,-0.397222858014802
1580420521.12284,-0.833752956435493,-0.169680323491264,-0.327397573815519
1580420521.1552,-0.771740291447319,-0.266849774929428,-0.407965209430076
1580420521.18756,-0.781506065461205,-0.0197756923781185,-0.42212558175021
1580420521.21992,-0.823010605020219,-0.347905699244679,-0.299565117875945
1580420521.25241,-0.904554818036164,-0.433844510566873,-0.361577782864119
1580420521.28477,-0.922133211261158,-0.322026398107882,-0.294682230869002
1580420521.31713,-0.922621499961853,-0.168703746089875,-0.269779507133594
1580420521.3495,-0.902113374532693,-0.116456855115587,-0.373296711680782
1580420521.38186,-0.867444876783399,-0.271244373235676,-0.44605172808423
1580420521.41422,-0.827405203326467,-0.253665980010682,-0.412359807736324
1580420521.44658,-0.867933165484093,-0.0886243991760125,-0.290287632562753
1580420521.47895,-0.912855725947967,-0.283451590753033,-0.380621042191196
1580420521.51131,-0.970962081330587,-0.45630579079881,-0.297123674372473
1580420521.54367,-0.895765621423667,-0.414801251239796,-0.345952544441902
1580420521.57604,-0.88014038300145,-0.23315785458152,-0.499275196459907
1580420521.6084,-0.918226901655604,0.0349126420996413,-0.532967116807813
1580420521.64076,-0.925551232166018,-0.144777599755855,-0.420660715648127
1580420521.67312,-0.910414282444496,-0.46655985351339,-0.332280460822462
1580420521.70548,-0.92115663385977,-0.321049820706493,-0.418219272144656
1580420521.73785,-0.935317006179904,0.00415045395590141,-0.484138246738384
1580420521.77021,-0.884534981307699,-0.180422674906538,-0.406012054627299
1580420521.80257,-0.888441290913253,-0.34009308003357,-0.354741741054399
1580420521.83493,-0.864026855878539,-0.156496528572518,-0.388921950102999
1580420521.8673,-0.841565575646602,-0.167238879987792,-0.392828259708553
1580420521.89966,-0.89381246662089,-0.223392080567635,-0.353276874952316
1580420521.93202,-0.856702525368124,-0.136964980544747,-0.388921950102999
1580420521.96439,-0.892347600518807,-0.0476081483176927,-0.408941786831464
1580420521.99675,-0.879652094300756,-0.151125352864881,-0.389410238803693
1580420522.02911,-0.844007019150073,-0.213138017853055,-0.352788586251622
1580420522.06147,-0.884534981307699,-0.234622720683603,-0.376226443884947
1580420522.09383,-0.867444876783399,-0.344487678339819,-0.39819943541619
1580420522.1262,-0.855725947966736,-0.269779507133594,-0.416754406042573
1580420522.15856,-0.949477378500038,-0.223880369268329,-0.373296711680782
1580420522.19092,-1.07106126497291,-0.219485770962081,-0.306401159685665
1580420522.22328,-0.89723048752575,-0.0944838635843439,-0.222903791866941
1580420522.25565,-0.79127183947509,-0.275150682841231,-0.388433661402305
1580420522.28801,-0.775158312352179,-0.213626306553749,-0.579842832074464
1580420522.32037,-0.894300755321584,-0.0793469138628211,-0.323491264209965
1580420522.35273,-0.922621499961853,-0.193118181124589,-0.318608377203022
1580420522.3851,-0.911879148546578,-0.406988632028687,-0.303471427481499
1580420522.41746,-0.94850080109865,-0.424567025253682,-0.271244373235676
1580420522.44982,-0.933363851377127,-0.249759670405126,-0.279056992446785
1580420522.48218,-0.85621423666743,-0.146242465857938,-0.497810330357824
1580420522.51455,-0.869398031586176,-0.149660486762798,-0.467048142214084
1580420522.54703,-0.848401617456322,-0.0954604409857325,-0.45972381170367
1580420522.57939,-0.881605249103533,-0.291752498664836,-0.345952544441902
1580420522.61175,-0.908949416342413,-0.221927214465552,-0.403082322423133
1580420522.64411,-0.92115663385977,-0.153566796368352,-0.408941786831464
1580420522.67648,-0.845471885252156,-0.190188448920424,-0.430914778362707
1580420522.70884,-0.851819638361182,-0.224368657969023,-0.398687724116884
1580420522.7412,-0.839612420843824,-0.193118181124589,-0.409430075532159
1580420522.77356,-0.874769207293813,-0.144777599755855,-0.413824673838407
1580420522.80593,-0.914808880750744,-0.147219043259327,-0.419195849546044
1580420522.83829,-0.874769207293813,-0.189700160219729,-0.450934615091173
1580420522.87065,-0.875745784695201,-0.166262302586404,-0.441657129777981
1580420522.90301,-0.881116960402839,-0.186770428015564,-0.429938200961319
1580420522.93538,-0.939223315785458,-0.252201113908599,-0.385015640497445
1580420522.96774,-0.896742198825056,-0.313725490196079,-0.433844510566873
1580420523.0001,-0.874769207293813,-0.228274967574578,-0.423590447852293
1580420523.03246,-0.799084458686199,-0.284916456855116,-0.476325627527276
1580420523.06483,-0.906996261539636,-0.153078507667658,-0.41870756084535
1580420523.09719,-0.903578240634776,-0.251224536507211,-0.37427328908217
1580420523.12955,-0.830823224231327,-0.330815594720379,-0.35718318455787
1580420523.16191,-0.88697642481117,-0.266361486228734,-0.303471427481499
1580420523.19428,-0.877210650797284,-0.0646982528419926,-0.250247959105822
1580420523.22664,-0.884046692607004,-0.287357900358588,-0.362554360265507
1580420523.259,-0.835217822537576,-0.34009308003357,-0.325932707713436
1580420523.29136,-0.853284504463264,-0.201419089036392,-0.434332799267567
1580420523.32373,-0.925551232166018,-0.150148775463492,-0.418219272144656
1580420523.35609,-0.937758449683376,-0.176516365300984,-0.37427328908217
1580420523.38845,-0.849866483558404,-0.218020904859998,-0.371831845578699
1580420523.42081,-0.950942244602121,-0.245853360799572,-0.311284046692608
1580420523.45318,-0.779552910658428,-0.351323720149539,-0.508064393072404
1580420523.48554,-0.921644922560464,-0.305912870984971,-0.429938200961319
1580420523.5179,-0.981704432745861,-0.0627450980392155,-0.388921950102999
1580420523.55026,-0.960708018616007,-0.309819180590525,-0.344975967040513
1580420523.58263,-0.855237659266042,-0.366460669871062,-0.362066071564813
1580420523.61499,-0.819104295414665,-0.184817273212786,-0.428473334859236
1580420523.64735,-0.879652094300756,0.0769054703593497,-0.477790493629358
1580420523.67971,-0.898207064927139,-0.165774013885709,-0.335698481727322
1580420523.71208,-0.853772793163959,-0.439703974975204,-0.271732661936371
1580420523.74444,-0.879652094300756,-0.224368657969023,-0.352300297550928
1580420523.7768,-0.960708018616007,-0.0163576714732585,-0.406012054627299
1580420523.80916,-0.888441290913253,-0.264408331425956,-0.338628213931488
1580420523.84167,-0.83570611123827,-0.455817502098116,-0.318608377203022
1580420523.87404,-0.87672236209659,-0.296147096971085,-0.34351110093843
1580420523.9064,-0.974868390936141,0.0319829098954756,-0.343999389639125
1580420523.93876,-0.886488136110476,0.160891126878766,-0.36401922636759
1580420523.97113,-0.847913328755627,-0.179934386205844,-0.439703974975204
1580420524.00349,-0.893324177920196,-0.288334477759976,-0.278080415045396
1580420524.03585,-0.767833981841765,-0.489997711146716,-0.497810330357824
1580420524.06821,-0.956801709010453,-0.251224536507211,-0.302494850080111
1580420524.10058,-0.970473792629893,-0.310795757991913,-0.385015640497445
1580420524.13294,-1.00758373388266,-0.32642099641413,-0.385503929198139
1580420524.1653,-0.984634164950027,-0.120363164721141,-0.397222858014802
1580420524.19767,-0.888929579613947,-0.119386587319752,-0.418219272144656
1580420524.23003,-0.889906157015336,-0.208743419546806,-0.406500343327993
1580420524.26239,-0.896253910124361,-0.171633478294041,-0.317143511100939
1580420524.29476,-0.81519798580911,-0.300541695277333,-0.316655222400245
1580420524.32712,-0.880628671702144,0.0329594872968642,-0.310307469291219
1580420524.35948,-0.867444876783399,-0.283939879453728,-0.246341649500266
1580420524.39184,-0.802502479591059,-0.280033569848174,-0.302983138780805
1580420524.42421,-0.884534981307699,-0.0720225833524069,-0.386968795300222
1580420524.45657,-0.94166475928893,-0.073975738155184,-0.384039063096056
1580420524.48893,-0.935317006179904,-0.302983138780805,-0.375249866483559
1580420524.5213,-0.865491721980622,-0.389410238803693,-0.353276874952316
1580420524.55366,-0.883070115205616,-0.293705653467613,-0.400640878919662
1580420524.58602,-0.961196307316701,-0.0832532234683754,-0.469489585717556
1580420524.61838,-0.974380102235447,0.153078507667658,-0.621347371633478
1580420524.65075,-0.925062943465324,0.0173342488746471,-0.42212558175021
1580420524.68311,-0.962661173418784,-0.349858854047456,-0.208255130846112
1580420524.71547,-0.899183642328527,-0.428473334859236,-0.138918135347524
1580420524.74784,-0.844983596551462,-0.37427328908217,-0.231692988479438
1580420524.7802,-0.930434119172961,-0.206301976043335,-0.378179598687725
1580420524.81256,-0.987075608453498,-0.0334477759975584,-0.324467841611353
1580420524.84493,-0.804455634393836,-0.0744640268558783,-0.348393987945373
1580420524.87729,-0.894789044022279,-0.323979552910659,-0.523201342793927
1580420524.90965,-0.934340428778516,-0.247806515602349,-0.238040741588463
1580420524.94201,-0.949965667200733,-0.420660715648127,-0.326909285114825
1580420524.97438,-0.950942244602121,-0.276127260242619,-0.395269703212024
1580420525.00674,-0.899671931029221,0.0627450980392155,-0.419195849546044
1580420525.0391,-0.88014038300145,-0.099855039291981,-0.32983901731899
1580420525.07147,-0.833264667734799,-0.395757991912719,-0.288822766460671
1580420525.10383,-0.906996261539636,-0.208743419546806,-0.293705653467613
1580420525.13623,-0.923109788662547,-0.302983138780805,-0.276615548943314
1580420525.16859,-0.846448462653544,-0.234134431982909,-0.338628213931488
1580420525.20096,-0.849866483558404,-0.0534676127260241,-0.462165255207141
1580420525.23332,-0.918715190356298,-0.0622568093385212,-0.402105745021744
1580420525.26568,-0.965102616922255,-0.292240787365531,-0.401129167620356
1580420525.29804,-0.843518730449379,-0.392339971007859,-0.379156176089113
1580420525.33041,-0.859143968871596,-0.164309147783626,-0.434332799267567
1580420525.36277,-0.94850080109865,0.0729991607537954,-0.355230029755093
1580420525.39513,-0.885023270008393,-0.198977645532921,-0.339116502632182
1580420525.4275,-0.85621423666743,-0.349370565346762,-0.341069657434959
1580420525.45986,-0.862561989776456,-0.261966887922485,-0.239017318989852
1580420525.49222,-0.929457541771573,-0.0642099641412983,-0.331303883421073
1580420525.52459,-0.891371023117419,-0.0900892652780954,-0.352300297550928
1580420525.55695,-0.892347600518807,-0.291752498664836,-0.426520180056459
1580420525.58931,-0.921644922560464,-0.40503547722591,-0.192629892423895
1580420525.62167,-0.924086366063936,-0.276615548943314,-0.429938200961319
1580420525.65404,-0.950453955901427,0.0212405584802013,-0.373296711680782
1580420525.6864,-0.909925993743801,0.00854505226214997,-0.352300297550928
1580420525.71876,-0.902601663233387,-0.233646143282215,-0.358648050659953
1580420525.75113,-0.884534981307699,-0.513923857480735,-0.223392080567635
1580420525.78349,-0.905043106736859,-0.267338063630122,-0.312260624093996
1580420525.81585,-0.947524223697261,-0.244388494697489,-0.423102159151599
1580420525.84821,-0.958266575112535,-0.234134431982909,-0.222415503166246
1580420525.88058,-0.912367437247273,-0.295658808270391,-0.344975967040513
1580420525.91294,-0.933852140077821,-0.129152361333638,-0.368902113374533
1580420525.9453,-0.860608834973679,-0.180910963607232,-0.353276874952316
1580420525.97767,-0.906507972838941,-0.191653315022506,-0.352788586251622
1580420526.01003,-0.916273746852827,-0.251712825207905,-0.328374151216908
1580420526.04239,-0.872816052491036,-0.315190356298162,-0.322026398107882
1580420526.07475,-0.834241245136187,-0.122316319523918,-0.421149004348822
1580420526.10712,-0.905531395437553,-0.0319829098954756,-0.390875104905776
1580420526.13948,-0.95191882200351,-0.226321812771801,-0.329350728618296
1580420526.17184,-0.977309834439613,-0.282963302052339,-0.33325703822385
1580420526.20421,-0.882093537804227,-0.273197528038454,-0.359624628061342
1580420526.23657,-0.849866483558404,-0.301518272678722,-0.43237964446479
1580420526.26893,-0.950942244602121,-0.107179369802395,-0.426031891355764
1580420526.3013,-0.906507972838941,-0.0793469138628211,-0.397711146715496
1580420526.33366,-0.871351186388953,-0.0617685206378269,-0.309330891889831
1580420526.36602,-0.997817959868772,-0.254642557412071,-0.0734874494544897
1580420526.39838,-0.841565575646602,-0.331303883421073,-0.230228122377355
1580420526.43082,-0.759044785229268,-0.247806515602349,-0.469001297016861
1580420526.46318,-0.900160219729916,0.0104982070649271,-0.537850003814755
1580420526.49554,-0.974868390936141,0.139406424048218,-0.262943465323874
1580420526.52791,-0.906996261539636,-0.311284046692608,-0.160891126878766
1580420526.56027,-0.967544060425727,-0.755626764324408,-0.147219043259327
1580420526.59263,-0.891859311818113,-0.282475013351645,-0.300053406576639
1580420526.625,-0.933363851377127,0.212161440451666,-0.581307698176547
1580420526.65736,-0.925062943465324,-0.096437018387121,-0.36743724727245
1580420526.68972,-0.953383688105593,-0.559822995345998,-0.232669565880826
1580420526.72209,-0.888441290913253,-0.210208285648889,-0.311284046692608
1580420526.75445,-0.960219729915313,-0.048096437018387,-0.200930800335698
1580420526.78681,-0.925551232166018,-0.303471427481499,-0.208255130846112
1580420526.81918,-0.854261081864653,-0.198977645532921,-0.232181277180132
1580420526.85154,-0.805432211795225,-0.0256351567864499,-0.311284046692608
1580420526.8839,-0.841077286945907,0.0642099641412983,-0.315678644998856
1580420526.91627,-0.879652094300756,-0.0744640268558783,-0.256595712214848
1580420526.94863,-0.890882734416724,-0.242923628595406,-0.185305561913481
1580420526.98099,-1.00025940337224,-0.125734340428778,-0.122316319523918
1580420527.01336,-0.931898985275044,-0.116456855115587,-0.0769054703593497
1580420527.04572,-0.93141069657435,-0.0881361104753182,-0.0500495918211641
1580420527.07808,-0.974868390936141,0.23657587548638,-0.0842298008697639
1580420527.11045,-0.848401617456322,0.593026626993211,-0.210696574349583
1580420527.14281,-0.786877241168842,0.329839017318989,0.067139696345464
1580420527.17517,-0.85279621576257,0.131105516136415,0.118410009918364
1580420527.20754,-0.852307927061876,0.183840695811398,0.135011825741969
1580420527.2399,-0.82203402761883,0.345464255741206,0.213626306553749
1580420527.27226,-0.88014038300145,0.331792172121766,0.192141603723201
1580420527.30463,-0.988540474555581,0.4484931715877,0.123781185626001
1580420527.33699,-0.994399938963912,0.474860761425191,0.214114595254443
1580420527.36935,-1.11793698023957,0.409918364232851,0.199465934233615
1580420527.40172,-1.17848477912566,0.362554360265506,0.187258716716258
1580420527.43408,-1.02906843671321,0.345464255741206,0.222903791866941
1580420527.46645,-0.944594491493095,0.364019226367589,0.155031662470435
1580420527.49881,-0.93482871747921,0.509529259174489,0.044678416113527
1580420527.53117,-0.872327763790341,0.507087815671017,0.0764171816586554
1580420527.56354,-0.973403524834058,0.312748912794689,0.173098344396124
1580420527.5959,-1.12672617685206,0.0285648889906156,0.267826352330815
1580420527.62826,-1.2263370717937,0.272709239337757,0.0974135957885096
1580420527.66063,-1.22975509269856,0.31860837720302,0.00854505226214997
1580420527.69299,-1.16578927290761,0.28442816815442,0.0915541313801782
1580420527.72543,-1.10865949492637,0.2605020218204,0.044678416113527
1580420527.7578,-1.08863965819791,0.188723582818341,0.0861829556725411
1580420527.79016,-1.00221255817502,0.263431754024566,0.143801022354467
1580420527.82252,-0.901625085831999,0.296635385671777,0.137941557946135
1580420527.85489,-0.878675516899367,0.319096665903714,0.175051499198901
1580420527.88725,-0.867933165484093,0.3459525444419,0.196536202029449
1580420527.91961,-1.18287937743191,0.608163576714734,0.409918364232851
1580420527.95198,-0.470466163118944,0.306889448386357,-0.0593270771343555
1580420527.98434,-0.925062943465324,0.234622720683603,0.217532616159303
1580420528.0167,-0.882093537804227,0.443610284580757,0.281498435950255
1580420528.04907,-0.830334935530633,0.40405889982452,0.214114595254443
1580420528.08143,-0.889417868314641,0.420172426947431,0.218020904859998
1580420528.11379,-0.918715190356298,0.382574196993971,0.170656900892652
1580420528.14616,-0.914808880750744,0.3459525444419,0.209231708247501
1580420528.17852,-0.920668345159076,0.382085908293277,0.239017318989852
1580420528.21088,-0.896253910124361,0.350347142748149,0.156008239871824
1580420528.24325,-0.91773861295491,0.347905699244677,0.158937972075989
1580420528.27561,-0.902601663233387,0.38355077439536,0.169192034790569
1580420528.30797,-0.862073701075762,0.41089494163424,0.132570382238498
1580420528.34034,-0.928969253070878,0.299076829175249,0.149660486762798
1580420528.3727,-1.05152971694514,0.224368657969023,0.296147096971083
1580420528.40506,-0.882093537804227,0.222903791866941,0.302494850080109
1580420528.43743,-0.91773861295491,0.406500343327991,0.128175783932249
1580420528.46979,-0.874280918593119,0.431891355764094,0.101808194094758
1580420528.50215,-0.979751277943084,0.473884184023802,0.126710917830167
1580420528.53452,-0.942153047989624,0.144777599755855,0.197512779430838
1580420528.56688,-0.965102616922255,0.27417410543984,0.206790264744029
1580420528.59924,-0.908461127641718,0.323002975509269,0.180910963607232
1580420528.63161,-0.922621499961853,0.280521858548866,0.136476691844052
1580420528.66397,-0.953383688105593,0.26392004272526,0.124269474326695
1580420528.69633,-0.990005340657664,0.270267795834286,0.100343327992675
1580420528.7287,-0.963149462119478,0.298588540474555,0.116456855115587
1580420528.76106,-0.946059357595178,0.253177691309986,0.178957808804455
1580420528.79343,-0.935805294880598,0.209231708247501,0.235111009384298
1580420528.82579,-0.929457541771573,0.242435339894712,0.223392080567635
1580420528.85815,-0.916762035553521,0.277103837644006,0.144777599755855
1580420528.89052,-0.955825131609064,0.275638971541923,0.141359578850995
1580420528.92288,-0.955825131609064,0.235599298084992,0.121828030823224
1580420528.95524,-0.965102616922255,0.224856946669718,0.150148775463492
1580420528.98761,-0.95191882200351,0.193118181124589,0.117433432516975
1580420529.02002,-0.977309834439613,0.209231708247501,0.0988784618905925
1580420529.05238,-0.980727855344472,0.225833524071106,0.115968566414892
1580420529.08475,-0.977798123140307,0.214114595254443,0.119874876020447
1580420529.11711,-0.964126039520867,0.187258716716258,0.113527122911421
1580420529.14947,-0.981216144045167,0.168215457389181,0.134035248340581
1580420529.18184,-0.988540474555581,0.177004654001678,0.126710917830167
1580420529.2142,-0.968032349126421,0.199954222934309,0.130128938735027
1580420529.24657,-0.95875486381323,0.227298390173189,0.139894712748912
1580420529.27893,-0.961196307316701,0.196047913328755,0.147219043259327
1580420529.31129,-0.970962081330587,0.203860532539863,0.130128938735027
1580420529.34366,-0.970473792629893,0.204837109941252,0.131593804837109
1580420529.37602,-0.969985503929198,0.197024490730143,0.116456855115587
1580420529.40839,-0.967544060425727,0.210208285648889,0.119386587319752
1580420529.44075,-0.966079194323644,0.183352407110704,0.146730754558632
1580420529.47311,-0.967055771725033,0.170168612191958,0.161379415579461
1580420529.50548,-0.961684596017395,0.199465934233615,0.129152361333638
1580420529.53784,-0.961196307316701,0.202883955138475,0.154055085069047
1580420529.5702,-0.960219729915313,0.207278553444723,0.157961394674601
1580420529.60257,-0.96217288471809,0.202395666437781,0.135500114442664
1580420529.63493,-0.96217288471809,0.183840695811398,0.141847867551689
1580420529.6673,-0.973403524834058,0.174074921797512,0.147219043259327
1580420529.69966,-0.970473792629893,0.178469520103761,0.115968566414892
1580420529.73202,-0.976333257038224,0.191165026321812,0.11792172121767
1580420529.76439,-0.961684596017395,0.175539787899595,0.126710917830167
1580420529.79675,-0.974868390936141,0.160891126878766,0.125246051728084
1580420529.82912,-0.977309834439613,0.149660486762798,0.126710917830167
1580420529.86148,-0.983657587548638,0.149660486762798,0.106691081101701
1580420529.89384,-0.978774700541695,0.171145189593346,0.103273060196841
1580420529.92621,-0.978286411841001,0.132570382238498,0.0852063782711525
1580420529.95857,-0.993423361562524,0.148195620660715,0.0974135957885096
1580420529.99094,-0.97584496833753,0.151613641565575,0.0979018844892039
1580420530.0233,-0.977309834439613,0.136964980544747,0.120363164721141
1580420530.05566,-0.971938658731975,0.157473105973907,0.100343327992675
1580420530.08803,-0.974380102235447,0.178469520103761,0.0925307087815668
1580420530.12039,-0.981216144045167,0.143801022354467,0.101319905394064
1580420530.15276,-0.987563897154192,0.156496528572518,0.0695811398489354
1580420530.18512,-0.991470206759747,0.156008239871824,0.0280766002899213
1580420530.21748,-0.999282825970855,0.0983901731898982,0.041260395208667
1580420530.24985,-0.997817959868772,0.108155947203784,0.0393072404058898
1580420530.28221,-1.00563057907988,0.10766765850309,0.00610360875867855
1580420530.31464,-1.01149004348821,0.0754406042572668,0.0217288471808956
1580420530.347,-0.995864805065995,0.0983901731898982,0.0183108262760356
1580420530.37936,-1.00758373388266,0.11450370031281,0.0451667048142212
1580420530.41173,-0.977309834439613,0.139406424048218,0.0505378805218584
1580420530.44409,-0.987563897154192,0.146730754558632,0.0813000686655982
1580420530.47645,-0.983657587548638,0.138918135347524,0.0764171816586554
1580420530.50882,-0.981704432745861,0.132570382238498,0.0920424200808725
1580420530.54118,-0.997329671168078,0.106202792401007,0.0861829556725411
1580420530.57355,-0.984634164950027,0.118410009918364,0.096437018387121
1580420530.60591,-0.989028763256275,0.123292896925307,0.102296482795452
1580420530.63827,-1.00611886778058,0.109620813305867,0.0495613031204698
1580420530.67064,-0.997817959868772,0.110109102006561,0.0451667048142212
1580420530.703,-0.990005340657664,0.109620813305867,0.0793469138628211
1580420530.73537,-0.98951705195697,0.0876478217746239,0.103761348897535
1580420530.76773,-0.97926298924239,0.159914549477378,0.0920424200808725
1580420530.80009,-0.955825131609064,0.218509193560692,0.133058670939192
1580420530.83246,-0.933852140077821,0.171145189593346,0.191653315022506
1580420530.86482,-0.92799267566949,0.268802929732203,0.176028076600289
1580420530.89719,-0.957778286411841,0.325932707713434,0.156008239871824
1580420530.92955,-0.955825131609064,0.195559624628061,0.177492942702372
1580420530.96191,-0.950453955901427,0.198001068131532,0.141359578850995
1580420530.99428,-0.977309834439613,0.250736247806515,0.156496528572518
1580420531.02664,-0.980727855344472,0.177004654001678,0.141359578850995
1580420531.05901,-0.95533684290837,0.226810101472495,0.0993667505912867
1580420531.09137,-0.958266575112535,0.247318226901655,0.160402838178072
1580420531.12373,-0.963149462119478,0.161379415579461,0.168703746089875
1580420531.1561,-0.937758449683376,0.222903791866941,0.179446097505149
1580420531.18846,-0.955825131609064,0.315678644998854,0.152590218966964
1580420531.22082,-0.979751277943084,0.245853360799572,0.0974135957885096
1580420531.25319,-1.03346303501946,0.261478599221789,0.0632333867399097
1580420531.28555,-0.949477378500038,0.385503929198137,0.0397955291065841
1580420531.31792,-0.894789044022279,0.442145418478674,0.161379415579461
1580420531.35028,-0.883070115205616,0.212649729152361,0.284916456855115
1580420531.38264,-0.827405203326467,0.225345235370412,0.307377737087052
1580420531.41501,-0.82887006942855,0.401617456321048,0.295170519569695
1580420531.44737,-0.767833981841765,0.43482108796826,0.151125352864881
1580420531.47974,-0.87672236209659,0.381597619592583,0.222903791866941
1580420531.5121,-1.04469367513542,0.163820859082932,0.320561532005797
1580420531.54446,-0.881116960402839,0.238529030289158,0.232181277180132
1580420531.57683,-0.995376516365301,0.462653543907834,-0.182864118410009
1580420531.60913,-0.894789044022279,0.498786907759211,0.0656748302433812
1580420531.64149,-0.979751277943084,0.11792172121767,0.209231708247501
1580420531.67386,-0.960219729915313,0.108155947203784,0.151125352864881
1580420531.70622,-0.961684596017395,0.294682230869,0.141359578850995
1580420531.73858,-0.960219729915313,0.425055313954374,0.128664072632944
1580420531.77095,-0.963637750820173,0.341557946135651,0.130617227435721
1580420531.80331,-0.935805294880598,0.202395666437781,0.0788586251621268
1580420531.83567,-0.978286411841001,0.240482185091935,0.137941557946135
1580420531.86804,-0.991958495460441,0.218509193560692,0.073975738155184
1580420531.9004,-0.965102616922255,0.282475013351643,0.121828030823224
1580420531.93277,-0.951430533302815,0.239505607690546,0.181887541008621
1580420531.96513,-0.935805294880598,0.227786678873883,0.192629892423895
1580420531.99749,-0.930434119172961,0.286381322957197,0.208743419546806
1580420532.02986,-0.931898985275044,0.300541695277332,0.179934386205844
1580420532.06222,-0.941176470588236,0.27075608453498,0.175539787899595
1580420532.09458,-0.949477378500038,0.241947051194018,0.174074921797512
1580420532.12695,-0.942641336690318,0.234134431982909,0.165285725185015
1580420532.15931,-0.974380102235447,0.218509193560692,0.161379415579461
1580420532.19167,-0.981216144045167,0.159914549477378,0.124269474326695
1580420532.22404,-1.01002517738613,0.243900205996795,0.100343327992675
1580420532.2564,-0.925551232166018,0.242923628595406,0.177492942702372
1580420532.28876,-0.923109788662547,0.23657587548638,0.254154268711375
1580420532.32113,-0.921644922560464,0.244388494697489,0.254154268711375
1580420532.35349,-0.928480964370184,0.262455176623178,0.211184863050278
1580420532.38585,-0.930434119172961,0.26392004272526,0.223880369268329
1580420532.41822,-0.95191882200351,0.235599298084992,0.260990310521095
1580420532.45058,-0.944594491493095,0.231204699778743,0.269779507133592
1580420532.48294,-0.945571068894484,0.197512779430838,0.254154268711375
1580420532.51531,-0.95533684290837,0.212161440451666,0.202395666437781
1580420532.54767,-0.966567483024338,0.212161440451666,0.209719996948195
1580420532.58003,-0.967544060425727,0.183352407110704,0.147219043259327
1580420532.6124,-0.973891813534753,0.156984817273212,0.100343327992675
1580420532.64476,-0.980727855344472,0.135988403143358,0.145754177157244
1580420532.67712,-0.980239566643778,0.122804608224612,0.118410009918364
1580420532.70949,-0.973403524834058,0.149172198062104,0.138918135347524
1580420532.74185,-0.968032349126421,0.125734340428778,0.184817273212786
1580420532.77421,-0.95533684290837,0.150637064164187,0.160891126878766
1580420532.80658,-0.989028763256275,0.123292896925307,0.139894712748912
1580420532.83894,-0.984634164950027,0.0969253070878153,0.128664072632944
1580420532.8713,-0.976821545738918,0.137453269245441,0.127199206530861
1580420532.90375,-0.978774700541695,0.119874876020447,0.142336156252384
1580420532.93611,-0.970962081330587,0.143312733653772,0.141359578850995
1580420532.96847,-0.984634164950027,0.103761348897535,0.137941557946135
1580420533.00084,-0.976821545738918,0.173098344396124,0.129152361333638
1580420533.0332,-0.961196307316701,0.154543373769741,0.144289311055161
1580420533.06556,-0.983169298847944,0.116456855115587,0.157961394674601
1580420533.09793,-0.998794537270161,0.077393759060044,0.0720225833524069
1580420533.13029,-1.00514229037919,0.063721675440604,0.10083161669337
1580420533.16265,-0.973403524834058,0.096437018387121,0.146242465857938
1580420533.19502,-0.991958495460441,0.0881361104753182,0.106691081101701
1580420533.22738,-0.98268101014725,0.127199206530861,0.134035248340581
1580420533.25974,-0.968032349126421,0.133546959639887,0.133058670939192
1580420533.29211,-0.977309834439613,0.113527122911421,0.113527122911421
1580420533.32447,-0.977309834439613,0.0842298008697639,0.0559090562294955
1580420533.35683,-1.00318913557641,0.0842298008697639,0.0666514076447697
1580420533.3892,-1.00611886778058,0.0754406042572668,0.0490730144197755
1580420533.42156,-0.991470206759747,0.123292896925307,0.0563973449301898
1580420533.45392,-0.997329671168078,0.0935072861829553,0.0642099641412983
1580420533.48629,-0.989028763256275,0.0905775539787896,0.0915541313801782
1580420533.51865,-0.987563897154192,0.0905775539787896,0.101319905394064
1580420533.55101,-0.980239566643778,0.11792172121767,0.118898298619058
1580420533.58338,-0.973891813534753,0.106691081101701,0.135500114442664
1580420533.61574,-0.97926298924239,0.077393759060044,0.138429846646829
1580420533.64811,-0.977798123140307,0.0856946669718468,0.129152361333638
1580420533.68047,-0.983169298847944,0.102296482795452,0.0939955748836496
1580420533.71283,-0.990493629358358,0.114015411612115,0.0866712443732354
1580420533.7452,-0.988540474555581,0.101319905394064,0.0544441901274126
1580420533.77756,-0.996841382467384,0.125734340428778,0.0734874494544897
1580420533.80992,-0.990493629358358,0.10766765850309,0.120363164721141
1580420533.84229,-0.98951705195697,0.105714503700312,0.119386587319752
1580420533.87465,-0.985610742351415,0.114015411612115,0.112550545510032
1580420533.90701,-1.03199816891737,0.0466315709163041,0.0783703364614325
1580420533.93938,-1.03541618982223,0.0114747844663157,0.0183108262760356
1580420533.97174,-1.0295567254139,0.0905775539787896,0.105714503700312
1580420534.0041,-0.976333257038224,0.133546959639887,0.160891126878766
1580420534.03647,-0.938735027084764,0.223392080567635,0.112062256809338
1580420534.06883,-0.949477378500038,0.188235294117646,0.160402838178072
1580420534.10119,-0.954848554207675,0.119874876020447,0.202883955138475
1580420534.13356,-0.968032349126421,0.236087586785686,0.176028076600289
1580420534.16592,-0.964126039520867,0.176516365300984,0.186282139314869
1580420534.19836,-0.972915236133364,0.121828030823224,0.205813687342641
1580420534.23073,-0.957778286411841,0.23999389639124,0.127687495231555
1580420534.26309,-0.950942244602121,0.167238879987792,0.157961394674601
1580420534.29546,-0.953383688105593,0.146242465857938,0.209719996948195
1580420534.32782,-0.941176470588236,0.196047913328755,0.161379415579461
1580420534.36018,-0.930922407873656,0.0725108720531011,0.162844281681544
1580420534.39255,-1.01588464179446,0.364507515068283,0.300541695277332
1580420534.42491,-0.928480964370184,0.281986724650949,0.150148775463492
1580420534.45727,-0.962661173418784,0.309330891889829,0.219974059662775
1580420534.48964,-0.962661173418784,0.162844281681544,0.167727168688486
1580420534.522,-0.977798123140307,0.178469520103761,0.119874876020447
1580420534.55437,-0.976333257038224,0.237064164187075,0.167238879987792
1580420534.58673,-0.966079194323644,0.130617227435721,0.131105516136415
1580420534.61909,-0.98951705195697,0.0905775539787896,0.167238879987792
1580420534.65146,-0.967055771725033,0.161379415579461,0.150637064164187
1580420534.68382,-0.959731441214618,0.209231708247501,0.103273060196841
1580420534.71619,-0.990493629358358,0.114991989013504,0.0842298008697639
1580420534.74855,-0.99977111467155,0.117433432516975,0.128175783932249
1580420534.78091,-0.988052185854887,0.123292896925307,0.125734340428778
1580420534.81328,-0.987075608453498,0.168703746089875,0.119386587319752
1580420534.84564,-0.971938658731975,0.165285725185015,0.152101930266269
1580420534.87801,-0.979751277943084,0.116945143816281,0.127687495231555
1580420534.91037,-0.976821545738918,0.164797436484321,0.102296482795452
1580420534.94273,-0.965102616922255,0.212649729152361,0.138429846646829
1580420534.9751,-0.978774700541695,0.11792172121767,0.113527122911421
1580420535.00746,-1.01100175478752,0.0632333867399097,0.131593804837109
1580420535.03982,-0.995864805065995,0.115480277714198,0.0700694285496297
1580420535.07219,-0.970962081330587,0.10083161669337,0.153566796368352
1580420535.10455,-0.960219729915313,0.102784771496147,0.189700160219729
1580420535.13692,-0.95191882200351,0.126710917830167,0.206790264744029
1580420535.16928,-0.982192721446555,0.129152361333638,0.147219043259327
1580420535.20164,-0.976821545738918,0.0222171358815899,0.200930800335698
1580420535.23401,-1.01197833218891,-0.0554207675288012,0.133058670939192
1580420535.26637,-1.00318913557641,0.0676279850461583,0.0388189517051956
1580420535.29874,-1.02174410620279,0.0417486839093613,0.0612802319371326
1580420535.3311,-0.972915236133364,0.0734874494544897,0.149172198062104
1580420535.36346,-0.953383688105593,0.0896009765774011,0.266849774929426
1580420535.39583,-0.948989089799344,0.177492942702372,0.169680323491264
1580420535.42819,-0.988540474555581,0.0993667505912867,0.128664072632944
1580420535.46056,-0.98268101014725,0.048096437018387,0.0681162737468526
1580420535.49289,-1.01734950789654,0.067139696345464,0.0388189517051956
1580420535.52525,-1.01100175478752,0.0290531776913099,0.0266117341878385
1580420535.55762,-1.00709544518196,0.0104982070649271,0.0861829556725411
1580420535.58998,-0.982192721446555,0.0783703364614325,0.133058670939192
1580420535.62234,-0.987563897154192,0.0783703364614325,0.138429846646829
1580420535.65471,-0.980727855344472,0.0607919432364383,0.209719996948195
1580420535.68707,-0.902113374532693,0.207278553444723,0.260990310521095
1580420535.71943,-0.974380102235447,0.11450370031281,0.174563210498206
1580420535.7518,-1.01051346608682,0.10083161669337,0.102784771496147
1580420535.78416,-0.989028763256275,0.115968566414892,0.0573739223315783
1580420535.81652,-1.01930266269932,0.0231937132829785,0.0725108720531011
1580420535.84889,-0.993911650263218,0.0568856336308841,0.0754406042572668
1580420535.88125,-0.996841382467384,0.0280766002899213,0.194583047226672
1580420535.91361,-0.974868390936141,0.110109102006561,0.220462348363469
1580420535.94598,-0.981216144045167,0.0910658426794839,0.183352407110704
1580420535.97834,-0.977798123140307,0.0510261692225527,0.130128938735027
1580420536.0107,-0.959731441214618,0.12475776302739,0.144777599755855
1580420536.04307,-0.950453955901427,0.0817883573662925,0.202395666437781
1580420536.07543,-0.96900892652781,0.0754406042572668,0.169680323491264
1580420536.10779,-0.989028763256275,0.0803234912642097,0.200930800335698
1580420536.14016,-0.972915236133364,0.120363164721141,0.175539787899595
1580420536.17252,-0.973891813534753,0.0646982528419926,0.144777599755855
1580420536.20488,-0.979751277943084,0.0393072404058898,0.155519951171129
1580420536.23725,-1.01490806439307,0.10083161669337,0.0632333867399097
1580420536.26961,-1.00611886778058,0.0520027466239412,0.106202792401007
1580420536.30197,-0.994399938963912,0.000732433051041426,0.156008239871824
1580420536.33434,-0.989028763256275,0.0554207675288012,0.146730754558632
1580420536.3667,-0.964126039520867,0.0979018844892039,0.156984817273212
1580420536.39907,-0.959731441214618,0.0524910353246355,0.219485770962081
1580420536.43143,-0.96900892652781,0.0417486839093613,0.225833524071106
1580420536.46379,-0.95533684290837,0.230228122377355,0.0910658426794839
1580420536.49616,-0.988052185854887,0.166750591287098,0.159426260776684
1580420536.52852,-1.03053330281529,-0.0402838178072784,0.153078507667658
1580420536.56088,-1.0036774242771,0.0534676127260241,0.0788586251621268
1580420536.59325,-1.01344319829099,0.176028076600289,0.0852063782711525
1580420536.62561,-0.991958495460441,0.106691081101701,0.143801022354467
1580420536.65797,-0.955825131609064,0.101808194094758,0.23999389639124
1580420536.69034,-0.980239566643778,0.177981231403066,0.199465934233615
1580420536.7227,-0.988052185854887,0.209719996948195,0.162355992980849
1580420536.75506,-0.963637750820173,0.0900892652780954,0.127199206530861
1580420536.78751,-0.99977111467155,-0.000732433051041426,0.140383001449607
1580420536.81987,-1.01979095140002,0.0920424200808725,0.147219043259327
1580420536.85223,-0.948012512397955,0.165285725185015,0.164797436484321
1580420536.8846,-0.966567483024338,0.116456855115587,0.24682993820096
1580420536.91696,-0.91773861295491,0.182864118410009,0.244876783398183
1580420536.94932,-0.947524223697261,0.0759288929579611,0.0905775539787896
1580420536.98169,-0.964126039520867,0.11450370031281,0.170656900892652
1580420537.01405,-0.957778286411841,0.0930189974822611,0.155031662470435
1580420537.04641,-0.989028763256275,0.0422369726100555,0.157473105973907
1580420537.07878,-0.993911650263218,0.0549324788281069,0.144289311055161
1580420537.11114,-0.947524223697261,0.234622720683603,0.147219043259327
1580420537.1435,-0.949965667200733,0.187258716716258,0.207766842145418
1580420537.17587,-0.990981918059052,0.0046387426565957,0.180910963607232
1580420537.20823,-0.997817959868772,0.0109864957656214,0.155519951171129
1580420537.24059,-0.983169298847944,0.0559090562294955,0.179446097505149
1580420537.27296,-0.99635309376669,0.0295414663920042,0.179934386205844
1580420537.30532,-0.95533684290837,0.112062256809338,0.160402838178072
1580420537.33768,-0.948989089799344,0.108155947203784,0.246341649500266
1580420537.37005,-0.970962081330587,0.0905775539787896,0.231692988479438
1580420537.40241,-0.971450370031281,0.125734340428778,0.194094758525978
1580420537.43477,-1.01393148699168,0.0144045166704814,0.181399252307926
1580420537.46714,-0.974380102235447,0.0734874494544897,0.146730754558632
1580420537.4995,-0.95533684290837,0.0510261692225527,0.207766842145418
1580420537.53186,-0.950453955901427,0.0461432822156098,0.200442511635003
1580420537.56423,-0.956801709010453,0.154543373769741,0.237552452887769
1580420537.59659,-0.97584496833753,0.125246051728084,0.177492942702372
1580420537.62895,-0.995864805065995,0.0729991607537954,0.176028076600289
1580420537.66132,-1.01002517738613,0.0515144579232469,0.176028076600289
1580420537.69368,-1.01002517738613,-0.0422369726100555,0.0827649347676811
1580420537.72604,-1.04811169604028,-0.0314946211947813,-0.0104982070649271
1580420537.75841,-1.02760357061112,0.0876478217746239,0.0656748302433812
1580420537.79077,-0.988052185854887,0.0300297550926985,0.178957808804455
1580420537.82313,-0.922621499961853,0.167238879987792,0.227786678873883
1580420537.8555,-0.928480964370184,0.144289311055161,0.23657587548638
1580420537.88786,-0.940199893186847,0.151125352864881,0.189700160219729
1580420537.92022,-0.977309834439613,0.177004654001678,0.147219043259327
1580420537.95259,-1.00318913557641,0.155031662470435,0.0993667505912867
1580420537.98495,-0.995864805065995,0.0441901274128327,0.0920424200808725
1580420538.01731,-1.03981078812848,-0.0607919432364383,0.0617685206378269
1580420538.04968,-0.979751277943084,0.168703746089875,0.196047913328755
1580420538.08206,-0.939711604486153,0.0534676127260241,0.332768749523154
1580420538.11442,-0.966079194323644,0.122316319523918,0.343022812237734
1580420538.14679,-0.928480964370184,0.206301976043335,0.152590218966964
1580420538.17915,-0.958266575112535,0.150637064164187,0.110109102006561
1580420538.21151,-0.968032349126421,0.178957808804455,0.147219043259327
1580420538.24388,-1.00514229037919,0.0720225833524069,0.177004654001678
1580420538.27624,-0.984634164950027,0.00903334096284425,0.180910963607232
1580420538.3086,-0.984145876249332,0.166262302586404,0.101319905394064
1580420538.34097,-1.01832608529793,0.0646982528419926,0.169192034790569
1580420538.37333,-0.993423361562524,0.024170290684367,0.192141603723201
1580420538.4057,-0.966079194323644,0.0778820477607383,0.196536202029449
1580420538.43806,-0.943617914091707,0.103761348897535,0.188235294117646
1580420538.47042,-0.94166475928893,0.0944838635843439,0.285404745555809
1580420538.50279,-0.966567483024338,0.118898298619058,0.235599298084992
1580420538.53515,-1.01881437399863,0.0666514076447697,0.144289311055161
1580420538.56751,-1.00270084687572,0.0798352025635154,0.194583047226672
1580420538.59988,-0.964126039520867,0.0695811398489354,0.253177691309986
1580420538.63224,-0.955825131609064,0.0720225833524069,0.223880369268329
1580420538.6646,-0.950942244602121,0.0690928511482412,0.28784618905928
1580420538.69697,-0.949965667200733,0.11792172121767,0.269291218432897
1580420538.72933,-0.942153047989624,0.174074921797512,0.247318226901655
1580420538.76169,-0.974380102235447,0.204348821240558,0.185793850614175
1580420538.79406,-0.966079194323644,0.105714503700312,0.207766842145418
1580420538.82642,-0.963149462119478,0.110109102006561,0.161379415579461
1580420538.85878,-0.953383688105593,0.116945143816281,0.151125352864881
1580420538.89115,-0.978774700541695,0.0856946669718468,0.201419089036392
1580420538.92351,-1.01344319829099,-0.0305180437933927,0.186770428015564
1580420538.95587,-1.00172426947433,0.0827649347676811,0.144289311055161
1580420538.98824,-0.962661173418784,0.116945143816281,0.147707331960021
1580420539.0206,-0.99977111467155,-0.0339360646982527,0.185793850614175
1580420539.05296,-1.01393148699168,-0.0402838178072784,0.146730754558632
1580420539.08533,-0.983657587548638,0.162355992980849,0.101319905394064
1580420539.11769,-0.984145876249332,0.106691081101701,0.181887541008621
1580420539.15005,-0.995376516365301,-0.0104982070649271,0.261966887922483
1580420539.18242,-0.919691767757687,0.174074921797512,0.28101014724956
1580420539.21478,-0.96900892652781,0.0207522697795071,0.258060578316929
1580420539.24714,-1.02467383840696,0.0559090562294955,0.227298390173189
1580420539.27951,-0.96900892652781,0.248294804303043,0.150148775463492
1580420539.31187,-1.0378576333257,-0.00512703135728998,0.192629892423895
1580420539.34423,-0.976821545738918,-0.00317387655451284,0.135988403143358
1580420539.37665,-0.95191882200351,0.169192034790569,0.148195620660715
1580420539.40901,-1.01100175478752,0.0798352025635154,0.134523537041275
1580420539.44137,-0.971938658731975,0.070557717250324,0.179934386205844
1580420539.47374,-0.97242694743267,0.0720225833524069,0.180422674906538
1580420539.5061,-0.985610742351415,0.00708018616006711,0.237064164187075
1580420539.53847,-0.987075608453498,0.0305180437933927,0.171633478294041
1580420539.57083,-0.949477378500038,0.175051499198901,0.235111009384298
1580420539.60319,-0.939711604486153,0.0969253070878153,0.247806515602349
1580420539.63556,-0.990493629358358,0.0227054245822842,0.252201113908598
1580420539.66792,-0.988052185854887,0.0900892652780954,0.223392080567635
1580420539.70028,-0.94850080109865,0.116945143816281,0.175539787899595
1580420539.73265,-0.974868390936141,0.160402838178072,0.261478599221789
1580420539.76501,-0.93482871747921,0.137941557946135,0.334721904325932
1580420539.79737,-0.961684596017395,0.135988403143358,0.276615548943312
1580420539.82974,-0.950942244602121,0.212649729152361,0.212649729152361
1580420539.8621,-0.967544060425727,0.159426260776684,0.221927214465552
1580420539.89446,-0.96900892652781,0.0817883573662925,0.201419089036392
1580420539.92683,-0.97584496833753,0.0896009765774011,0.150148775463492
1580420539.95919,-0.969985503929198,0.0905775539787896,0.120363164721141
1580420539.99155,-0.983657587548638,0.0612802319371326,0.176028076600289
1580420540.02392,-0.949965667200733,0.0798352025635154,0.23657587548638
1580420540.05628,-0.98268101014725,0.0588387884336612,0.221927214465552
1580420540.08864,-0.997329671168078,0.0666514076447697,0.172610055695429
1580420540.12101,-0.971938658731975,0.0939955748836496,0.160891126878766
1580420540.15337,-0.96900892652781,0.0832532234683754,0.202395666437781
1580420540.18573,-0.986587319752804,0.0236820019836728,0.190188448920424
1580420540.2181,-0.959243152513924,0.161379415579461,0.172121766994735
1580420540.25046,-0.971450370031281,0.156496528572518,0.318120088502326
1580420540.28282,-0.959731441214618,0.0607919432364383,0.224856946669718
1580420540.31519,-0.952895399404898,0.218997482261386,0.218997482261386
1580420540.34755,-0.99635309376669,0.037842374303807,0.205325398641946
1580420540.37991,-0.986587319752804,0.00122072175173571,0.187258716716258
1580420540.41228,-0.970962081330587,0.195559624628061,0.146242465857938
1580420540.44464,-1.00074769207294,-0.0778820477607383,0.214114595254443
1580420540.477,-0.980727855344472,0.0393072404058898,0.0959487296864268
1580420540.50937,-0.99977111467155,0.239505607690546,0.127687495231555
1580420540.54173,-1.00025940337224,-0.063721675440604,0.285404745555809
1580420540.57409,-0.964614328221561,-0.0354009308003356,0.145754177157244
1580420540.60646,-0.99977111467155,0.108644235904478,0.149172198062104
1580420540.63882,-1.01149004348821,0.0222171358815899,0.252201113908598
1580420540.67123,-0.95875486381323,0.110597390707255,0.122316319523918
1580420540.7036,-0.963637750820173,0.255619134813458,0.11450370031281
1580420540.73596,-0.977798123140307,0.0729991607537954,0.216556038757915
1580420540.76832,-1.00856031128405,0.00561532005798426,0.154055085069047
1580420540.80069,-0.978286411841001,0.147707331960021,0.0896009765774011
1580420540.83305,-0.993911650263218,0.144289311055161,0.125734340428778
1580420540.86541,-0.956801709010453,0.0612802319371326,0.163332570382238
1580420540.89778,-0.990493629358358,0.0725108720531011,0.164797436484321
1580420540.93014,-0.999282825970855,0.0427252613107498,0.180422674906538
1580420540.9625,-0.978774700541695,0.0861829556725411,0.196536202029449
1580420540.99487,-0.944106202792401,0.241458762493323,0.264408331425955
1580420541.02723,-0.947035934996567,0.165285725185015,0.219974059662775
1580420541.05959,-0.943617914091707,0.116945143816281,0.223880369268329
1580420541.09196,-0.948012512397955,0.141847867551689,0.317631799801632
1580420541.12432,-0.964614328221561,0.0896009765774011,0.293217364766917
1580420541.15668,-0.960219729915313,0.105226214999618,0.237064164187075
1580420541.18905,-0.957778286411841,0.0622568093385212,0.204348821240558
1580420541.22141,-0.971450370031281,0.0607919432364383,0.198489356832226
1580420541.25377,-0.969497215228504,0.0642099641412983,0.186282139314869
1580420541.28614,-0.983657587548638,0.060303654535744,0.158937972075989
1580420541.3185,-0.987075608453498,0.0524910353246355,0.160891126878766
1580420541.35086,-1.0041657129778,0.0183108262760356,0.128175783932249
1580420541.38323,-1.00318913557641,0.0231937132829785,0.177004654001678
1580420541.41559,-0.97242694743267,0.0676279850461583,0.175539787899595
1580420541.44796,-0.972915236133364,0.0646982528419926,0.215579461356526
1580420541.48032,-0.961196307316701,0.0656748302433812,0.246341649500266
1580420541.51268,-0.99293507286183,0.00317387655451284,0.205325398641946
1580420541.54505,-0.990005340657664,0.0749523155565726,0.178469520103761
1580420541.57741,-0.93824673838407,0.178469520103761,0.138918135347524
1580420541.60977,-0.986587319752804,0.0476081483176927,0.171633478294041
1580420541.64214,-1.01100175478752,-0.0197756923781185,0.206790264744029
1580420541.6745,-0.961684596017395,0.119386587319752,0.188723582818341
1580420541.70686,-1.00709544518196,0.0354009308003356,0.192141603723201
1580420541.73923,-1.03590447852293,-0.0588387884336612,0.0944838635843439
1580420541.77159,-0.977309834439613,0.0559090562294955,0.0456549935149155
1580420541.80395,-1.0124666208896,0.0173342488746471,0.123292896925307
1580420541.83632,-0.971938658731975,-0.0266117341878385,0.166750591287098
1580420541.86868,-1.01344319829099,-0.00659189745937283,0.157961394674601
1580420541.90104,-0.97584496833753,-0.0266117341878385,0.174074921797512
1580420541.93341,-0.971938658731975,0.103273060196841,0.141359578850995
1580420541.96582,-0.983169298847944,0.0563973449301898,0.146730754558632
1580420541.99818,-0.954360265506981,0.107179369802395,0.123781185626001
1580420542.03055,-0.990981918059052,0.103273060196841,0.173586633096818
1580420542.06291,-0.963149462119478,0.0759288929579611,0.228763256275272
1580420542.09527,-0.945571068894484,0.183352407110704,0.281986724650949
1580420542.12764,-0.963637750820173,0.108155947203784,0.261478599221789
1580420542.16,-0.997329671168078,0.0290531776913099,0.213626306553749
1580420542.19236,-0.96217288471809,0.0827649347676811,0.230228122377355
1580420542.22473,-0.98268101014725,0.0598153658350498,0.173586633096818
1580420542.25709,-1.00856031128405,0.132082093537804,0.0944838635843439
1580420542.28945,-0.990005340657664,0.167238879987792,0.0925307087815668
1580420542.32182,-0.990005340657664,0.102296482795452,0.150637064164187
1580420542.35418,-0.955825131609064,0.070557717250324,0.207766842145418
1580420542.38654,-0.968520637827115,0.0695811398489354,0.226321812771801
1580420542.41891,-0.984634164950027,0.0935072861829553,0.175051499198901
1580420542.45127,-0.978774700541695,0.0803234912642097,0.173586633096818
1580420542.48363,-0.996841382467384,0.135011825741969,0.116945143816281
1580420542.516,-1.00758373388266,0.0988784618905925,0.0886243991760125
1580420542.54836,-1.01197833218891,-0.0187991149767299,0.151613641565575
1580420542.58072,-0.955825131609064,0.0280766002899213,0.221927214465552
1580420542.61309,-0.941176470588236,0.106691081101701,0.298588540474555
1580420542.64545,-0.95533684290837,0.0158693827725642,0.26733806363012
1580420542.67781,-0.983657587548638,0.171145189593346,0.232181277180132
1580420542.71018,-0.947524223697261,0.156496528572518,0.209719996948195
1580420542.74254,-0.963149462119478,0.0222171358815899,0.272220950637063
1580420542.7749,-0.957289997711147,0.0910658426794839,0.239505607690546
1580420542.80727,-0.946059357595178,0.208255130846112,0.226321812771801
1580420542.83963,-0.952895399404898,0.117433432516975,0.239017318989852
1580420542.872,-0.949965667200733,0.105714503700312,0.262455176623178
1580420542.90436,-0.960219729915313,0.128664072632944,0.233646143282215
1580420542.93672,-0.964126039520867,0.159914549477378,0.23315785458152
1580420542.96909,-0.954360265506981,0.0832532234683754,0.280521858548866
1580420543.00145,-0.929457541771573,0.135011825741969,0.244388494697489
1580420543.03381,-0.95191882200351,0.124269474326695,0.256595712214846
1580420543.06618,-0.962661173418784,0.0944838635843439,0.267826352330815
1580420543.09854,-0.990981918059052,0.0563973449301898,0.280521858548866
1580420543.1309,-1.00221255817502,0.0427252613107498,0.256107423514152
1580420543.16327,-0.988052185854887,0.163332570382238,0.167238879987792
1580420543.19563,-1.00953688868544,-0.0578622110322726,0.164309147783626
1580420543.22799,-0.966567483024338,0.0754406042572668,0.118898298619058
1580420543.26034,-0.98951705195697,0.0910658426794839,0.200442511635003
1580420543.29271,-0.994399938963912,-0.0236820019836728,0.170168612191958
1580420543.32507,-0.976821545738918,0.11450370031281,0.145754177157244
1580420543.35743,-0.98951705195697,0.121828030823224,0.199465934233615
1580420543.3898,-0.973891813534753,-0.0163576714732585,0.201419089036392
1580420543.42216,-0.966079194323644,0.0817883573662925,0.242435339894712
1580420543.45453,-0.935317006179904,0.134035248340581,0.261478599221789
1580420543.48689,-0.949477378500038,0.0666514076447697,0.149172198062104
1580420543.51925,-1.00660715648127,0.118410009918364,0.11792172121767
1580420543.55162,-1.01539635309377,-0.0612802319371326,0.0700694285496297
1580420543.58398,-1.00123598077363,0.0280766002899213,-0.00122072175173571
1580420543.61634,-0.983657587548638,0.158937972075989,0.0559090562294955
1580420543.64871,-1.00172426947433,-0.0266117341878385,0.173098344396124
1580420543.68107,-0.986587319752804,0.0598153658350498,0.112550545510032
1580420543.71343,-1.00709544518196,0.149172198062104,0.0471198596169984
1580420543.7458,-0.970473792629893,0.0397955291065841,0.111573968108644
1580420543.77816,-0.978286411841001,0.0798352025635154,0.0734874494544897
1580420543.81052,-0.981704432745861,0.0778820477607383,0.0690928511482412
1580420543.84289,-1.05006485084306,-0.0168459601739528,0.127687495231555
1580420543.87525,-0.973891813534753,0.0681162737468526,0.0993667505912867
1580420543.90761,-0.944594491493095,0.205325398641946,0.174563210498206
1580420543.93998,-1.01393148699168,-0.0520027466239412,0.190188448920424
1580420543.97234,-0.98268101014725,0.142336156252384,0.131593804837109
1580420544.0047,-0.957778286411841,0.067139696345464,0.0974135957885096
1580420544.03707,-1.01100175478752,0.00415045395590141,0.130128938735027
1580420544.06943,-0.978286411841001,0.160891126878766,0.0959487296864268
1580420544.10179,-1.0383459220264,-0.0778820477607383,0.162844281681544
1580420544.13416,-0.982192721446555,0.0656748302433812,0.135988403143358
1580420544.16652,-0.966079194323644,0.146730754558632,0.136476691844052
1580420544.19888,-0.986587319752804,0.0075684748607614,0.220462348363469
1580420544.23125,-0.92799267566949,0.144777599755855,0.231692988479438
1580420544.26361,-0.961684596017395,0.161867704280155,0.199465934233615
1580420544.29597,-0.971938658731975,0.11108567940795,0.171633478294041
1580420544.32834,-0.987563897154192,0.111573968108644,0.11450370031281
1580420544.3607,-1.00318913557641,0.0236820019836728,0.0939955748836496
1580420544.39306,-0.97926298924239,0.0769054703593497,0.0935072861829553
1580420544.42543,-0.996841382467384,0.0881361104753182,0.130128938735027
1580420544.45779,-0.97242694743267,0.0695811398489354,0.172610055695429
1580420544.49015,-0.972915236133364,0.099855039291981,0.192141603723201
1580420544.52252,-0.981704432745861,0.0759288929579611,0.166750591287098
1580420544.55487,-0.974380102235447,0.0881361104753182,0.164797436484321
1580420544.58723,-0.974380102235447,0.0983901731898982,0.158937972075989
1580420544.6196,-0.995376516365301,0.0505378805218584,0.173586633096818
1580420544.65196,-0.985610742351415,0.148195620660715,0.113038834210727
1580420544.68433,-0.99293507286183,0.0720225833524069,0.12475776302739
