Timestamp_seconds,Accel_X_g,Accel_Y_g,Accel_Z_g
1580420491.25846,-1.02760357061112,0.0114747844663157,-0.0349126420996413
1580420491.29063,-1.01344319829099,0.0144045166704814,-0.0354009308003356
1580420491.32281,-1.0041657129778,0.0163576714732585,-0.0451667048142212
1580420491.35498,-1.01393148699168,0.0104982070649271,-0.0134279392690928
1580420491.38715,-1.01637293049516,0.0251468680857556,-0.0222171358815899
1580420491.41933,-1.01441977569238,0.0236820019836728,-0.0212405584802013
1580420491.4515,-1.00563057907988,0.00317387655451284,-0.0324711985961699
1580420491.48367,-1.00123598077363,0.0358892195010299,-0.0563973449301898
1580420491.51585,-0.995864805065995,0.0192874036774242,-0.0261234454871442
1580420491.54802,-1.00465400167849,0.0104982070649271,-0.0544441901274126
1580420491.58019,-1.00318913557641,-0.00268558785381856,-0.0441901274128327
1580420491.61237,-1.01344319829099,0.00415045395590141,-0.0383306630045013
1580420491.64454,-1.00611886778058,0.0153810940718699,-0.0539559014267184
1580420491.67671,-0.998794537270161,0.0173342488746471,-0.0520027466239412
1580420491.70888,-1.00074769207294,0.0227054245822842,-0.063721675440604
1580420491.74103,-0.999282825970855,0.0358892195010299,-0.0373540856031127
1580420491.7732,-1.00758373388266,0.0285648889906156,-0.0407721065079727
1580420491.80537,-1.00123598077363,0.0324711985961699,-0.0358892195010299
1580420491.83755,-1.00514229037919,0.024170290684367,-0.0524910353246355
1580420491.86972,-1.00807202258335,0.027588311589227,-0.0402838178072784
1580420491.90189,-0.99977111467155,0.0280766002899213,-0.037842374303807
1580420491.93407,-1.00563057907988,0.0407721065079727,-0.0422369726100555
1580420491.96624,-1.01832608529793,0.0354009308003356,-0.0476081483176927
1580420491.99841,-1.01002517738613,0.0354009308003356,-0.0476081483176927
1580420492.03059,-0.996841382467384,0.0256351567864499,-0.0524910353246355
1580420492.06276,-1.00758373388266,0.0368657969024184,-0.0383306630045013
1580420492.09493,-1.00660715648127,0.0451667048142212,-0.0417486839093613
1580420492.1271,-1.01100175478752,0.0393072404058898,-0.0520027466239412
1580420492.15928,-1.00318913557641,0.0505378805218584,-0.0710460059510183
1580420492.19145,-1.00465400167849,0.0300297550926985,-0.0529793240253298
1580420492.22362,-1.00856031128405,0.0319829098954756,-0.0441901274128327
1580420492.2558,-0.987563897154192,0.0432135500114441,-0.0490730144197755
1580420492.28797,-1.00660715648127,0.0466315709163041,-0.041260395208667
1580420492.32014,-1.00465400167849,0.044678416113527,-0.0456549935149155
1580420492.35232,-0.995376516365301,0.0500495918211641,-0.0471198596169984
1580420492.38449,-1.00660715648127,0.0495613031204698,-0.0422369726100555
1580420492.41666,-1.00318913557641,0.0593270771343555,-0.0295414663920042
1580420492.44884,-1.00514229037919,0.0471198596169984,-0.0363775082017241
1580420492.48101,-0.99977111467155,0.0539559014267184,-0.0607919432364383
1580420492.51318,-1.00465400167849,0.0690928511482412,-0.048096437018387
1580420492.54536,-1.01197833218891,0.0627450980392155,-0.044678416113527
1580420492.57753,-0.998794537270161,0.070557717250324,-0.0588387884336612
1580420492.6097,-1.00074769207294,0.0573739223315783,-0.0324711985961699
1580420492.64188,-0.992446784161135,0.063721675440604,-0.0373540856031127
1580420492.67405,-1.0129549095903,0.0734874494544897,-0.0490730144197755
1580420492.70622,-1.0207675288014,0.070557717250324,-0.0373540856031127
1580420492.73839,-1.00611886778058,0.060303654535744,-0.0422369726100555
1580420492.77057,-1.00758373388266,0.0529793240253298,-0.0432135500114441
1580420492.80274,-0.997329671168078,0.0632333867399097,-0.0339360646982527
1580420492.83491,-1.01783779659724,0.0778820477607383,-0.0295414663920042
1580420492.86709,-1.01734950789654,0.060303654535744,-0.0676279850461583
1580420492.89926,-0.989028763256275,0.0280766002899213,-0.0612802319371326
1580420492.93143,-0.994399938963912,0.0300297550926985,-0.0559090562294955
1580420492.96361,-0.994888227664607,0.0612802319371326,-0.0383306630045013
1580420492.99578,-1.0295567254139,0.0456549935149155,-0.0549324788281069
1580420493.02795,-1.00953688868544,0.0222171358815899,-0.0441901274128327
1580420493.06013,-1.04908827344167,0.0212405584802013,-0.0583504997329669
1580420493.0923,-1.04859998474098,0.0187991149767299,-0.0563973449301898
1580420493.12447,-1.07008468757153,0.0075684748607614,-0.0617685206378269
1580420493.15665,-1.0036774242771,-0.0427252613107498,0.00219729915312428
1580420493.18882,-1.01783779659724,-0.0256351567864499,-0.0168459601739528
1580420493.22099,-1.01881437399863,0.0168459601739528,-0.0393072404058898
1580420493.25317,-1.02858014801251,0.0163576714732585,-0.0266117341878385
1580420493.28534,-1.00904859998474,0.0827649347676811,-0.0046387426565957
1580420493.31751,-0.982192721446555,0.00415045395590141,-0.031006332494087
1580420493.34968,-0.972915236133364,-0.0817883573662925,-0.0202639810788128
1580420493.38186,-0.997817959868772,-0.0690928511482412,-0.0124513618677042
1580420493.41403,-1.01881437399863,-0.00122072175173571,-0.0407721065079727
1580420493.4462,-1.01637293049516,0.0227054245822842,-0.0300297550926985
1580420493.47838,-0.992446784161135,0.0075684748607614,-0.0163576714732585
1580420493.51055,-0.993423361562524,-0.0461432822156098,0.00805676356145568
1580420493.54272,-0.974380102235447,-0.0798352025635154,0.00903334096284425
1580420493.5749,-0.946547646295873,-0.0539559014267184,-0.000244144350347142
1580420493.60707,-0.962661173418784,-0.0109864957656214,-0.01196307316701
1580420493.63924,-1.01197833218891,-0.0046387426565957,0.0212405584802013
1580420493.67142,-0.994399938963912,-0.0168459601739528,0.0314946211947813
1580420493.70359,-0.986587319752804,0.00708018616006711,0.0134279392690928
1580420493.73576,-0.975356679636835,0.0354009308003356,-0.00854505226214997
1580420493.76794,-1.00318913557641,0.0144045166704814,0.0109864957656214
1580420493.80011,-1.03053330281529,-0.0217288471808956,0.0168459601739528
1580420493.83228,-1.00953688868544,-0.0422369726100555,-0.00366216525520713
1580420493.86446,-1.00270084687572,0.00512703135728998,-0.00952162966353853
1580420493.89663,-1.00709544518196,-0.0104982070649271,0.00415045395590141
1580420493.9288,-1.00758373388266,-0.0354009308003356,-0.0314946211947813
1580420493.96097,-1.00611886778058,-0.0222171358815899,-0.0319829098954756
1580420493.99315,-1.02809185931182,-0.0407721065079727,0.00317387655451284
1580420494.02532,-1.02662699320974,-0.0124513618677042,0.0046387426565957
1580420494.05749,-1.01930266269932,-0.0251468680857556,0.00610360875867855
1580420494.08967,-1.00611886778058,-0.0261234454871442,0.0227054245822842
1580420494.12184,-1.02467383840696,0.00170901045242999,-0.000244144350347142
1580420494.15401,-0.998306248569467,-0.0129396505683985,0.0314946211947813
1580420494.18619,-1.00660715648127,0.0104982070649271,0.0109864957656214
1580420494.21836,-1.02467383840696,-0.0139162279697871,0.0524910353246355
1580420494.25053,-1.02223239490349,0.000732433051041426,0.0461432822156098
1580420494.28271,-1.01344319829099,0.0129396505683985,0.044678416113527
1580420494.31491,-1.03053330281529,0.0456549935149155,0.0681162737468526
1580420494.34708,-1.07399099717708,0.0764171816586554,0.0568856336308841
1580420494.37926,-1.00856031128405,-0.0202639810788128,0.067139696345464
1580420494.41143,-1.06129549095903,-0.027588311589227,0.0568856336308841
1580420494.4436,-1.05397116044862,0.0607919432364383,0.0549324788281069
1580420494.47578,-1.04567025253681,-0.0129396505683985,0.107179369802395
1580420494.50795,-1.08766308079652,-0.0793469138628211,0.218020904859998
1580420494.54012,-1.09889372091249,-0.0246585793850613,0.199465934233615
1580420494.5723,-1.04762340733959,-0.0256351567864499,0.250736247806515
1580420494.60447,-1.02858014801251,-0.0124513618677042,0.310307469291217
1580420494.63664,-1.03395132372015,-0.0148928053711757,0.313237201495383
1580420494.66881,-0.985122453650721,-0.00122072175173571,0.331792172121766
1580420494.70099,-1.0207675288014,-0.0109864957656214,0.46900129701686
1580420494.73316,-0.940199893186847,-0.00512703135728998,0.413336385137711
1580420494.76533,-0.813244831006333,-0.340581368734265,0.481208514534217
1580420494.79751,-0.902113374532693,-0.235599298084992,0.552010376134891
1580420494.82968,-0.793224994277868,-0.163820859082932,0.464118410009917
1580420494.86185,-0.640878919661249,-0.424078736552987,0.557869840543223
1580420494.89403,-0.620859082932784,-0.302983138780805,0.507087815671017
1580420494.9262,-0.620859082932784,-0.248783093003738,0.469977874418248
1580420494.95837,-0.576913099870298,-0.235111009384298,0.531502250705731
1580420494.99055,-0.509529259174487,-0.221438925764858,0.554451819638363
1580420495.02272,-0.46997787441825,-0.227298390173189,0.533943694209203
1580420495.05489,-0.460700389105059,-0.0046387426565957,0.530525673304343
1580420495.08707,-0.596444647898069,0.0207522697795071,0.544197756923783
1580420495.11924,-0.709239337758449,-0.141847867551689,0.516853589684903
1580420495.15141,-0.733653772793163,-0.170656900892652,0.510017547875183
1580420495.18359,-0.763439383535516,-0.371343556878005,0.428473334859234
1580420495.21576,-0.858655680170902,-0.332280460822462,0.567147325856414
1580420495.24793,-0.85279621576257,-0.353276874952316,0.411383230334934
1580420495.2801,-0.929457541771573,-0.175539787899595,0.46216525520714
1580420495.31228,-1.00270084687572,-0.00659189745937283,0.237064164187075
1580420495.34445,-1.04371709773404,-0.138429846646829,0.360601205462729
1580420495.37662,-1.10572976272221,0.0578622110322726,0.403082322423131
1580420495.4088,-1.05397116044862,0.113038834210727,0.173098344396124
1580420495.44097,-1.0808270389868,-0.0187991149767299,0.294193942168306
1580420495.47314,-1.0808270389868,0.0510261692225527,0.315678644998854
1580420495.50532,-1.07740901808194,0.132082093537804,0.167238879987792
1580420495.53749,-1.06178377965972,0.115968566414892,0.108644235904478
1580420495.56966,-1.04859998474098,-0.0393072404058898,0.216556038757915
1580420495.60184,-1.06178377965972,0.0261234454871442,0.172121766994735
1580420495.63401,-1.10768291752499,0.101319905394064,0.165285725185015
1580420495.66618,-1.10328831921874,0.0510261692225527,0.160891126878766
1580420495.69836,-1.08033875028611,0.0627450980392155,0.205325398641946
1580420495.73053,-1.09010452429999,0.0568856336308841,0.159426260776684
1580420495.7627,-1.05934233615625,0.0886243991760125,0.194094758525978
1580420495.79488,-1.05397116044862,0.0700694285496297,0.210696574349583
1580420495.82705,-1.08229190508888,0.0456549935149155,0.271244373235675
1580420495.85922,-1.13112077515831,0.0598153658350498,0.28784618905928
1580420495.89139,-1.09254596780346,0.0168459601739528,0.278568703746089
1580420495.92357,-1.15504692149233,-0.0202639810788128,0.347905699244677
1580420495.95574,-1.00123598077363,-0.0690928511482412,0.365972381170366
1580420495.98792,-0.906996261539636,-0.067139696345464,0.339604791332874
1580420496.02009,-0.900160219729916,-0.168215457389181,0.45532921339742
1580420496.05226,-0.910414282444496,-0.174563210498206,0.523201342793929
1580420496.08443,-0.744884412909132,-0.202395666437781,0.421637293049514
1580420496.11661,-0.637460898756389,-0.345464255741208,0.524666208896011
1580420496.14878,-0.733653772793163,-0.31958495460441,0.562752727550166
1580420496.18095,-0.594003204394598,-0.0358892195010299,0.288334477759975
1580420496.21313,-0.54859235523003,0.0246585793850613,0.403570611123826
1580420496.2453,-0.551522087434195,-0.0046387426565957,0.487067978942548
1580420496.27747,-0.658945601586938,-0.148683909361409,0.512458991378654
1580420496.30965,-0.735118638895246,-0.389410238803693,0.610116731517511
1580420496.34182,-0.710215915159838,-0.442145418478676,0.710704203860534
1580420496.37399,-0.896253910124361,-0.279545281147479,0.500251773861297
1580420496.40617,-0.634531166552224,-0.656504158083466,0.538338292515451
1580420496.43834,-0.810315098802167,-0.384039063096056,0.476813916227968
1580420496.47051,-0.95533684290837,-0.400640878919662,0.740001525902191
1580420496.50268,-0.821545738918136,-0.632089723048752,0.711192492561228
1580420496.53486,-0.713145647364003,-0.565194171053635,0.760509651331351
1580420496.56703,-0.810803387502862,-0.157961394674601,0.756603341725796
1580420496.59921,-0.809826810101473,-0.223392080567635,0.605233844510568
1580420496.63138,-0.789318684672313,-0.540291447318227,0.553963530937668
1580420496.66355,-0.835217822537576,-0.671641107804989,0.609628442816817
1580420496.69572,-0.756603341725796,-0.495368886854353,0.5940032043946
1580420496.7279,-0.677012283512626,-0.328374151216908,0.573983367666134
1580420496.76007,-0.540291447318227,-0.415777828641184,0.582284275577937
1580420496.79224,-0.628183413443198,-0.55542839703975,0.519783321889069
1580420496.82442,-0.45972381170367,-0.258060578316931,0.494880598153657
1580420496.85659,-0.443121995880064,0.271732661936369,0.579842832074466
1580420496.88785,-0.386968795300222,0.0187991149767299,0.531990539406426
1580420496.92002,-0.427008468757153,-0.383062485694667,0.559334706645306
1580420496.95219,-0.599374380102235,-0.532478828107118,0.535408560311286
1580420496.98436,-0.625741969939726,-0.49732204165713,0.476813916227968
1580420497.01653,-0.677012283512626,-0.343022812237736,0.463630121309222
1580420497.0487,-0.656015869382772,-0.277103837644008,0.498786907759211
1580420497.08087,-0.798596169985505,-0.244388494697489,0.498298619058517
1580420497.11305,-0.834729533836882,-0.180910963607232,0.486091401541159
1580420497.14522,-0.955825131609064,-0.150148775463492,0.561776150148777
1580420497.17739,-1.11012436102846,-0.272709239337759,0.416266117341877
1580420497.20956,-1.00318913557641,-0.112062256809338,0.433844510566871
1580420497.24173,-1.16090638590066,-0.00854505226214997,0.263431754024566
1580420497.2739,-1.12672617685206,-0.0969253070878153,0.157961394674601
1580420497.30607,-1.1233081559472,-0.307866025787748,0.156984817273212
1580420497.33824,-1.21608300907912,-0.291264209964142,0.261478599221789
1580420497.37042,-1.11110093842985,-0.114991989013504,0.11792172121767
1580420497.40259,-0.971938658731975,0.0783703364614325,0.0720225833524069
1580420497.43476,-1.01490806439307,0.120851453421835,0.0939955748836496
1580420497.46693,-1.04225223163195,0.0856946669718468,0.0871595330739297
1580420497.4991,-1.00270084687572,0.0324711985961699,0.0817883573662925
1580420497.53127,-1.00611886778058,0.0632333867399097,0.0666514076447697
1580420497.56344,-1.01734950789654,0.00805676356145568,0.0153810940718699
1580420497.59561,-1.01197833218891,0.000244144350347142,0.160891126878766
1580420497.62779,-1.0637369344625,0.165774013885709,0.0427252613107498
1580420497.65996,-1.05494773785,0.113527122911421,0.0769054703593497
1580420497.69213,-1.02027924010071,-0.00317387655451284,0.0261234454871442
1580420497.7243,-1.07057297627222,0.00512703135728998,0.0202639810788128
1580420497.75647,-1.03639276722362,-0.0700694285496297,0.0124513618677042
1580420497.78864,-0.941176470588236,-0.136476691844052,0.048096437018387
1580420497.82081,-1.03492790112154,-0.138429846646829,-0.0148928053711757
1580420497.85298,-1.05006485084306,-0.0891126878767068,0.0354009308003356
1580420497.88516,-1.00856031128405,-0.134035248340581,0.0266117341878385
1580420497.91733,-1.07594415197986,-0.160402838178072,0.0295414663920042
1580420497.9495,-1.06813153276875,-0.174563210498206,0.163820859082932
1580420497.98167,-1.0896162355993,-0.131593804837109,0.128175783932249
1580420498.01384,-1.06178377965972,-0.290287632562753,0.110597390707255
1580420498.04601,-0.99635309376669,-0.358159761959259,0.128664072632944
1580420498.07818,-1.03590447852293,-0.437262531471733,0.0578622110322726
1580420498.11035,-1.0207675288014,-0.419195849546044,0.0905775539787896
1580420498.14253,-0.930434119172961,-0.122804608224612,0.133058670939192
1580420498.17474,-0.934340428778516,-0.339604791332876,0.0363775082017241
1580420498.20691,-0.758068207827879,-0.526131074998093,0.0861829556725411
1580420498.23909,-0.654551003280689,-0.539803158617532,-0.0261234454871442
1580420498.27126,-0.84596017395285,-0.221927214465552,0.198977645532921
1580420498.30343,-0.561776150148775,-0.530525673304341,0.0979018844892039
1580420498.3356,-0.753673609521631,-0.378667887388419,0.264408331425955
1580420498.36777,-0.778088044556345,-0.429449912260624,0.146242465857938
1580420498.39994,-0.708751049057755,-0.406988632028687,0.147219043259327
1580420498.43211,-0.84937819485771,-0.227298390173189,0.280521858548866
1580420498.46428,-0.868421454184787,-0.285404745555811,0.0822766460669868
1580420498.49646,-1.09303425650416,-0.420660715648127,0.123781185626001
1580420498.52863,-1.08131532768749,-0.614023041123064,0.192629892423895
1580420498.5608,-0.937270160982681,-0.738536659800106,-0.232669565880826
1580420498.59297,-0.738536659800106,-0.925062943465324,0.231204699778743
1580420498.62514,-0.97926298924239,0.044678416113527,0.0769054703593497
1580420498.65731,-0.803967345693142,0.804455634393836,-0.846448462653544
1580420498.68948,-0.912367437247273,0.433356221866177,0.0300297550926985
1580420498.72165,-1.05836575875486,-0.00366216525520713,-0.34351110093843
1580420498.75383,-2.49735255970092,-1.6448004882887,0.463141832608528
1580420498.786,-0.758068207827879,-1.78884565499352,0.096437018387121
1580420498.81817,-0.857190814068819,0.436774242771037,-0.155031662470435
1580420498.85034,-1.08326848249027,0.932875562676433,-0.774670023651485
1580420498.88251,-0.980727855344472,-0.106202792401007,0.312748912794689
1580420498.91468,-1.25368123903258,0.0368657969024184,0.290287632562752
1580420498.94685,-1.10817120622568,-0.110109102006561,-0.0656748302433812
1580420498.97902,-0.942641336690318,-0.178957808804455,0.0427252613107498
1580420499.0112,-0.899183642328527,-0.322514686808576,0.0861829556725411
1580420499.04337,-0.971938658731975,0.240482185091935,-0.182375829709315
1580420499.07554,-1.05055313954376,0.148195620660715,0.044678416113527
1580420499.10771,-1.13942168307011,-0.177981231403066,0.0612802319371326
1580420499.13988,-1.01149004348821,-0.450934615091173,-0.0295414663920042
1580420499.17205,-0.902601663233387,-0.139894712748912,0.0256351567864499
1580420499.20422,-0.953383688105593,0.102296482795452,-0.188235294117646
1580420499.23639,-1.01100175478752,0.104737926298924,-0.0158693827725642
1580420499.26857,-0.937758449683376,-0.162844281681544,0.0813000686655982
1580420499.30074,-0.967544060425727,-0.271732661936371,-0.031006332494087
1580420499.33291,-0.988540474555581,-0.302006561379416,-0.0832532234683754
1580420499.36508,-0.98268101014725,-0.178957808804455,-0.0207522697795071
1580420499.39725,-0.919203479056993,-0.027588311589227,-0.186770428015564
1580420499.42942,-0.943617914091707,0.0285648889906156,-0.227786678873883
1580420499.46167,-0.970962081330587,-0.109132524605172,-0.259037155718319
1580420499.49384,-0.918226901655604,-0.198977645532921,-0.362066071564813
1580420499.52601,-1.00611886778058,-0.286869611657893,-0.251224536507211
1580420499.55818,-1.04029907682918,-0.301518272678722,-0.262943465323874
1580420499.59035,-0.971938658731975,-0.128664072632944,-0.290287632562753
1580420499.62253,-0.952407110704204,0.0124513618677042,-0.184328984512092
1580420499.6547,-0.983657587548638,0.0686045624475469,-0.184328984512092
1580420499.68687,-0.94850080109865,0.0432135500114441,-0.284916456855116
1580420499.71904,-1.01100175478752,-0.157473105973907,-0.219974059662775
1580420499.75121,-0.99635309376669,-0.259525444419014,-0.222415503166246
1580420499.78338,-0.991958495460441,-0.184817273212786,-0.270267795834288
1580420499.81555,-1.03053330281529,-0.140871290150301,-0.253665980010682
1580420499.84772,-1.09938200961318,-0.172610055695429,-0.251224536507211
1580420499.8799,-1.09303425650416,-0.0876478217746239,-0.228763256275272
1580420499.91207,-0.967544060425727,-0.00366216525520713,-0.261966887922485
1580420499.94424,-0.99293507286183,-0.0461432822156098,-0.227298390173189
1580420499.97641,-1.09108110170138,-0.250247959105822,-0.130128938735027
1580420500.00858,-1.08570992599374,-0.180422674906538,-0.149172198062104
1580420500.04075,-1.01393148699168,-0.141847867551689,-0.119874876020447
1580420500.07292,-0.973891813534753,0.0461432822156098,-0.212649729152361
1580420500.10509,-1.01100175478752,0.0212405584802013,-0.0656748302433812
1580420500.13727,-0.840588998245213,0.0471198596169984,0.0490730144197755
1580420500.16944,-0.941176470588236,0.118410009918364,-0.215091172655832
1580420500.20161,-1.20778210116731,-0.0217288471808956,-0.0397955291065841
1580420500.23378,-0.758068207827879,-0.725841153582055,0.236087586785686
1580420500.26595,-1.04029907682918,-0.385992217898833,0.0373540856031127
1580420500.29812,-1.09303425650416,0.0144045166704814,-0.220462348363469
1580420500.33029,-0.92115663385977,0.252689402609292,0.0852063782711525
1580420500.36246,-1.03053330281529,0.0329594872968642,0.264896620126649
1580420500.39464,-0.919203479056993,-0.0856946669718468,0.00317387655451284
1580420500.42681,-0.91773861295491,-0.00219729915312428,-0.100343327992675
1580420500.45898,-1.05201800564584,-0.0842298008697639,0.0314946211947813
1580420500.49115,-1.01051346608682,-0.199954222934309,0.176516365300984
1580420500.52332,-0.905043106736859,-0.183352407110704,0.128664072632944
1580420500.55549,-0.969985503929198,-0.0832532234683754,-0.0324711985961699
1580420500.58766,-0.976333257038224,-0.0397955291065841,0.0490730144197755
1580420500.61983,-1.0129549095903,-0.0529793240253298,-0.00512703135728998
1580420500.65201,-1.01002517738613,-0.0290531776913099,-0.00610360875867855
1580420500.68418,-0.997329671168078,-0.0300297550926985,-0.037842374303807
1580420500.71635,-1.04469367513542,-0.0227054245822842,-0.0798352025635154
1580420500.74856,-1.01832608529793,-0.202395666437781,-0.0202639810788128
1580420500.78074,-0.984145876249332,-0.220462348363469,-0.0231937132829785
1580420500.81291,-1.03150988021668,0.00268558785381856,-0.144289311055161
1580420500.84508,-1.00758373388266,0.0954604409857325,-0.158937972075989
1580420500.87725,-1.0808270389868,0.0856946669718468,-0.114015411612115
1580420500.90942,-1.01100175478752,-0.114015411612115,-0.0891126878767068
1580420500.9416,-1.02272068360418,-0.159914549477378,-0.145754177157244
1580420500.97377,-0.952895399404898,-0.216556038757915,-0.218509193560692
1580420501.00594,-0.902601663233387,-0.0866712443732354,-0.37085526817731
1580420501.03811,-0.871351186388953,-0.109132524605172,-0.458258945601587
1580420501.07028,-0.95191882200351,-0.0700694285496297,-0.566659037155718
1580420501.10245,-0.968032349126421,0.0124513618677042,-0.527595941100175
1580420501.13463,-0.893324177920196,-0.070557717250324,-0.401129167620356
1580420501.1668,-0.886488136110476,-0.132082093537804,-0.335210193026628
1580420501.19897,-1.00123598077363,-0.210696574349583,-0.288822766460671
1580420501.23114,-0.997817959868772,0.0100099183642328,-0.331303883421073
1580420501.26331,-0.94850080109865,-0.0295414663920042,-0.358648050659953
1580420501.29549,-0.935317006179904,-0.165774013885709,-0.358159761959259
1580420501.32766,-0.882581826504921,-0.210208285648889,-0.359136339360647
1580420501.35983,-0.914808880750744,-0.124269474326695,-0.418219272144656
1580420501.392,-0.968520637827115,-0.104737926298924,-0.427008468757153
1580420501.42417,-0.989028763256275,-0.0993667505912867,-0.407476920729382
1580420501.45634,-1.01979095140002,-0.0852063782711525,-0.369878690775922
1580420501.48851,-0.966079194323644,-0.189700160219729,-0.34351110093843
1580420501.52069,-0.904554818036164,-0.102784771496147,-0.409430075532159
1580420501.55286,-0.99635309376669,-0.120363164721141,-0.281498435950256
1580420501.58503,-1.08473334859235,-0.0910658426794839,-0.194583047226672
1580420501.6172,-1.06910811017014,0.234622720683603,-0.279545281147479
1580420501.64937,-1.06324864576181,0.133546959639887,-0.195559624628061
1580420501.68155,-0.911390859845884,-0.0246585793850613,-0.198489356832226
1580420501.71372,-0.94508278019379,-0.122804608224612,-0.208743419546806
1580420501.74589,-0.943617914091707,-0.214114595254443,-0.0144045166704814
1580420501.77806,-0.957778286411841,-0.0729991607537954,0.0319829098954756
1580420501.81023,-1.1237964446479,0.0549324788281069,-0.0476081483176927
1580420501.8424,-0.963637750820173,0.00708018616006711,0.199465934233615
1580420501.87458,-0.95875486381323,-0.00805676356145568,-0.0441901274128327
1580420501.90675,-0.963149462119478,0.113038834210727,-0.0695811398489354
1580420501.93892,-0.919203479056993,-0.00512703135728998,-0.0485847257190812
1580420501.97109,-0.973403524834058,-0.00708018616006711,-0.0227054245822842
1580420502.00326,-1.03102159151598,-0.00512703135728998,-0.0129396505683985
1580420502.03546,-0.998306248569467,-0.0544441901274126,0.00708018616006711
1580420502.06763,-1.01783779659724,-0.0520027466239412,0.0134279392690928
1580420502.0998,-1.04859998474098,0.031006332494087,-0.0261234454871442
1580420502.13198,-0.981216144045167,0.063721675440604,-0.0476081483176927
1580420502.16415,-0.96217288471809,0.0583504997329669,-0.0764171816586554
1580420502.19632,-1.02418554970626,0.00708018616006711,0.0217288471808956
1580420502.22849,-0.98609903105211,-0.0139162279697871,-0.0236820019836728
1580420502.26066,-1.03590447852293,0.0573739223315783,-0.0246585793850613
1580420502.29283,-1.01930266269932,0.0168459601739528,0.0173342488746471
1580420502.32501,-1.0041657129778,0.0544441901274126,-0.00659189745937283
1580420502.35718,-0.976821545738918,0.00317387655451284,0.0153810940718699
1580420502.38935,-0.929945830472267,-0.0617685206378269,-0.0397955291065841
1580420502.42152,-1.03248645761807,0.104737926298924,-0.147219043259327
1580420502.45369,-1.1237964446479,-0.0104982070649271,-0.135011825741969
1580420502.48586,-0.899183642328527,-0.164797436484321,-0.113527122911421
1580420502.51804,-1.05397116044862,0.0290531776913099,-0.234134431982909
1580420502.55021,-1.05787747005417,0.0886243991760125,-0.136964980544747
1580420502.58238,-1.01441977569238,-0.0339360646982527,-0.0134279392690928
1580420502.61455,-1.02906843671321,-0.149660486762798,-0.0905775539787896
1580420502.64672,-0.975356679636835,-0.268802929732205,-0.117433432516975
1580420502.6789,-0.970962081330587,-0.134035248340581,-0.356206607156482
1580420502.71107,-0.931898985275044,0.0783703364614325,-0.342046234836348
1580420502.74324,-1.00807202258335,0.161867704280155,-0.170656900892652
1580420502.77541,-0.949477378500038,0.0783703364614325,-0.32983901731899
1580420502.80758,-1.03590447852293,-0.182864118410009,-0.339604791332876
1580420502.83975,-1.04811169604028,-0.634042877851529,-0.310795757991913
1580420502.87193,-1.11305409323262,-0.750743877317465,-0.253665980010682
1580420502.9041,-1.16090638590066,-0.515388723582818,-0.211184863050278
1580420502.93627,-1.16676585030899,-0.347417410543985,-0.164797436484321
1580420502.96844,-1.20827038986801,-0.440680552376593,-0.406012054627299
1580420503.00061,-1.1579766536965,-0.283451590753033,-0.0622568093385212
1580420503.03278,-1.17653162432288,-0.365484092469673,0.0803234912642097
1580420503.06496,-1.17311360341802,-0.490974288548104,0.123292896925307
1580420503.09713,-1.03199816891737,-0.372320134279393,0.0612802319371326
1580420503.1293,-0.950942244602121,-0.502204928664073,0.177981231403066
1580420503.16147,-0.918715190356298,-0.554451819638361,0.264896620126649
1580420503.19364,-0.800061036087587,-0.535896849011978,0.219485770962081
1580420503.22581,-0.760509651331351,-0.604745555809872,0.204348821240558
1580420503.25799,-0.748302433813992,-0.744884412909132,0.294193942168306
1580420503.29016,-0.614999618524452,-0.734142061493857,0.34253452353704
1580420503.32239,-0.568123903257801,-0.646250095368886,0.310795757991912
1580420503.35456,-0.489509422446021,-0.652109559777218,0.356694895857174
1580420503.38673,-0.404058899824522,-0.700450141145952,0.329350728618294
1580420503.4189,-0.40503547722591,-0.699961852445258,0.326909285114823
1580420503.45107,-0.427985046158541,-0.67750057221332,0.351323720149537
1580420503.48325,-0.218997482261386,-0.727794308384832,0.370366979476614
1580420503.51542,-0.300053406576639,-0.653086137178606,0.371831845578697
1580420503.54759,-0.311772335393302,-0.761974517433433,0.476813916227968
1580420503.57976,0.0183108262760356,-0.423590447852293,0.434332799267565
1580420503.61193,-0.325932707713436,-0.651132982375829,0.364995803768977
1580420503.6441,-0.11450370031281,-0.854261081864653,0.365972381170366
1580420503.67628,-0.0222171358815899,-0.656992446784161,0.312748912794689
1580420503.70845,-0.0886243991760125,-0.602792401007095,0.401129167620354
1580420503.74062,-0.184817273212786,-0.543709468223087,0.376226443884946
1580420503.77279,-0.2434119172961,-0.503669794766155,0.453376058594642
1580420503.80496,-0.280521858548868,-0.678477149614709,0.471931029221025
1580420503.83713,-0.454840924696727,-0.652597848477912,0.567147325856414
1580420503.86931,-0.547127489127947,-0.639414053559166,0.567147325856414
1580420503.90148,-0.56910048065919,-0.659922178988326,0.562264438849471
1580420503.93365,-0.677012283512626,-0.463630121309224,0.514900434882126
1580420503.96582,-0.806897077897307,-0.368902113374533,0.59058518348974
1580420503.99799,-0.719493400473029,-0.536385137712672,0.604745555809874
1580420504.03016,-0.808850232700085,-0.392339971007859,0.62134737163348
1580420504.06234,-1.06178377965972,-0.284916456855116,0.460700389105057
1580420504.09451,-1.02174410620279,-0.37085526817731,0.470466163118942
1580420504.12668,-1.08424505989166,-0.413824673838407,0.596932936598765
1580420504.15885,-1.05006485084306,-0.0373540856031127,0.451422903791865
1580420504.19102,-1.09742885481041,-0.0114747844663157,0.368902113374531
1580420504.2232,-1.1662775616083,-0.104737926298924,0.452887769893948
1580420504.25537,-1.08815136949721,-0.244876783398183,0.46216525520714
1580420504.28754,-1.00660715648127,-0.156984817273212,0.245853360799572
1580420504.31971,-0.967544060425727,-0.00952162966353853,0.168215457389181
1580420504.35188,-1.06471351186389,-0.01196307316701,0.33228046082246
1580420504.38405,-1.10084687571527,-0.0813000686655982,0.372320134279391
1580420504.41623,-1.04908827344167,-0.0139162279697871,0.289799343862057
1580420504.4484,-1.00465400167849,0.0549324788281069,0.182375829709315
1580420504.48057,-0.984145876249332,-0.000732433051041426,0.160891126878766
1580420504.51274,-1.02858014801251,-0.0573739223315783,0.208255130846112
1580420504.54491,-0.991470206759747,-0.103761348897535,0.229251544975966
1580420504.57709,-0.987075608453498,-0.0622568093385212,0.183840695811398
1580420504.60928,-1.02760357061112,-0.0339360646982527,0.163332570382238
1580420504.64145,-0.988052185854887,-0.0397955291065841,0.207278553444723
1580420504.67363,-0.976821545738918,-0.0285648889906156,0.258548867017623
1580420504.7058,-0.932387273975738,-0.0578622110322726,0.297611963073166
1580420504.73797,-0.944106202792401,-0.0407721065079727,0.254642557412069
1580420504.77014,-0.98609903105211,-0.0646982528419926,0.237064164187075
1580420504.80232,-0.95533684290837,-0.0939955748836496,0.254642557412069
1580420504.83449,-0.955825131609064,-0.0451667048142212,0.260990310521095
1580420504.86666,-0.961196307316701,-0.0417486839093613,0.299076829175249
1580420504.89883,-0.93141069657435,-0.0622568093385212,0.294682230869
1580420504.93101,-0.914808880750744,-0.0744640268558783,0.270267795834286
1580420504.96318,-0.916762035553521,-0.0783703364614325,0.233646143282215
1580420504.99535,-0.939223315785458,-0.104737926298924,0.280033569848172
1580420505.02752,-0.957289997711147,-0.103761348897535,0.255619134813458
1580420505.05969,-0.98609903105211,-0.0974135957885096,0.262455176623178
1580420505.09187,-0.997817959868772,-0.0803234912642097,0.291752498664835
1580420505.12404,-0.953383688105593,-0.0578622110322726,0.326909285114823
1580420505.15621,-0.968032349126421,0.00952162966353853,0.431891355764094
1580420505.18838,-1.02467383840696,0.0227054245822842,0.498786907759211
1580420505.22055,-1.05006485084306,-0.0207522697795071,0.46216525520714
1580420505.25273,-1.06666666666667,-0.0979018844892039,0.508064393072406
1580420505.2849,-1.10817120622568,-0.190188448920424,0.5427328908217
1580420505.31707,-1.11793698023957,-0.231204699778743,0.504646372167546
1580420505.34924,-1.04567025253681,-0.376226443884947,0.573983367666134
1580420505.38142,-1.1237964446479,-0.376714732585642,0.665781643396659
1580420505.41359,-1.0466468299382,-0.282475013351645,0.713633936064699
1580420505.44576,-0.935805294880598,-0.362066071564813,0.651132982375831
1580420505.47793,-0.905043106736859,-0.448981460288396,0.695078965438316
1580420505.5101,-0.754650186923019,-0.550057221332112,0.694590676737622
1580420505.54228,-0.579354543373769,-0.539803158617532,0.690196078431374
1580420505.57445,-0.47681391622797,-0.420660715648127,0.605722133211263
1580420505.60662,-0.310795757991913,-0.428473334859236,0.559822995346
1580420505.63879,-0.127199206530861,-0.40161745632105,0.493415732051574
1580420505.67097,-0.0251468680857556,-0.372808422980087,0.470466163118942
1580420505.70314,-0.0246585793850613,-0.371343556878005,0.469977874418248
1580420505.73531,0.0139162279697871,-0.376226443884947,0.4314030670634
1580420505.76748,0.031006332494087,-0.47339589532311,0.526131074998094
1580420505.79965,0.00366216525520713,-0.621835660334172,0.581307698176548
1580420505.83183,-0.00708018616006711,-0.577889677271687,0.639414053559168
1580420505.864,-0.00122072175173571,-0.575448233768215,0.698008697642482
1580420505.89627,-0.0832532234683754,-0.710215915159838,0.761974517433433
1580420505.92844,-0.147707331960021,-0.700938429846646,0.767833981841765
1580420505.96061,-0.150637064164187,-0.717540245670252,0.807385366598002
1580420505.99279,-0.0949721522850382,-0.656015869382772,0.810315098802167
1580420506.02496,-0.121828030823224,-0.652109559777218,0.789806973373008
1580420506.05713,-0.123292896925307,-0.666269932097352,0.799084458686199
1580420506.0893,-0.144777599755855,-0.677988860914015,0.782970931563288
1580420506.12148,-0.153078507667658,-0.611581597619592,0.771252002746625
1580420506.15365,-0.115968566414892,-0.635019455252918,0.768810559243153
1580420506.18582,-0.175539787899595,-0.605722133211261,0.768810559243153
1580420506.21799,-0.149660486762798,-0.635507743953612,0.780529488059816
1580420506.25016,-0.165285725185015,-0.656504158083466,0.772228580148013
1580420506.28234,-0.189700160219729,-0.667246509498741,0.791760128175785
1580420506.31451,-0.207766842145418,-0.775646601052873,0.739024948500802
1580420506.34668,-0.231692988479438,-0.737071793698023,0.810315098802167
1580420506.37885,-0.245365072098878,-0.7048447394522,0.776623178454262
1580420506.41103,-0.222903791866941,-0.69117265583276,0.788830395971619
1580420506.4432,-0.218020904859998,-0.635507743953612,0.763439383535516
1580420506.47537,-0.145265888456549,-0.641367208361943,0.718516823071642
1580420506.50754,-0.159914549477378,-0.599862668802929,0.706797894254979
1580420506.53971,-0.134035248340581,-0.529060807202258,0.663828488593882
1580420506.57189,-0.11792172121767,-0.488044556343938,0.773693446250096
1580420506.60406,-0.0866712443732354,-0.51099412527657,0.779064621957733
1580420506.63623,-0.166750591287098,-0.658945601586938,0.724376287479974
1580420506.6684,-0.31958495460441,-0.920180056458381,0.837170977340353
1580420506.70057,-0.282475013351645,-1.01930266269932,1.02662699320974
1580420506.73275,-0.121828030823224,-0.869398031586176,0.750255588616771
1580420506.76492,-0.268802929732205,-0.289311055161365,0.814709697108416
1580420506.79709,-0.166262302586404,-0.344975967040513,0.634042877851531
1580420506.82926,-0.155519951171129,-0.731212329289692,0.725352864881362
1580420506.86144,-0.169680323491264,-0.782482642862593,0.825940337224385
1580420506.89361,-0.150148775463492,-0.807873655298696,0.671152819104297
1580420506.92578,-0.0100099183642328,-0.618417639429312,0.724376287479974
1580420506.95795,-0.189700160219729,-0.551522087434195,0.481696803234911
1580420506.99012,-0.115968566414892,-0.314702067597468,0.727794308384833
1580420507.0223,-0.0827649347676811,-0.423102159151599,0.88355840390631
1580420507.05447,-0.0656748302433812,-0.528572518501564,0.5940032043946
1580420507.08664,-0.0920424200808725,-0.646738384069581,0.530525673304343
1580420507.11881,-0.253177691309988,-0.794201571679256,0.587655451285574
1580420507.15099,-0.304448004882888,-0.619394216830701,0.737560082398719
1580420507.18329,-0.355230029755093,-0.603768978408484,0.820569161516747
1580420507.21546,-0.412359807736324,-0.650644693675135,0.492439154650185
1580420507.24763,-0.433844510566873,-0.693614099336232,0.84596017395285
1580420507.27981,-0.519295033188373,-0.777111467154956,0.902601663233387
1580420507.31198,-0.486579690241856,-0.637949187457084,0.813733119707027
1580420507.34415,-0.496833752956436,-0.816174563210499,0.96559090562295
1580420507.37632,-0.46997787441825,-0.747325856412603,0.92115663385977
1580420507.4085,-0.453376058594644,-0.635507743953612,0.87672236209659
1580420507.44067,-0.415777828641184,-0.619882505531395,0.887464713511864
1580420507.47284,-0.342534523537042,-0.626718547341115,0.851819638361182
1580420507.50501,-0.362066071564813,-0.706309605554283,0.895277332722973
1580420507.53719,-0.365484092469673,-0.631601434348058,0.774670023651485
1580420507.56936,-0.304448004882888,-0.655527580682078,0.667246509498742
1580420507.60153,-0.277103837644008,-0.731700617990386,0.796643015182728
1580420507.63371,-0.330327306019685,-0.52124818799115,0.685313191424431
1580420507.66588,-0.149172198062104,-0.386968795300222,0.54956893263142
1580420507.69805,-0.105226214999618,-0.376226443884947,0.480231937132828
1580420507.73022,0.0598153658350498,-0.597909514000152,0.53247882810712
1580420507.7624,0.0373540856031127,-0.497810330357824,0.606698710612651
1580420507.79457,-0.152590218966964,-0.641855497062638,0.654062714579997
1580420507.82674,-0.273197528038454,-0.673594262607766,1.19020370794232
1580420507.85891,-0.242435339894712,-0.961196307316701,1.00221255817502
1580420507.89109,-0.174563210498206,-0.824963759822996,0.860608834973679
1580420507.92326,-0.174563210498206,-0.552498664835584,0.799572747386893
1580420507.95543,-0.187747005416952,-0.383062485694667,0.674570840009157
1580420507.9876,-0.245365072098878,-0.494392309452964,0.682871747920959
1580420508.01978,-0.177981231403066,-0.77759975585565,0.698496986343176
1580420508.05195,0.000244144350347142,-0.797131303883422,0.554451819638363
1580420508.08412,-0.0227054245822842,-0.396246280613413,0.688242923628597
1580420508.1163,-0.159426260776684,-0.512947280079347,0.589120317387657
1580420508.14847,-0.189211871519035,-0.55201037613489,0.733165484092471
1580420508.18064,-0.279056992446785,-0.606698710612649,0.539803158617534
1580420508.21281,-0.273685816739148,-0.659922178988326,0.82545204852369
1580420508.24499,-0.321049820706493,-0.529060807202258,0.785900663767453
1580420508.27716,-0.198489356832226,-0.740001525902189,0.519295033188374
1580420508.30933,-0.289799343862059,-0.821545738918136,0.768322270542459
1580420508.3415,-0.36401922636759,-0.539803158617532,0.78785381857023
1580420508.37368,-0.395757991912719,-0.648203250171663,0.741466392004273
1580420508.40585,-0.458258945601587,-0.590096894789044,0.804455634393836
1580420508.43802,-0.448004882887007,-0.74927901121538,0.851819638361182
1580420508.47028,-0.508064393072404,-0.662851911192492,0.821545738918136
1580420508.50245,-0.405523765926604,-0.584237430380712,0.80836194399939
1580420508.53462,-0.289311055161365,-0.594979781795987,0.776134889753568
1580420508.56679,-0.271732661936371,-0.623300526436255,0.684824902723737
1580420508.59897,-0.316655222400245,-0.585702296482795,0.78785381857023
1580420508.63114,-0.355230029755093,-0.479255359731441,0.693125810635539
1580420508.66331,-0.349858854047456,-0.613046463721675,0.693614099336234
1580420508.69548,-0.279056992446785,-0.477302204928664,0.719981689173725
1580420508.72766,-0.174074921797512,-0.495857175555047,0.659433890287634
1580420508.75983,-0.282963302052339,-0.370366979476616,0.723887998779279
1580420508.792,-0.391851682307164,-0.260502021820402,0.572518501564051
1580420508.82417,-0.325932707713436,-0.403570611123827,0.445563439383534
1580420508.85635,-0.334721904325933,-0.380621042191196,0.717540245670254
1580420508.88852,-0.574471656366827,-0.273685816739148,0.716563668268865
1580420508.92069,-0.727794308384832,-0.274174105439842,0.556893263141834
1580420508.95287,-0.661875333791103,-0.337651636530099,0.562752727550166
1580420508.98504,-0.838635843442436,-0.146242465857938,0.686289768825819
1580420509.01721,-0.817639429312582,-0.323979552910659,0.459723811703668
1580420509.04938,-0.881116960402839,-0.658457312886243,0.451422903791865
1580420509.08156,-0.993911650263218,-0.370366979476616,0.548592355230031
1580420509.11373,-1.14967574578469,0.0695811398489354,0.645761806668194
1580420509.1459,-1.03346303501946,-0.0139162279697871,0.177004654001678
1580420509.17807,-1.08766308079652,-0.237552452887769,0.622812237735562
1580420509.21025,-1.19557488364996,-0.0969253070878153,0.817151140611887
1580420509.24242,-1.11842526894026,-0.0441901274128327,0.438727397573814
1580420509.27459,-1.16334782940413,-0.127199206530861,0.660410467689022
1580420509.30676,-1.03981078812848,-0.306889448386359,0.764904249637599
1580420509.33894,-1.18922713054093,-0.0476081483176927,0.706797894254979
1580420509.37111,-1.10035858701457,0.0510261692225527,0.572518501564051
1580420509.40328,-0.93482871747921,-0.205813687342641,0.751720454718853
1580420509.43546,-0.92799267566949,-0.355718318455787,0.746349279011216
1580420509.46763,-0.900160219729916,-0.328862439917602,0.688731212329291
1580420509.4998,-0.911390859845884,-0.314702067597468,0.713633936064699
1580420509.53197,-0.857679102769513,-0.44263370717937,0.935317006179904
1580420509.56415,-0.796643015182728,-0.127199206530861,0.665781643396659
1580420509.59632,-0.560311284046692,-0.219485770962081,0.702891584649425
1580420509.62849,-0.379156176089113,-0.709239337758449,0.706309605554285
1580420509.66067,-0.395269703212024,-0.818127718013276,0.709239337758451
1580420509.69284,-0.395757991912719,-0.527595941100175,0.46216525520714
1580420509.72501,-0.242435339894712,-0.363042648966202,0.344975967040511
1580420509.75726,-0.0598153658350498,-0.406988632028687,0.317631799801632
1580420509.78943,0.128175783932249,-0.241458762493323,0.342046234836346
1580420509.82161,0.00512703135728998,-0.12133974212253,0.517341878385597
1580420509.85378,0.0329594872968642,-0.653086137178606,0.740489814602885
1580420509.88595,0.0217288471808956,-0.800549324788282,0.817639429312582
1580420509.91813,0.0793469138628211,-0.710704203860532,0.697032120241094
1580420509.9503,-0.0837415121690697,-0.711192492561226,0.862073701075762
1580420509.98247,-0.0842298008697639,-0.652597848477912,0.891859311818113
1580420510.01464,-0.0690928511482412,-0.641855497062638,0.889417868314641
1580420510.04682,-0.0534676127260241,-0.638437476157778,0.722423132677196
1580420510.07899,-0.034424353398947,-0.611581597619592,0.781506065461205
1580420510.11116,0.0568856336308841,-0.451911192492561,0.583260852979326
1580420510.14333,0.0251468680857556,-0.402105745021744,0.658457312886245
1580420510.17551,-0.141359578850995,-0.7390249485008,0.607186999313345
1580420510.20768,-0.099855039291981,-0.719005111772335,0.78101777676051
1580420510.23985,-0.107179369802395,-0.643320363164721,0.793224994277868
1580420510.27203,-0.156984817273212,-0.619882505531395,0.665781643396659
1580420510.3042,-0.219485770962081,-0.627695124742504,0.702891584649425
1580420510.33637,-0.330327306019685,-0.745372701609826,0.809338521400779
1580420510.36854,-0.310307469291219,-0.922621499961853,0.748302433813993
1580420510.40072,-0.318120088502328,-0.69800869764248,0.787365529869536
1580420510.43289,-0.376226443884947,-0.742931258106355,0.787365529869536
1580420510.46506,-0.420660715648127,-0.687266346227206,0.838635843442436
1580420510.49723,-0.320561532005799,-0.642832074464026,0.875745784695201
1580420510.52941,-0.291264209964142,-0.630624856946669,0.756115053025102
1580420510.56158,-0.208743419546806,-0.643808651865415,0.80494392309453
1580420510.59375,-0.267338063630122,-0.602792401007095,0.762462806134128
1580420510.62592,-0.292240787365531,-0.649668116273746,0.754161898222325
1580420510.6581,-0.269779507133594,-0.661387045090409,0.703868162050814
1580420510.69027,-0.281498435950256,-0.672617685206378,0.783947508964676
1580420510.72244,-0.285893034256505,-0.666269932097352,0.737071793698025
1580420510.75462,-0.280033569848174,-0.667734798199435,0.753673609521631
1580420510.78679,-0.215579461356526,-0.623788815136949,0.723887998779279
1580420510.81896,-0.184817273212786,-0.635019455252918,0.722911421377891
1580420510.85113,-0.209719996948195,-0.603768978408484,0.713145647364005
1580420510.88331,-0.209231708247501,-0.627695124742504,0.670664530403602
1580420510.91548,-0.171633478294041,-0.664316777294575,0.750255588616771
1580420510.94765,-0.196536202029449,-0.678965438315403,0.865491721980622
1580420510.97983,-0.188235294117646,-0.598886091401541,0.585214007782103
1580420511.012,-0.186282139314869,-0.505134660868238,0.675059128709851
1580420511.04431,-0.263431754024568,-0.723399710078583,0.747325856412605
1580420511.07648,-0.291752498664836,-0.944594491493095,0.895765621423667
1580420511.10866,-0.217532616159303,-0.977309834439613,0.888441290913253
1580420511.14083,-0.136476691844052,-0.656015869382772,0.773205157549402
1580420511.173,-0.218997482261386,-0.279545281147479,0.725352864881362
1580420511.20518,-0.165285725185015,-0.46997787441825,0.701426718547342
1580420511.23735,-0.172610055695429,-0.790783550774396,0.79810788128481
1580420511.26952,-0.135988403143358,-1.0383459220264,0.579354543373771
1580420511.3017,-0.0837415121690697,-0.810315098802167,0.862073701075762
1580420511.33387,-0.181887541008621,-0.336186770428016,0.552010376134891
1580420511.36604,-0.0759288929579611,-0.505134660868238,0.790783550774396
1580420511.39822,-0.00805676356145568,-0.670664530403601,0.457770656900891
1580420511.43039,0.0104982070649271,-0.540291447318227,0.758556496528573
1580420511.46256,-0.0832532234683754,-0.702891584649423,0.680918593118182
1580420511.49474,-0.10083161669337,-0.729259174486915,0.767833981841765
1580420511.52691,-0.111573968108644,-0.755138475623713,0.646250095368888
1580420511.55908,-0.205325398641946,-0.726817730983443,0.767833981841765
1580420511.59125,-0.144289311055161,-0.809826810101473,0.766369115739682
1580420511.62343,-0.107179369802395,-0.655039291981383,0.809826810101473
1580420511.6556,-0.152101930266269,-0.712169069962615,0.765392538338293
1580420511.68777,-0.144777599755855,-0.71851682307164,0.786388952468148
1580420511.71995,-0.155519951171129,-0.732677195391775,0.807385366598002
1580420511.75212,-0.0983901731898982,-0.677012283512626,0.743419546807051
1580420511.78429,-0.0588387884336612,-0.687266346227206,0.779064621957733
1580420511.81647,-0.0686045624475469,-0.685801480125123,0.758556496528573
1580420511.84864,-0.099855039291981,-0.670176241702906,0.720469977874419
1580420511.88081,-0.0832532234683754,-0.686778057526512,0.712657358663311
1580420511.91299,-0.0915541313801782,-0.666758220798046,0.682383459220265
1580420511.94516,-0.112062256809338,-0.679453727016098,0.699473563744565
1580420511.97733,-0.0700694285496297,-0.648691538872358,0.669687953002214
1580420512.00951,-0.0539559014267184,-0.586190585183489,0.700450141145954
1580420512.04168,-0.060303654535744,-0.608163576714732,0.673594262607768
1580420512.07385,-0.0437018387121384,-0.612558175020981,0.571541924162663
1580420512.10602,-0.0666514076447697,-0.72535286488136,0.772228580148013
1580420512.1382,-0.116945143816281,-0.727306019684137,0.736095216296636
1580420512.17037,-0.163332570382238,-0.724376287479972,0.850354772259099
1580420512.20254,-0.243900205996795,-0.752208743419548,0.864515144579233
1580420512.23472,-0.213626306553749,-0.928969253070878,0.902113374532693
1580420512.26689,-0.149172198062104,-0.764415960936905,0.805920500495919
1580420512.29906,-0.166262302586404,-0.458747234302281,0.710215915159839
1580420512.33124,-0.151613641565575,-0.443610284580759,0.709239337758451
1580420512.36341,-0.134523537041275,-0.675547417410543,0.715587090867476
1580420512.39558,-0.114015411612115,-0.871351186388953,0.780529488059816
1580420512.42776,-0.154543373769741,-0.760021362630656,0.729747463187611
1580420512.45993,-0.178957808804455,-0.605722133211261,0.694102388036928
1580420512.4921,-0.0861829556725411,-0.56226443884947,0.647226672770277
1580420512.52428,-0.0407721065079727,-0.644785229266803,0.636972610055697
1580420512.55645,-0.0407721065079727,-0.695078965438315,0.742931258106356
1580420512.58862,-0.114015411612115,-0.632089723048752,0.671152819104297
1580420512.6208,-0.137941557946135,-0.644296940566109,0.62134737163348
1580420512.65297,-0.126710917830167,-0.758068207827879,0.744396124208439
1580420512.68514,-0.144289311055161,-0.680430304417486,0.712169069962616
1580420512.71731,-0.191653315022506,-0.651621271076523,0.671641107804991
1580420512.74949,-0.203860532539863,-0.705333028152895,0.762951094834822
1580420512.78166,-0.199465934233615,-0.755138475623713,0.740978103303579
1580420512.81383,-0.153566796368352,-0.758068207827879,0.786877241168842
1580420512.84601,-0.211184863050278,-0.741954680704966,0.764415960936905
1580420512.87818,-0.233646143282215,-0.686778057526512,0.754650186923019
1580420512.91035,-0.193118181124589,-0.720469977874417,0.765880827038988
1580420512.94253,-0.173586633096818,-0.69459067673762,0.750255588616771
1580420512.9747,-0.165774013885709,-0.688731212329289,0.745372701609828
1580420513.00687,-0.174074921797512,-0.667246509498741,0.734142061493859
1580420513.03905,-0.156496528572518,-0.710704203860532,0.768810559243153
1580420513.07122,-0.168215457389181,-0.657969024185549,0.734142061493859
1580420513.10339,-0.175051499198901,-0.645273517967498,0.716563668268865
1580420513.13557,-0.177981231403066,-0.664316777294575,0.719005111772336
1580420513.16774,-0.162355992980849,-0.690196078431372,0.667734798199437
1580420513.19991,-0.185305561913481,-0.675547417410543,0.689219501029985
1580420513.23209,-0.183352407110704,-0.689707789730678,0.702891584649425
1580420513.26426,-0.192141603723201,-0.653574425879301,0.695078965438316
1580420513.29643,-0.229739833676661,-0.626230258640421,0.696543831540399
1580420513.3286,-0.204837109941252,-0.713633936064697,0.722423132677196
1580420513.36078,-0.131105516136415,-0.695567254139009,0.711192492561228
1580420513.39295,-0.189700160219729,-0.669687953002212,0.752697032120242
1580420513.42512,-0.239505607690546,-0.602304112306401,0.830823224231327
1580420513.4573,-0.210696574349583,-0.720958266575112,0.751720454718853
1580420513.48947,-0.198977645532921,-0.885023270008393,0.708751049057756
1580420513.52164,-0.228763256275272,-0.852307927061876,0.636972610055697
1580420513.55382,-0.214114595254443,-0.619394216830701,0.698496986343176
1580420513.58599,-0.254642557412071,-0.53150225070573,0.662363622491799
1580420513.61829,-0.218020904859998,-0.585214007782101,0.591561760891128
1580420513.65046,-0.199465934233615,-0.80494392309453,0.652597848477914
1580420513.68263,-0.229739833676661,-0.672129396505683,0.63843747615778
1580420513.7148,-0.274174105439842,-0.626230258640421,0.728770885786222
1580420513.74698,-0.306401159685665,-0.658457312886243,0.688731212329291
1580420513.77915,-0.193118181124589,-0.836194399938964,0.80836194399939
1580420513.81132,-0.263431754024568,-0.751720454718853,0.706309605554285
1580420513.8435,-0.262943465323874,-0.67750057221332,0.737071793698025
1580420513.87567,-0.212649729152361,-0.724864576180666,0.689707789730679
1580420513.90784,-0.24682993820096,-0.641855497062638,0.660410467689022
1580420513.94002,-0.286381322957199,-0.645761806668192,0.648203250171665
1580420513.97219,-0.258548867017625,-0.639414053559166,0.686289768825819
1580420514.00436,-0.219485770962081,-0.635996032654306,0.725841153582056
1580420514.03654,-0.264408331425956,-0.666269932097352,0.698496986343176
1580420514.06871,-0.310307469291219,-0.81177996490425,0.689219501029985
1580420514.10088,-0.335698481727322,-0.851819638361182,0.733653772793165
1580420514.13306,-0.310795757991913,-0.660898756389715,0.719981689173725
1580420514.16523,-0.322514686808576,-0.591561760891127,0.631113145647365
1580420514.1974,-0.234134431982909,-0.727306019684137,0.675059128709851
1580420514.22958,-0.281010147249562,-0.676523994811932,0.726817730983445
1580420514.26175,-0.281498435950256,-0.732677195391775,0.652597848477914
1580420514.29392,-0.256595712214848,-0.758556496528573,0.718028534370948
1580420514.32609,-0.278080415045396,-0.74927901121538,0.687754634927902
1580420514.35827,-0.240970473792629,-0.716075379568169,0.667734798199437
1580420514.39044,-0.257084000915542,-0.632089723048752,0.627695124742505
1580420514.42261,-0.23999389639124,-0.643320363164721,0.668711375600825
1580420514.45479,-0.283451590753033,-0.671152819104295,0.670664530403602
1580420514.48696,-0.233646143282215,-0.631601434348058,0.692637521934845
1580420514.51913,-0.250736247806516,-0.76734569314107,0.654551003280691
1580420514.55131,-0.277592126344702,-0.810315098802167,0.703868162050814
1580420514.58348,-0.226810101472495,-0.663828488593881,0.687754634927902
1580420514.61565,-0.254642557412071,-0.666758220798046,0.666758220798048
1580420514.64783,-0.296635385671779,-0.671152819104295,0.745372701609828
1580420514.68,-0.253177691309988,-0.720469977874417,0.676035706111239
1580420514.71217,-0.241458762493323,-0.716075379568169,0.705333028152896
1580420514.74435,-0.267826352330816,-0.709727626459143,0.671641107804991
1580420514.77652,-0.296147096971085,-0.725841153582055,0.653086137178608
1580420514.80869,-0.299076829175251,-0.699473563744563,0.706309605554285
1580420514.84087,-0.267826352330816,-0.68433661402304,0.670664530403602
1580420514.87304,-0.261478599221791,-0.697520408941786,0.702403295948731
1580420514.9053,-0.228763256275272,-0.69117265583276,0.721446555275808
1580420514.93748,-0.258548867017625,-0.678965438315403,0.696543831540399
1580420514.96965,-0.258060578316931,-0.720958266575112,0.677500572213322
1580420515.00182,-0.312260624093996,-0.678477149614709,0.697520408941788
1580420515.034,-0.288822766460671,-0.656504158083466,0.698008697642482
1580420515.06617,-0.288822766460671,-0.695567254139009,0.682383459220265
1580420515.09834,-0.231692988479438,-0.674570840009155,0.744884412909133
1580420515.13052,-0.261478599221791,-0.628183413443198,0.686778057526514
1580420515.16269,-0.251712825207905,-0.693614099336232,0.692149233234151
1580420515.19486,-0.296147096971085,-0.802990768291753,0.682871747920959
1580420515.22704,-0.294682230869002,-0.719005111772335,0.706797894254979
1580420515.25921,-0.316655222400245,-0.639414053559166,0.680918593118182
1580420515.29138,-0.264408331425956,-0.734142061493857,0.642832074464028
1580420515.32355,-0.256107423514154,-0.750743877317465,0.654062714579997
1580420515.35573,-0.307866025787748,-0.647226672770275,0.689707789730679
1580420515.3879,-0.299076829175251,-0.637949187457084,0.674082551308462
1580420515.42007,-0.244876783398183,-0.663340199893186,0.704356450751508
1580420515.45225,-0.299565117875945,-0.669687953002212,0.712657358663311
1580420515.48442,-0.300053406576639,-0.681406881818875,0.705333028152896
1580420515.51659,-0.258548867017625,-0.750255588616771,0.703868162050814
1580420515.54877,-0.287357900358588,-0.719493400473029,0.745372701609828
1580420515.58094,-0.297611963073168,-0.595956359197375,0.705333028152896
1580420515.61311,-0.284916456855116,-0.652109559777218,0.695567254139011
1580420515.64529,-0.282963302052339,-0.741466392004272,0.703379873350119
1580420515.67746,-0.283939879453728,-0.676523994811932,0.670176241702908
1580420515.70963,-0.311772335393302,-0.643808651865415,0.667734798199437
1580420515.74181,-0.315190356298162,-0.621347371633478,0.721934843976502
1580420515.77398,-0.343999389639125,-0.643320363164721,0.677012283512628
1580420515.80615,-0.275638971541925,-0.726329442282749,0.668223086900131
1580420515.83833,-0.315678644998856,-0.695567254139009,0.701915007248036
1580420515.8705,-0.361577782864119,-0.586190585183489,0.745860990310522
1580420515.90267,-0.324956130312048,-0.688731212329289,0.748302433813993
1580420515.93484,-0.275638971541925,-0.734630350194552,0.689707789730679
1580420515.96702,-0.331303883421073,-0.71851682307164,0.680918593118182
1580420515.99919,-0.344975967040513,-0.574959945067521,0.669687953002214
1580420516.03136,-0.304448004882888,-0.633066300450141,0.62134737163348
1580420516.06354,-0.315190356298162,-0.706309605554283,0.702403295948731
1580420516.09571,-0.32642099641413,-0.697520408941786,0.672617685206379
1580420516.12788,-0.341069657434959,-0.656504158083466,0.683360036621654
1580420516.16006,-0.310795757991913,-0.720958266575112,0.707286182955674
1580420516.19229,-0.342046234836348,-0.665293354695963,0.707774471656368
1580420516.22446,-0.334233615625239,-0.646738384069581,0.705821316853591
1580420516.25664,-0.343022812237736,-0.635019455252918,0.612069886320288
1580420516.28881,-0.306889448386359,-0.71851682307164,0.712169069962616
1580420516.32098,-0.323491264209965,-0.669687953002212,0.709727626459145
1580420516.35316,-0.342046234836348,-0.618417639429312,0.699473563744565
1580420516.38533,-0.341069657434959,-0.70142671854734,0.759533073929962
1580420516.41751,-0.321049820706493,-0.644785229266803,0.723887998779279
1580420516.44968,-0.32642099641413,-0.733653772793163,0.681895170519571
1580420516.48185,-0.334233615625239,-0.729259174486915,0.689707789730679
1580420516.51403,-0.328374151216908,-0.675547417410543,0.674082551308462
1580420516.5462,-0.332768749523156,-0.614999618524452,0.665293354695965
1580420516.57837,-0.274662394140536,-0.638925764858472,0.634042877851531
1580420516.61055,-0.272709239337759,-0.716563668268863,0.681895170519571
1580420516.64272,-0.345464255741208,-0.617929350728618,0.714610513466088
1580420516.67489,-0.307866025787748,-0.650644693675135,0.676523994811934
1580420516.70707,-0.291752498664836,-0.712169069962615,0.664316777294577
1580420516.73924,-0.269779507133594,-0.700450141145952,0.682871747920959
1580420516.77142,-0.319096665903716,-0.649668116273746,0.657480735484857
1580420516.80359,-0.316166933699551,-0.627206836041809,0.721446555275808
1580420516.83576,-0.34009308003357,-0.668223086900129,0.685313191424431
1580420516.86794,-0.320073243305105,-0.745372701609826,0.720958266575114
1580420516.90011,-0.361577782864119,-0.656992446784161,0.676035706111239
1580420516.93228,-0.273685816739148,-0.743907835507743,0.679942015716794
1580420516.96446,-0.328374151216908,-0.658457312886243,0.780041199359122
1580420516.99663,-0.373296711680782,-0.573983367666132,0.733165484092471
1580420517.02881,-0.285893034256505,-0.717540245670252,0.676523994811934
1580420517.06098,-0.296635385671779,-0.720469977874417,0.705821316853591
1580420517.09315,-0.33325703822385,-0.69459067673762,0.671641107804991
1580420517.12533,-0.32300297550927,-0.614999618524452,0.685313191424431
1580420517.1575,-0.287846189059282,-0.629648279545281,0.635996032654308
1580420517.18967,-0.339116502632182,-0.584237430380712,0.648203250171665
1580420517.22185,-0.297123674372473,-0.733653772793163,0.656504158083468
1580420517.25402,-0.318608377203022,-0.714122224765392,0.703379873350119
1580420517.28619,-0.328374151216908,-0.662851911192492,0.679453727016099
1580420517.31837,-0.318120088502328,-0.734630350194552,0.700450141145954
1580420517.35054,-0.35034714274815,-0.573006790264744,0.696543831540399
1580420517.38271,-0.317143511100939,-0.599862668802929,0.647226672770277
1580420517.41489,-0.306401159685665,-0.696055542839703,0.685801480125125
1580420517.44706,-0.327885862516213,-0.661387045090409,0.745860990310522
1580420517.47928,-0.338628213931488,-0.635996032654306,0.703379873350119
1580420517.51145,-0.339604791332876,-0.769787136644542,0.739513237201496
1580420517.54363,-0.337651636530099,-0.732677195391775,0.680918593118182
1580420517.5758,-0.335210193026628,-0.591561760891127,0.718516823071642
1580420517.60798,-0.35718318455787,-0.623300526436255,0.673105973907074
1580420517.64015,-0.309330891889831,-0.67750057221332,0.674082551308462
1580420517.67232,-0.287357900358588,-0.70142671854734,0.667734798199437
1580420517.7045,-0.318120088502328,-0.634042877851529,0.687754634927902
1580420517.73667,-0.284916456855116,-0.660898756389715,0.667246509498742
1580420517.76884,-0.305912870984971,-0.640390630960555,0.685801480125125
1580420517.80102,-0.332768749523156,-0.633554589150835,0.664316777294577
1580420517.83319,-0.329350728618296,-0.652597848477912,0.681895170519571
1580420517.86537,-0.268802929732205,-0.726817730983443,0.652597848477914
1580420517.89754,-0.34351110093843,-0.584725719081407,0.711192492561228
1580420517.92972,-0.348882276646068,-0.693125810635538,0.688731212329291
1580420517.96189,-0.342534523537042,-0.661387045090409,0.707286182955674
1580420517.99406,-0.337163347829405,-0.678477149614709,0.680430304417488
1580420518.02624,-0.318608377203022,-0.693125810635538,0.735118638895248
1580420518.05841,-0.355718318455787,-0.611581597619592,0.715587090867476
1580420518.09059,-0.291752498664836,-0.74927901121538,0.716075379568171
1580420518.12276,-0.296147096971085,-0.689707789730678,0.745860990310522
1580420518.15493,-0.318120088502328,-0.639902342259861,0.650644693675137
1580420518.18711,-0.327885862516213,-0.652109559777218,0.707286182955674
1580420518.21928,-0.345464255741208,-0.485114824139773,0.646250095368888
1580420518.25146,-0.301518272678722,-0.737560082398717,0.650644693675137
1580420518.28363,-0.33325703822385,-0.745372701609826,0.743419546807051
1580420518.3158,-0.338139925230793,-0.606210421911955,0.667246509498742
1580420518.34798,-0.310795757991913,-0.681895170519569,0.691660944533457
1580420518.38015,-0.307377737087053,-0.648691538872358,0.720958266575114
1580420518.41233,-0.324467841611353,-0.642832074464026,0.683848325322348
1580420518.4445,-0.346440833142596,-0.672617685206378,0.699961852445259
1580420518.47668,-0.361089494163425,-0.653086137178606,0.670176241702908
1580420518.50885,-0.321049820706493,-0.768810559243153,0.692149233234151
1580420518.54102,-0.364995803768979,-0.672617685206378,0.719493400473031
1580420518.5732,-0.310307469291219,-0.651132982375829,0.673594262607768
1580420518.60537,-0.310307469291219,-0.732677195391775,0.694102388036928
1580420518.63755,-0.328374151216908,-0.686778057526512,0.695078965438316
1580420518.66972,-0.356694895857176,-0.583749141680018,0.673105973907074
1580420518.70189,-0.32983901731899,-0.654062714579995,0.65552758068208
1580420518.73407,-0.304936293583582,-0.751232166018159,0.646738384069582
1580420518.76626,-0.322514686808576,-0.667246509498741,0.697032120241094
1580420518.79844,-0.356694895857176,-0.586678873884184,0.647714961470971
1580420518.83061,-0.287357900358588,-0.72535286488136,0.695567254139011
1580420518.86279,-0.326909285114825,-0.669199664301518,0.686289768825819
1580420518.89496,-0.34351110093843,-0.697520408941786,0.660898756389717
1580420518.92714,-0.372808422980087,-0.594003204394598,0.689707789730679
1580420518.95931,-0.341557946135653,-0.713145647364003,0.6281834134432
1580420518.99148,-0.366460669871062,-0.710215915159838,0.703379873350119
1580420519.02366,-0.372808422980087,-0.660410467689021,0.668223086900131
1580420519.05583,-0.33325703822385,-0.754650186923019,0.707774471656368
1580420519.08801,-0.348882276646068,-0.655527580682078,0.737071793698025
1580420519.12018,-0.362066071564813,-0.612558175020981,0.695078965438316
1580420519.15235,-0.340581368734265,-0.664316777294575,0.681406881818877
1580420519.18453,-0.325932707713436,-0.71509880216678,0.634042877851531
1580420519.2167,-0.351812008850233,-0.656015869382772,0.658457312886245
1580420519.24888,-0.371831845578699,-0.621347371633478,0.616952773327231
1580420519.28105,-0.306401159685665,-0.714122224765392,0.618905928130008
1580420519.31323,-0.320561532005799,-0.719493400473029,0.676035706111239
1580420519.3454,-0.373296711680782,-0.603280689707789,0.657480735484857
1580420519.37757,-0.374761577782865,-0.626718547341115,0.688242923628597
1580420519.40975,-0.317143511100939,-0.733653772793163,0.685313191424431
1580420519.44192,-0.363042648966202,-0.681406881818875,0.704356450751508
1580420519.4741,-0.385015640497445,-0.645273517967498,0.717540245670254
1580420519.50627,-0.363042648966202,-0.641855497062638,0.689219501029985
1580420519.53844,-0.324467841611353,-0.712657358663309,0.691660944533457
1580420519.57062,-0.358648050659953,-0.757579919127185,0.724864576180668
1580420519.60279,-0.361577782864119,-0.652597848477912,0.694102388036928
1580420519.63497,-0.342046234836348,-0.609628442816815,0.693125810635539
1580420519.66714,-0.34351110093843,-0.640390630960555,0.661875333791105
1580420519.69931,-0.362554360265507,-0.658945601586938,0.641367208361945
1580420519.73149,-0.345952544441902,-0.702891584649423,0.657480735484857
1580420519.76366,-0.342534523537042,-0.646738384069581,0.667734798199437
1580420519.79584,-0.326909285114825,-0.623300526436255,0.672129396505685
1580420519.82801,-0.34692912184329,-0.638925764858472,0.707774471656368
1580420519.86018,-0.333745326924545,-0.663828488593881,0.680918593118182
1580420519.89236,-0.352788586251622,-0.628671702143892,0.704844739452202
1580420519.92453,-0.378179598687725,-0.634042877851529,0.660410467689022
1580420519.95671,-0.332768749523156,-0.736583504997329,0.650156404974442
1580420519.98888,-0.329350728618296,-0.685801480125123,0.670664530403602
1580420520.02106,-0.373296711680782,-0.623300526436255,0.679453727016099
1580420520.05328,-0.36401922636759,-0.679453727016098,0.679453727016099
1580420520.08546,-0.328862439917602,-0.714122224765392,0.716563668268865
1580420520.11763,-0.359624628061342,-0.672129396505683,0.712169069962616
1580420520.14981,-0.37085526817731,-0.654551003280689,0.712657358663311
1580420520.18198,-0.332768749523156,-0.676035706111238,0.701426718547342
1580420520.21415,-0.302494850080111,-0.696543831540398,0.602304112306403
1580420520.24633,-0.373296711680782,-0.562752727550164,0.687266346227208
1580420520.2785,-0.391851682307164,-0.622323949034866,0.583260852979326
1580420520.31068,-0.335210193026628,-0.788830395971619,0.695567254139011
1580420520.34285,-0.39136339360647,-0.642832074464026,0.672129396505685
1580420520.37502,-0.364995803768979,-0.709727626459143,0.641367208361945
1580420520.4072,-0.378667887388419,-0.662851911192492,0.719981689173725
1580420520.43937,-0.385015640497445,-0.551033798733501,0.671641107804991
1580420520.47155,-0.365484092469673,-0.705821316853589,0.659433890287634
1580420520.50372,-0.385503929198139,-0.684824902723735,0.726329442282751
1580420520.53589,-0.389898527504387,-0.679453727016098,0.719981689173725
1580420520.56807,-0.348882276646068,-0.706797894254978,0.690684367132068
1580420520.60024,-0.370366979476616,-0.638437476157778,0.667246509498742
1580420520.63242,-0.403570611123827,-0.604257267109178,0.702891584649425
1580420520.66459,-0.408941786831464,-0.616952773327229,0.646738384069582
1580420520.69677,-0.37427328908217,-0.751232166018159,0.627206836041811
1580420520.72894,-0.363042648966202,-0.760021362630656,0.709727626459145
1580420520.76111,-0.384039063096056,-0.635996032654306,0.714122224765394
1580420520.79329,-0.356694895857176,-0.691660944533455,0.681895170519571
1580420520.82546,-0.308842603189136,-0.706309605554283,0.680918593118182
1580420520.85764,-0.311284046692608,-0.584237430380712,0.676523994811934
1580420520.88981,-0.350835431448845,-0.591561760891127,0.689219501029985
1580420520.92198,-0.308354314488442,-0.742931258106355,0.642343785763334
1580420520.95416,-0.366948958571756,-0.751720454718853,0.61792935072862
1580420520.98633,-0.351812008850233,-0.703379873350118,0.675547417410545
1580420521.01851,-0.349370565346762,-0.598397802700847,0.694590676737622
1580420521.05068,-0.276615548943314,-0.603768978408484,0.562752727550166
1580420521.08285,-0.270756084534982,-0.747325856412603,0.686289768825819
1580420521.11503,-0.415777828641184,-0.569588769359884,0.722911421377891
1580420521.1472,-0.327885862516213,-0.647226672770275,0.689219501029985
1580420521.17938,-0.308842603189136,-0.803967345693142,0.719981689173725
1580420521.21155,-0.342046234836348,-0.728282597085526,0.709727626459145
1580420521.24372,-0.360112916762036,-0.602304112306401,0.6452735179675
1580420521.2759,-0.352788586251622,-0.604257267109178,0.691660944533457
1580420521.30807,-0.349858854047456,-0.636484321355001,0.597909514000154
1580420521.3403,-0.34009308003357,-0.754161898222325,0.676035706111239
1580420521.37247,-0.397222858014802,-0.612069886320286,0.673105973907074
1580420521.40465,-0.391851682307164,-0.672129396505683,0.650156404974442
1580420521.43682,-0.379644464789807,-0.718028534370946,0.732188906691082
1580420521.469,-0.334233615625239,-0.709239337758449,0.710704203860534
1580420521.50117,-0.359136339360647,-0.672129396505683,0.680918593118182
1580420521.53335,-0.397711146715496,-0.660898756389715,0.695078965438316
1580420521.56552,-0.387457084000916,-0.686778057526512,0.650644693675137
1580420521.59769,-0.339116502632182,-0.74927901121538,0.635996032654308
1580420521.62987,-0.38452735179675,-0.709727626459143,0.675059128709851
1580420521.66204,-0.382085908293279,-0.672617685206378,0.684824902723737
1580420521.69422,-0.375738155184253,-0.619394216830701,0.679942015716794
1580420521.72639,-0.316166933699551,-0.644296940566109,0.639902342259862
1580420521.75856,-0.34009308003357,-0.696543831540398,0.630624856946671
1580420521.79074,-0.354741741054399,-0.69459067673762,0.663340199893188
1580420521.82291,-0.353276874952316,-0.669687953002212,0.630624856946671
1580420521.85509,-0.336186770428016,-0.70826276035706,0.640390630960557
1580420521.88726,-0.375738155184253,-0.647226672770275,0.672129396505685
1580420521.91944,-0.352788586251622,-0.609628442816815,0.656504158083468
1580420521.95161,-0.34692912184329,-0.581307698176547,0.662363622491799
1580420521.98378,-0.356206607156482,-0.740978103303577,0.613534752422371
1580420522.01596,-0.360112916762036,-0.775646601052873,0.690684367132068
1580420522.04813,-0.378179598687725,-0.641367208361943,0.687754634927902
1580420522.08031,-0.365972381170367,-0.685313191424429,0.680918593118182
1580420522.11248,-0.325932707713436,-0.80836194399939,0.675547417410545
1580420522.14465,-0.345464255741208,-0.684824902723735,0.656504158083468
1580420522.17683,-0.367925535973145,-0.559822995345998,0.575448233768217
1580420522.209,-0.34351110093843,-0.669199664301518,0.660410467689022
1580420522.24118,-0.339116502632182,-0.654551003280689,0.659922178988328
1580420522.27335,-0.380621042191196,-0.729259174486915,0.672129396505685
1580420522.30552,-0.39819943541619,-0.71168078126192,0.675547417410545
1580420522.3377,-0.355230029755093,-0.705821316853589,0.696543831540399
1580420522.36987,-0.34009308003357,-0.669687953002212,0.674082551308462
1580420522.40205,-0.325932707713436,-0.618905928130006,0.637460898756391
1580420522.43422,-0.353276874952316,-0.673105973907072,0.677012283512628
1580420522.46639,-0.364995803768979,-0.693125810635538,0.670664530403602
1580420522.49857,-0.361577782864119,-0.712657358663309,0.657969024185551
1580420522.53074,-0.347905699244679,-0.728282597085526,0.669199664301519
1580420522.56292,-0.327397573815519,-0.683848325322346,0.649668116273748
1580420522.59509,-0.332280460822462,-0.647226672770275,0.667246509498742
1580420522.62729,-0.368413824673839,-0.635507743953612,0.630624856946671
1580420522.65946,-0.364507515068285,-0.680430304417486,0.664805065995271
1580420522.69164,-0.383062485694667,-0.7048447394522,0.671152819104297
1580420522.72381,-0.338628213931488,-0.690196078431372,0.682383459220265
1580420522.75599,-0.348393987945373,-0.695567254139009,0.622812237735562
1580420522.78816,-0.341557946135653,-0.697520408941786,0.676523994811934
1580420522.82033,-0.383062485694667,-0.656504158083466,0.694102388036928
1580420522.85251,-0.407965209430076,-0.577401388570992,0.660410467689022
1580420522.88468,-0.324956130312048,-0.696543831540398,0.711680781261922
1580420522.91685,-0.332280460822462,-0.746837567711909,0.664805065995271
1580420522.94903,-0.356206607156482,-0.636972610055695,0.702403295948731
1580420522.9812,-0.379156176089113,-0.610605020218204,0.709727626459145
1580420523.01338,-0.353276874952316,-0.67750057221332,0.712169069962616
1580420523.04555,-0.31958495460441,-0.709239337758449,0.65210955977722
1580420523.07773,-0.320073243305105,-0.668711375600823,0.711680781261922
1580420523.1099,-0.376714732585642,-0.563241016250858,0.65552758068208
1580420523.14207,-0.327885862516213,-0.669199664301518,0.649179827573054
1580420523.17425,-0.368902113374533,-0.619882505531395,0.660410467689022
1580420523.20642,-0.378667887388419,-0.704356450751506,0.679942015716794
1580420523.2386,-0.335210193026628,-0.6877546349279,0.661875333791105
1580420523.27077,-0.296147096971085,-0.730724040588997,0.62134737163348
1580420523.30294,-0.451422903791867,-0.621347371633478,0.677500572213322
1580420523.33512,-0.400640878919662,-0.666269932097352,0.640878919661251
1580420523.36729,-0.36401922636759,-0.735118638895246,0.63501945525292
1580420523.39947,-0.358648050659953,-0.669687953002212,0.757579919127185
1580420523.43164,-0.365972381170367,-0.676523994811932,0.734630350194553
1580420523.46381,-0.337651636530099,-0.635019455252918,0.713633936064699
1580420523.49599,-0.327885862516213,-0.702403295948729,0.634531166552225
1580420523.52816,-0.36743724727245,-0.719981689173723,0.618905928130008
1580420523.56034,-0.373296711680782,-0.637460898756389,0.650156404974442
1580420523.59251,-0.356206607156482,-0.596444647898069,0.687266346227208
1580420523.62469,-0.347905699244679,-0.618417639429312,0.686289768825819
1580420523.65686,-0.352300297550928,-0.703868162050812,0.669687953002214
1580420523.68903,-0.393316548409247,-0.700938429846646,0.703868162050814
1580420523.72121,-0.378179598687725,-0.577401388570992,0.697032120241094
1580420523.75338,-0.324467841611353,-0.605722133211261,0.684824902723737
1580420523.78556,-0.334233615625239,-0.724376287479972,0.667734798199437
1580420523.81773,-0.328374151216908,-0.78443579766537,0.644785229266805
1580420523.84991,-0.390386816205082,-0.685313191424429,0.622323949034868
1580420523.88208,-0.382085908293279,-0.583749141680018,0.656504158083468
1580420523.91424,-0.347905699244679,-0.562752727550164,0.649179827573054
1580420523.94642,-0.365972381170367,-0.655039291981383,0.662363622491799
1580420523.97859,-0.369878690775922,-0.760509651331351,0.663340199893188
1580420524.01077,-0.388921950102999,-0.720958266575112,0.714122224765394
1580420524.04294,-0.41870756084535,-0.661875333791103,0.744396124208439
1580420524.07512,-0.345952544441902,-0.704356450751506,0.686778057526514
1580420524.10729,-0.341557946135653,-0.688731212329289,0.710704203860534
1580420524.13947,-0.359624628061342,-0.611093308918898,0.695567254139011
1580420524.17164,-0.365972381170367,-0.551033798733501,0.667734798199437
1580420524.20382,-0.300541695277333,-0.642832074464026,0.65552758068208
1580420524.23599,-0.336186770428016,-0.655527580682078,0.679942015716794
1580420524.26817,-0.375738155184253,-0.640390630960555,0.672617685206379
1580420524.30034,-0.311284046692608,-0.647714961470969,0.638925764858474
1580420524.33252,-0.369878690775922,-0.661387045090409,0.634531166552225
1580420524.36469,-0.420660715648127,-0.643808651865415,0.684336614023042
1580420524.39686,-0.404547188525216,-0.633066300450141,0.693125810635539
1580420524.42904,-0.312260624093996,-0.706309605554283,0.667246509498742
1580420524.46121,-0.344487678339819,-0.763439383535516,0.680430304417488
1580420524.49339,-0.385503929198139,-0.734142061493857,0.675059128709851
1580420524.52556,-0.372320134279393,-0.647714961470969,0.703868162050814
1580420524.55774,-0.365972381170367,-0.565194171053635,0.721934843976502
1580420524.58991,-0.329350728618296,-0.619882505531395,0.679453727016099
1580420524.62209,-0.361089494163425,-0.71509880216678,0.645761806668194
1580420524.65426,-0.373296711680782,-0.698496986343175,0.629648279545282
1580420524.68643,-0.400152590218967,-0.648203250171663,0.651132982375831
1580420524.71861,-0.392339971007859,-0.656504158083466,0.611581597619594
1580420524.75078,-0.394293125810636,-0.647714961470969,0.673594262607768
1580420524.78296,-0.333745326924545,-0.681895170519569,0.662363622491799
1580420524.81513,-0.324956130312048,-0.638437476157778,0.701915007248036
1580420524.84731,-0.431891355764096,-0.666269932097352,0.704356450751508
1580420524.87948,-0.363530937666896,-0.74586099031052,0.670664530403602
1580420524.91166,-0.32642099641413,-0.604745555809872,0.721934843976502
1580420524.94383,-0.34351110093843,-0.580331120775158,0.729747463187611
1580420524.97601,-0.340581368734265,-0.568612191958495,0.681895170519571
1580420525.00818,-0.301518272678722,-0.648691538872358,0.695078965438316
1580420525.04036,-0.373296711680782,-0.678965438315403,0.687266346227208
1580420525.07253,-0.333745326924545,-0.696055542839703,0.630136568245977
1580420525.1047,-0.359136339360647,-0.635996032654306,0.683360036621654
1580420525.13688,-0.424078736552987,-0.595956359197375,0.706797894254979
1580420525.16905,-0.367925535973145,-0.653574425879301,0.657480735484857
1580420525.20126,-0.334233615625239,-0.701915007248035,0.664805065995271
1580420525.23344,-0.31958495460441,-0.7048447394522,0.748790722514688
1580420525.26561,-0.373296711680782,-0.611093308918898,0.709727626459145
1580420525.29779,-0.344975967040513,-0.579354543373769,0.699961852445259
1580420525.32996,-0.333745326924545,-0.642832074464026,0.692637521934845
1580420525.36214,-0.342534523537042,-0.630624856946669,0.674570840009157
1580420525.39431,-0.37085526817731,-0.709239337758449,0.626718547341117
1580420525.42648,-0.383550774395362,-0.69459067673762,0.646738384069582
1580420525.45866,-0.34351110093843,-0.654551003280689,0.660410467689022
1580420525.49083,-0.374761577782865,-0.642832074464026,0.680918593118182
1580420525.52301,-0.412359807736324,-0.656504158083466,0.697520408941788
1580420525.55518,-0.35034714274815,-0.683360036621652,0.707286182955674
1580420525.58736,-0.315678644998856,-0.653086137178606,0.734142061493859
1580420525.61953,-0.364995803768979,-0.570077058060578,0.709239337758451
1580420525.65171,-0.335698481727322,-0.604257267109178,0.704356450751508
1580420525.68388,-0.36401922636759,-0.648691538872358,0.734142061493859
1580420525.71606,-0.37085526817731,-0.682871747920958,0.668223086900131
1580420525.74823,-0.357671473258565,-0.706797894254978,0.727306019684139
1580420525.78041,-0.34692912184329,-0.612069886320286,0.736095216296636
1580420525.81258,-0.32983901731899,-0.631601434348058,0.734630350194553
1580420525.84475,-0.338628213931488,-0.635996032654306,0.725841153582056
1580420525.87693,-0.356206607156482,-0.595468070496681,0.706797894254979
1580420525.9091,-0.335210193026628,-0.633554589150835,0.670664530403602
1580420525.94128,-0.322026398107882,-0.687266346227206,0.681895170519571
1580420525.97345,-0.347905699244679,-0.668223086900129,0.681406881818877
1580420526.00563,-0.372320134279393,-0.585702296482795,0.693614099336234
1580420526.0378,-0.368902113374533,-0.628183413443198,0.701915007248036
1580420526.06998,-0.358648050659953,-0.677988860914015,0.696543831540399
1580420526.10215,-0.354253452353705,-0.677012283512626,0.695567254139011
1580420526.13433,-0.32642099641413,-0.664316777294575,0.706309605554285
1580420526.1665,-0.34692912184329,-0.673594262607766,0.701915007248036
1580420526.19867,-0.333745326924545,-0.666269932097352,0.706309605554285
1580420526.23085,-0.35376516365301,-0.655039291981383,0.703379873350119
1580420526.26302,-0.323491264209965,-0.614511329823758,0.687266346227208
1580420526.2952,-0.345464255741208,-0.653086137178606,0.567147325856414
1580420526.32737,-0.400152590218967,-0.669687953002212,0.608651865415428
1580420526.35955,-0.389898527504387,-0.649668116273746,0.670664530403602
1580420526.39172,-0.360112916762036,-0.652597848477912,0.691660944533457
1580420526.4239,-0.392828259708553,-0.591561760891127,0.716563668268865
1580420526.45607,-0.34351110093843,-0.69800869764248,0.687754634927902
1580420526.48822,-0.342534523537042,-0.696543831540398,0.671641107804991
1580420526.52039,-0.390386816205082,-0.659433890287632,0.705333028152896
1580420526.55257,-0.451422903791867,-0.612069886320286,0.740489814602885
1580420526.58474,-0.356694895857176,-0.593026626993209,0.712657358663311
1580420526.61692,-0.336186770428016,-0.670664530403601,0.697520408941788
1580420526.64909,-0.346440833142596,-0.692637521934843,0.670176241702908
1580420526.68127,-0.379156176089113,-0.576424811169604,0.695078965438316
1580420526.71344,-0.393316548409247,-0.572518501564049,0.63501945525292
1580420526.74562,-0.345952544441902,-0.643808651865415,0.613534752422371
1580420526.77779,-0.400640878919662,-0.583749141680018,0.676035706111239
1580420526.80997,-0.398687724116884,-0.45288776989395,0.726817730983445
1580420526.84214,-0.341069657434959,-0.526619363698787,0.683360036621654
1580420526.87432,-0.341069657434959,-0.667246509498741,0.699473563744565
1580420526.90649,-0.478767071030747,-0.675059128709849,0.705333028152896
1580420526.93866,-0.44605172808423,-0.606698710612649,0.646738384069582
1580420526.97084,-0.328374151216908,-0.519295033188373,0.634531166552225
1580420527.00301,-0.354741741054399,-0.472419317921721,0.583260852979326
1580420527.03519,-0.470954451819638,-0.412359807736324,0.658457312886245
1580420527.06736,-0.485114824139773,-0.314213778896773,0.5769130998703
1580420527.09954,-0.549080643930724,-0.235111009384298,0.588143739986268
1580420527.13171,-0.557381551842527,-0.434332799267567,0.389898527504386
1580420527.16389,-0.719005111772335,-0.402594033722439,0.704356450751508
1580420527.19606,-0.776623178454262,-0.350835431448845,0.582772564278631
1580420527.22824,-0.719005111772335,-0.488532845044633,0.433356221866177
1580420527.26041,-0.878675516899367,-0.255130846112765,0.601815823605708
1580420527.29258,-0.95875486381323,-0.166750591287098,0.495857175555045
1580420527.32476,-0.90748455024033,-0.349858854047456,0.560799572747388
1580420527.35693,-0.983657587548638,-0.116456855115587,0.510994125276572
1580420527.38911,-1.0036774242771,0.00903334096284425,0.321538109407186
1580420527.42128,-1.00904859998474,-0.122316319523918,0.361577782864117
1580420527.45346,-1.0383459220264,-0.0568856336308841,0.358648050659951
1580420527.48563,-1.05201800564584,0.10083161669337,0.30151827267872
1580420527.51781,-1.14772259098192,0.226810101472495,0.28784618905928
1580420527.54998,-1.09889372091249,0.0329594872968642,0.355718318455786
1580420527.58216,-1.06617837796597,-0.207278553444723,0.300541695277332
1580420527.61433,-1.11744869153887,-0.106202792401007,0.260990310521095
1580420527.6465,-1.05299458304723,0.0217288471808956,0.287357900358586
1580420527.67868,-1.00074769207294,0.11792172121767,0.156984817273212
1580420527.71085,-0.976821545738918,0.134035248340581,0.174563210498206
1580420527.74303,-0.990005340657664,0.067139696345464,0.154055085069047
1580420527.77518,-1.02467383840696,0.0197756923781185,0.114991989013504
1580420527.80735,-1.0207675288014,0.0280766002899213,0.103273060196841
1580420527.83953,-0.981704432745861,0.0173342488746471,0.140383001449607
1580420527.8717,-0.975356679636835,-0.0793469138628211,0.11108567940795
1580420527.90387,-0.953871976806287,-0.0280766002899213,-0.044678416113527
1580420527.93605,-1.00123598077363,0.0559090562294955,0.099855039291981
1580420527.96822,-0.977309834439613,0.034424353398947,0.0954604409857325
1580420528.0004,-1.03199816891737,0.037842374303807,0.101808194094758
1580420528.03257,-1.01588464179446,-0.0153810940718699,0.0764171816586554
1580420528.06475,-1.00221255817502,-0.0524910353246355,0.106691081101701
1580420528.09692,-1.0041657129778,-0.00512703135728998,0.0871595330739297
1580420528.1291,-0.981216144045167,0.060303654535744,0.0944838635843439
1580420528.16127,-1.0036774242771,0.0534676127260241,0.0856946669718468
1580420528.19345,-0.980727855344472,0.0217288471808956,0.118898298619058
1580420528.22562,-1.01930266269932,0.041260395208667,0.0627450980392155
1580420528.25779,-1.04811169604028,0.0485847257190812,0.099855039291981
1580420528.28997,-1.01588464179446,-0.0334477759975584,0.116456855115587
1580420528.32214,-0.984634164950027,-0.0617685206378269,0.0642099641412983
1580420528.35432,-1.02320897230488,0.0583504997329669,0.01196307316701
1580420528.38649,-1.01930266269932,0.115480277714198,0.0905775539787896
1580420528.41867,-1.01197833218891,0.0935072861829553,0.0793469138628211
1580420528.45084,-0.97926298924239,0.0715342946517126,0.0510261692225527
1580420528.48302,-0.998306248569467,0.0622568093385212,0.0856946669718468
1580420528.51519,-0.97242694743267,0.0607919432364383,0.0305180437933927
1580420528.54737,-0.998794537270161,0.0710460059510183,0.0627450980392155
1580420528.57954,-1.02565041580835,0.109620813305867,0.0627450980392155
1580420528.61172,-1.01490806439307,0.126710917830167,0.0324711985961699
1580420528.64389,-1.00318913557641,0.132082093537804,0.00708018616006711
1580420528.67606,-0.97584496833753,0.0993667505912867,0.0202639810788128
1580420528.70824,-0.981216144045167,0.0983901731898982,0.0183108262760356
1580420528.74041,-0.97584496833753,0.102784771496147,0.0314946211947813
1580420528.77259,-0.99635309376669,0.132570382238498,0.0544441901274126
1580420528.80476,-0.99977111467155,0.127199206530861,0.0510261692225527
1580420528.83694,-0.98951705195697,0.108644235904478,0.112550545510032
1580420528.86911,-0.988052185854887,0.0944838635843439,0.128175783932249
1580420528.90129,-0.990005340657664,0.0842298008697639,0.105226214999618
1580420528.93346,-0.994888227664607,0.0817883573662925,0.103761348897535
1580420528.96564,-1.01197833218891,0.063721675440604,0.128175783932249
1580420528.99781,-0.998794537270161,0.0407721065079727,0.118898298619058
1580420529.02999,-0.98609903105211,0.0485847257190812,0.0871595330739297
1580420529.06219,-1.01197833218891,0.0490730144197755,0.109132524605172
1580420529.09437,-1.01490806439307,0.0578622110322726,0.121828030823224
1580420529.12654,-0.997329671168078,0.060303654535744,0.0627450980392155
1580420529.15872,-0.984634164950027,0.0871595330739297,0.0896009765774011
1580420529.19089,-1.00074769207294,0.105226214999618,0.109132524605172
1580420529.22307,-1.01100175478752,0.110109102006561,0.0920424200808725
1580420529.25524,-0.997817959868772,0.104737926298924,0.0939955748836496
1580420529.28742,-0.994888227664607,0.0935072861829553,0.0842298008697639
1580420529.31959,-0.989028763256275,0.0798352025635154,0.0798352025635154
1580420529.35177,-0.984145876249332,0.0832532234683754,0.0861829556725411
1580420529.38394,-0.992446784161135,0.135500114442664,0.0837415121690697
1580420529.41612,-1.00904859998474,0.151125352864881,0.0764171816586554
1580420529.44829,-0.972915236133364,0.137453269245441,0.073975738155184
1580420529.48046,-0.978774700541695,0.105226214999618,0.067139696345464
1580420529.51264,-0.998306248569467,0.102296482795452,0.0656748302433812
1580420529.54481,-0.993911650263218,0.11792172121767,0.0666514076447697
1580420529.57699,-1.01344319829099,0.11792172121767,0.0432135500114441
1580420529.60916,-1.01149004348821,0.0856946669718468,0.0305180437933927
1580420529.64134,-0.994888227664607,0.0500495918211641,0.0646982528419926
1580420529.67351,-0.993423361562524,0.077393759060044,0.0246585793850613
1580420529.70569,-1.00807202258335,0.136476691844052,0.0187991149767299
1580420529.73786,-0.983169298847944,0.159426260776684,0.0402838178072784
1580420529.77004,-1.01637293049516,0.177492942702372,0.0427252613107498
1580420529.80221,-1.00318913557641,0.148683909361409,0.037842374303807
1580420529.83438,-0.990493629358358,0.0905775539787896,0.0192874036774242
1580420529.86656,-0.994888227664607,0.0852063782711525,0.00659189745937283
1580420529.89873,-0.998794537270161,0.112550545510032,0.0261234454871442
1580420529.93091,-0.990005340657664,0.132082093537804,0.00366216525520713
1580420529.96308,-0.986587319752804,0.115480277714198,0.0236820019836728
1580420529.99526,-0.989028763256275,0.121828030823224,0.0217288471808956
1580420530.02743,-0.987075608453498,0.163332570382238,0.0515144579232469
1580420530.05961,-0.989028763256275,0.218997482261386,0.0441901274128327
1580420530.09178,-0.998794537270161,0.185305561913481,0.0285648889906156
1580420530.12396,-0.986587319752804,0.119874876020447,0.0441901274128327
1580420530.15613,-1.01930266269932,0.0910658426794839,0.044678416113527
1580420530.1883,-1.04029907682918,0.0969253070878153,0.0334477759975584
1580420530.22048,-0.986587319752804,0.109132524605172,0.0427252613107498
1580420530.25265,-1.00563057907988,0.0935072861829553,0.0349126420996413
1580420530.28483,-1.03248645761807,0.114991989013504,0.0109864957656214
1580420530.317,-0.968032349126421,0.145754177157244,0.0544441901274126
1580420530.34918,-0.988052185854887,0.161867704280155,0.027588311589227
1580420530.38136,-1.00025940337224,0.182375829709315,0.0197756923781185
1580420530.41353,-0.993911650263218,0.153566796368352,0.0490730144197755
1580420530.44571,-0.989028763256275,0.117433432516975,0.0700694285496297
1580420530.47788,-0.993911650263218,0.121828030823224,0.0695811398489354
1580420530.51005,-1.0041657129778,0.134035248340581,0.0656748302433812
1580420530.54223,-1.02906843671321,0.0959487296864268,-0.00805676356145568
1580420530.5744,-1.02858014801251,0.0930189974822611,0.0681162737468526
1580420530.60658,-1.01149004348821,0.0559090562294955,0.0485847257190812
1580420530.63875,-1.02027924010071,0.0861829556725411,0.0334477759975584
1580420530.67093,-0.975356679636835,0.130128938735027,0.0192874036774242
1580420530.7031,-0.968032349126421,0.154055085069047,0.0720225833524069
1580420530.73528,-0.954848554207675,0.133058670939192,0.0764171816586554
1580420530.76745,-0.970962081330587,0.116945143816281,0.131593804837109
1580420530.79963,-1.01100175478752,0.153078507667658,0.108644235904478
1580420530.8318,-0.986587319752804,0.135011825741969,0.109132524605172
1580420530.86397,-0.962661173418784,0.0969253070878153,0.119386587319752
1580420530.89615,-1.01539635309377,0.122316319523918,0.127199206530861
1580420530.92832,-0.99977111467155,0.0871595330739297,0.150148775463492
1580420530.9605,-0.980727855344472,0.063721675440604,0.129640650034332
1580420530.99267,-0.988052185854887,0.0881361104753182,0.123292896925307
1580420531.02485,-0.97584496833753,0.0783703364614325,0.113038834210727
1580420531.05702,-0.948989089799344,0.0456549935149155,0.148195620660715
1580420531.0892,-1.0129549095903,0.0104982070649271,0.188723582818341
1580420531.12137,-1.01832608529793,0.0339360646982527,0.218997482261386
1580420531.15355,-1.01100175478752,0.0524910353246355,0.136964980544747
1580420531.18572,-1.01979095140002,-0.0271000228885327,0.128664072632944
1580420531.2179,-0.960708018616007,-0.0290531776913099,0.173098344396124
1580420531.25007,-0.980239566643778,-0.0559090562294955,0.125246051728084
1580420531.28224,-0.981216144045167,-0.0422369726100555,0.11108567940795
1580420531.31442,-0.967055771725033,-0.0778820477607383,0.132570382238498
1580420531.34659,-0.987563897154192,-0.0788586251621268,0.179446097505149
1580420531.37877,-0.966079194323644,-0.0402838178072784,0.0749523155565726
1580420531.41094,-1.05885404745556,-0.0163576714732585,0.213138017853055
1580420531.44312,-1.03981078812848,-0.0510261692225527,0.218020904859998
1580420531.47529,-0.973891813534753,0.01196307316701,0.0939955748836496
1580420531.50747,-1.00709544518196,-0.0207522697795071,0.123292896925307
1580420531.53964,-0.98951705195697,-0.00268558785381856,0.123781185626001
1580420531.57182,-0.973403524834058,0.0153810940718699,0.0949721522850382
1580420531.60399,-1.00709544518196,0.0104982070649271,0.115480277714198
1580420531.63611,-0.997817959868772,0.00415045395590141,0.172610055695429
1580420531.66828,-1.02809185931182,0.0651865415426869,0.150637064164187
1580420531.70046,-0.98951705195697,0.0124513618677042,0.0817883573662925
1580420531.73263,-0.997817959868772,0.0495613031204698,0.0983901731898982
1580420531.76481,-1.01734950789654,0.0271000228885327,0.102784771496147
1580420531.79698,-1.02467383840696,0.0187991149767299,0.11108567940795
1580420531.82916,-0.993423361562524,0.0451667048142212,0.0910658426794839
1580420531.86133,-0.989028763256275,0.0593270771343555,0.0583504997329669
1580420531.8935,-0.994888227664607,0.0798352025635154,0.0539559014267184
1580420531.92568,-0.98951705195697,0.0939955748836496,0.0656748302433812
1580420531.95785,-0.998794537270161,0.0935072861829553,0.0915541313801782
1580420531.99003,-1.01051346608682,0.0910658426794839,0.063721675440604
1580420532.0222,-0.97926298924239,0.0695811398489354,0.0852063782711525
1580420532.05438,-0.996841382467384,0.073975738155184,0.0920424200808725
1580420532.08655,-1.0041657129778,0.0524910353246355,0.0974135957885096
1580420532.11873,-1.01149004348821,0.0217288471808956,0.112062256809338
1580420532.1509,-0.97242694743267,0.0661631189440754,0.149660486762798
1580420532.18308,-0.95875486381323,0.108644235904478,0.12133974212253
1580420532.21525,-1.00074769207294,0.177004654001678,0.119386587319752
1580420532.24742,-0.994399938963912,0.133058670939192,0.132082093537804
1580420532.2796,-1.0036774242771,0.0612802319371326,0.114991989013504
1580420532.31177,-0.993911650263218,0.0783703364614325,0.0993667505912867
1580420532.34395,-0.988540474555581,0.114015411612115,0.096437018387121
1580420532.37612,-0.976821545738918,0.142824444953078,0.0627450980392155
1580420532.4083,-0.983169298847944,0.114991989013504,0.0817883573662925
1580420532.44047,-0.98951705195697,0.10083161669337,0.0983901731898982
1580420532.47265,-0.973891813534753,0.101319905394064,0.0793469138628211
1580420532.50482,-0.990005340657664,0.103761348897535,0.0847180895704582
1580420532.537,-0.993911650263218,0.116945143816281,0.101808194094758
1580420532.56917,-0.997329671168078,0.132082093537804,0.112550545510032
1580420532.60135,-0.997329671168078,0.175051499198901,0.0319829098954756
1580420532.63352,-0.991958495460441,0.179446097505149,0.0319829098954756
1580420532.66569,-0.974380102235447,0.140871290150301,0.00415045395590141
1580420532.69787,-1.0036774242771,0.148683909361409,-0.0402838178072784
1580420532.73004,-1.00953688868544,0.147219043259327,-0.0207522697795071
1580420532.76222,-0.990005340657664,0.167238879987792,-0.0295414663920042
1580420532.79439,-0.998794537270161,0.229251544975966,-0.0476081483176927
1580420532.82657,-0.951430533302815,0.220462348363469,-0.0393072404058898
1580420532.85874,-0.969985503929198,0.186282139314869,-0.0422369726100555
1580420532.89092,-0.988052185854887,0.186770428015564,-0.0363775082017241
1580420532.92303,-0.969985503929198,0.222903791866941,-0.0373540856031127
1580420532.95521,-0.949965667200733,0.224856946669718,-0.080811779964904
1580420532.98738,-0.981704432745861,0.205325398641946,-0.106691081101701
1580420533.01956,-1.05836575875486,0.188235294117646,-0.105714503700312
1580420533.05173,-0.990005340657664,0.162355992980849,-0.0559090562294955
1580420533.08391,-0.978286411841001,0.149172198062104,-0.119874876020447
1580420533.11608,-0.96559090562295,0.146730754558632,-0.199954222934309
1580420533.14826,-0.957778286411841,0.187747005416952,-0.153566796368352
1580420533.18043,-0.97242694743267,0.23315785458152,-0.184328984512092
1580420533.21261,-0.983169298847944,0.213626306553749,-0.153078507667658
1580420533.24478,-1.00074769207294,0.154055085069047,-0.0954604409857325
1580420533.27695,-0.997329671168078,0.154055085069047,-0.0852063782711525
1580420533.30913,-0.988052185854887,0.213138017853055,-0.0778820477607383
1580420533.3413,-0.995864805065995,0.271732661936369,-0.109132524605172
1580420533.37348,-0.975356679636835,0.249271381704432,-0.111573968108644
1580420533.40565,-0.971938658731975,0.201419089036392,-0.140871290150301
1580420533.43783,-0.952895399404898,0.162355992980849,-0.150637064164187
1580420533.47,-0.954360265506981,0.175539787899595,-0.162844281681544
1580420533.50218,-0.956801709010453,0.218020904859998,-0.152590218966964
1580420533.53435,-0.976333257038224,0.213138017853055,-0.154543373769741
1580420533.56653,-0.991470206759747,0.203372243839169,-0.132082093537804
1580420533.5987,-0.992446784161135,0.181887541008621,-0.121828030823224
1580420533.63087,-0.986587319752804,0.191165026321812,-0.11792172121767
1580420533.66305,-0.966079194323644,0.222903791866941,-0.128175783932249
1580420533.69522,-0.974868390936141,0.274662394140535,-0.148683909361409
1580420533.7274,-0.967544060425727,0.216067750057221,-0.184817273212786
1580420533.75957,-0.973403524834058,0.173586633096818,-0.131105516136415
1580420533.79175,-1.00025940337224,0.235111009384298,-0.164309147783626
1580420533.82392,-1.02565041580835,0.272709239337757,-0.175051499198901
1580420533.8561,-0.999282825970855,0.0930189974822611,0.0710460059510183
1580420533.88827,-0.996841382467384,0.163332570382238,0.00561532005798426
1580420533.92045,-0.94850080109865,0.259037155718318,-0.138918135347524
1580420533.95262,-0.925062943465324,0.228763256275272,-0.0979018844892039
1580420533.9848,-0.955825131609064,0.248294804303043,-0.107179369802395
1580420534.01697,-0.96217288471809,0.266361486228732,-0.128664072632944
1580420534.04914,-0.956801709010453,0.189700160219729,-0.114015411612115
1580420534.08132,-0.977798123140307,0.115968566414892,-0.11792172121767
1580420534.11349,-0.969985503929198,0.157961394674601,-0.0783703364614325
1580420534.14567,-0.986587319752804,0.160402838178072,-0.119874876020447
1580420534.17784,-0.940199893186847,0.157473105973907,-0.10424963759823
1580420534.20996,-0.978774700541695,0.234134431982909,-0.0578622110322726
1580420534.24213,-0.957778286411841,0.191653315022506,-0.127687495231555
1580420534.27431,-1.0466468299382,0.149172198062104,-0.0817883573662925
1580420534.30648,-0.975356679636835,0.176028076600289,-0.127199206530861
1580420534.33866,-0.959243152513924,0.183352407110704,-0.141359578850995
1580420534.37083,-0.996841382467384,0.177004654001678,-0.063721675440604
1580420534.40301,-0.98268101014725,0.173098344396124,-0.0646982528419926
1580420534.43518,-1.00953688868544,0.209719996948195,-0.0397955291065841
1580420534.46736,-0.973403524834058,0.251224536507209,-0.0764171816586554
1580420534.49953,-0.990005340657664,0.230228122377355,-0.0988784618905925
1580420534.53171,-0.989028763256275,0.179446097505149,-0.0764171816586554
1580420534.56388,-0.970473792629893,0.214602883955138,-0.100343327992675
1580420534.59606,-0.973891813534753,0.238040741588463,-0.119386587319752
1580420534.62823,-0.99293507286183,0.139894712748912,-0.121828030823224
1580420534.6604,-0.98268101014725,0.151613641565575,-0.0690928511482412
1580420534.69258,-0.974380102235447,0.181887541008621,-0.122804608224612
1580420534.72475,-0.964614328221561,0.216556038757915,-0.114991989013504
1580420534.75693,-0.976821545738918,0.183840695811398,-0.149660486762798
1580420534.7891,-0.963149462119478,0.167238879987792,-0.127199206530861
1580420534.82128,-0.973403524834058,0.165774013885709,-0.114991989013504
1580420534.85345,-0.933363851377127,0.216556038757915,-0.0944838635843439
1580420534.88563,-0.969985503929198,0.232669565880826,-0.070557717250324
1580420534.9178,-0.97926298924239,0.190188448920424,-0.0139162279697871
1580420534.94998,-1.00660715648127,0.193118181124589,-0.0686045624475469
1580420534.98215,-0.960219729915313,0.284916456855115,-0.0827649347676811
1580420535.01432,-0.942153047989624,0.33228046082246,-0.131593804837109
1580420535.0465,-0.978286411841001,0.23657587548638,-0.129152361333638
1580420535.07867,-0.990005340657664,0.202395666437781,-0.0861829556725411
1580420535.11085,-1.0212558175021,0.255130846112763,-0.0627450980392155
1580420535.14302,-0.999282825970855,0.220950637064163,-0.0559090562294955
1580420535.1752,-1.04371709773404,0.140871290150301,-0.0715342946517126
1580420535.20737,-0.998306248569467,0.120363164721141,-0.130128938735027
1580420535.23955,-0.961684596017395,0.232669565880826,-0.107179369802395
1580420535.27172,-0.875257495994507,0.275150682841229,-0.144289311055161
1580420535.3039,-0.94508278019379,0.277103837644006,-0.152590218966964
1580420535.33607,-0.973403524834058,0.228763256275272,-0.070557717250324
1580420535.36825,-0.994888227664607,0.260013733119706,-0.0451667048142212
1580420535.40042,-1.00514229037919,0.244876783398183,-0.0642099641412983
1580420535.4326,-1.01197833218891,0.175051499198901,-0.0373540856031127
1580420535.46477,-0.994888227664607,0.151125352864881,-0.0666514076447697
1580420535.49686,-0.982192721446555,0.195559624628061,-0.114015411612115
1580420535.52903,-0.95533684290837,0.247806515602349,-0.157961394674601
1580420535.5612,-0.932875562676433,0.314213778896772,-0.113527122911421
1580420535.59338,-0.88697642481117,0.394781414511328,-0.113527122911421
1580420535.62556,-0.960708018616007,0.32544441901274,-0.143801022354467
1580420535.65773,-0.974868390936141,0.128175783932249,-0.0861829556725411
1580420535.6899,-1.0212558175021,0.122316319523918,-0.0148928053711757
1580420535.72208,-0.971450370031281,0.173586633096818,-0.0573739223315783
1580420535.75425,-0.973403524834058,0.248783093003738,-0.0397955291065841
1580420535.78643,-0.988540474555581,0.37329671168078,-0.0769054703593497
1580420535.8186,-0.967055771725033,0.314702067597466,-0.0783703364614325
1580420535.85078,-0.985610742351415,0.216067750057221,-0.110109102006561
1580420535.88295,-0.98268101014725,0.141847867551689,-0.0778820477607383
1580420535.91513,-0.998306248569467,0.111573968108644,-0.0720225833524069
1580420535.9473,-0.968032349126421,0.185793850614175,-0.0861829556725411
1580420535.97948,-0.973403524834058,0.281498435950255,-0.0842298008697639
1580420536.01165,-0.967544060425727,0.271732661936369,-0.0207522697795071
1580420536.04382,-0.995864805065995,0.249759670405126,0.00415045395590141
1580420536.076,-0.968032349126421,0.189700160219729,-0.0109864957656214
1580420536.10817,-0.984634164950027,0.142336156252384,0.0437018387121384
1580420536.14035,-1.03102159151598,0.173098344396124,-0.034424353398947
1580420536.17252,-0.993423361562524,0.177492942702372,0.0251468680857556
1580420536.2047,-0.987075608453498,0.229251544975966,0.0280766002899213
1580420536.23687,-0.967544060425727,0.220950637064163,0.0217288471808956
1580420536.26905,-0.970473792629893,0.257572289616235,-0.0422369726100555
1580420536.30122,-0.960219729915313,0.219974059662775,-0.0803234912642097
1580420536.3334,-0.94166475928893,0.161867704280155,-0.0427252613107498
1580420536.36557,-0.952407110704204,0.204348821240558,-0.0563973449301898
1580420536.39774,-0.988540474555581,0.230228122377355,-0.0437018387121384
1580420536.42992,-0.980727855344472,0.171633478294041,-0.0402838178072784
1580420536.46209,-0.983169298847944,0.178469520103761,-0.00512703135728998
1580420536.49427,-0.994399938963912,0.212649729152361,-0.0314946211947813
1580420536.52644,-0.968032349126421,0.228274967574578,-0.0510261692225527
1580420536.55862,-0.939711604486153,0.25024795910582,-0.128175783932249
1580420536.59079,-0.946059357595178,0.195559624628061,-0.11450370031281
1580420536.62297,-0.981704432745861,0.200442511635003,-0.00415045395590141
1580420536.65514,-0.969497215228504,0.251712825207903,-0.0466315709163041
1580420536.68732,-1.0036774242771,0.223880369268329,0.027588311589227
1580420536.71949,-1.03981078812848,0.266849774929426,-0.0187991149767299
1580420536.75166,-0.94166475928893,0.245365072098878,-0.0466315709163041
1580420536.78381,-0.945571068894484,0.240970473792629,-0.154543373769741
1580420536.81599,-0.962661173418784,0.221927214465552,-0.160402838178072
1580420536.84816,-0.961196307316701,0.109620813305867,-0.0266117341878385
1580420536.88034,-1.02613870450904,0.264896620126649,0.0817883573662925
1580420536.91251,-0.980239566643778,0.343022812237734,-0.0544441901274126
1580420536.94469,-0.986587319752804,0.25024795910582,-0.108155947203784
1580420536.97686,-1.00660715648127,-0.037842374303807,-0.0588387884336612
1580420537.00903,-0.960708018616007,-0.0285648889906156,-0.048096437018387
1580420537.04121,-0.964126039520867,0.323979552910657,-0.0710460059510183
1580420537.07338,-0.999282825970855,0.364019226367589,-0.0988784618905925
1580420537.10556,-1.01881437399863,0.182375829709315,0.024170290684367
1580420537.13773,-0.994888227664607,0.175539787899595,0.0285648889906156
1580420537.16991,-1.00465400167849,0.308842603189134,-0.0593270771343555
1580420537.20208,-0.950453955901427,0.267826352330815,-0.0261234454871442
1580420537.23426,-0.963637750820173,0.178469520103761,-0.0568856336308841
1580420537.26643,-0.97242694743267,0.142824444953078,-0.123781185626001
1580420537.29861,-1.0036774242771,0.210696574349583,-0.0437018387121384
1580420537.33078,-1.00807202258335,0.201419089036392,-0.0725108720531011
1580420537.36296,-0.993423361562524,0.173098344396124,-0.0314946211947813
1580420537.39513,-0.976821545738918,0.148195620660715,-0.077393759060044
1580420537.4273,-1.00270084687572,0.159426260776684,-0.0852063782711525
1580420537.45948,-0.94508278019379,0.200442511635003,-0.060303654535744
1580420537.49165,-0.944594491493095,0.249271381704432,-0.10766765850309
1580420537.52383,-0.970962081330587,0.279056992446783,-0.0744640268558783
1580420537.556,-0.951430533302815,0.3630426489662,0.0383306630045013
1580420537.58818,-1.0129549095903,0.452887769893948,0.0495613031204698
1580420537.62035,-1.04567025253681,0.246341649500266,0.031006332494087
1580420537.65253,-1.00904859998474,0.0866712443732354,0.0563973449301898
1580420537.6847,-0.931898985275044,0.133546959639887,-0.150148775463492
1580420537.71688,-0.909437705043107,0.179446097505149,-0.196536202029449
1580420537.74905,-0.937758449683376,0.240970473792629,-0.132082093537804
1580420537.78122,-0.946547646295873,0.228274967574578,-0.114015411612115
1580420537.8134,-0.964614328221561,0.153566796368352,-0.060303654535744
1580420537.84557,-0.99977111467155,0.170656900892652,-0.0456549935149155
1580420537.87775,-0.97926298924239,0.168215457389181,-0.0891126878767068
1580420537.90992,-1.00807202258335,0.168703746089875,0.0261234454871442
1580420537.9421,-1.07545586327916,0.249271381704432,0.112550545510032
1580420537.97427,-0.910414282444496,0.382574196993971,0.0256351567864499
1580420538.00645,-0.930922407873656,0.40405889982452,-0.10083161669337
1580420538.03862,-0.948989089799344,0.302983138780803,-0.0881361104753182
1580420538.07074,-1.00660715648127,0.144289311055161,-0.0627450980392155
1580420538.10291,-0.973891813534753,0.0300297550926985,-0.0837415121690697
1580420538.13509,-1.03150988021668,0.101319905394064,-0.0578622110322726
1580420538.16726,-0.97242694743267,0.168215457389181,-0.0544441901274126
1580420538.19944,-1.01149004348821,0.188235294117646,-0.0329594872968642
1580420538.23161,-1.02565041580835,0.201907377737086,-0.0505378805218584
1580420538.26378,-1.01539635309377,0.178469520103761,-0.0437018387121384
1580420538.29596,-0.991958495460441,0.113038834210727,-0.0744640268558783
1580420538.32813,-0.953383688105593,0.110109102006561,-0.0783703364614325
1580420538.36031,-0.927504386968796,0.262943465323872,-0.0139162279697871
1580420538.39248,-0.956313420309758,0.506111238269629,-0.0822766460669868
1580420538.42465,-0.983657587548638,0.33911650263218,-0.137941557946135
1580420538.45683,-0.98951705195697,0.168215457389181,-0.0075684748607614
1580420538.489,-0.989028763256275,0.271244373235675,-0.00805676356145568
1580420538.52118,-0.944594491493095,0.351323720149537,-0.156496528572518
1580420538.55335,-0.953383688105593,0.282963302052337,-0.125246051728084
1580420538.58553,-0.971938658731975,0.211673151750972,-0.0393072404058898
1580420538.6177,-0.95191882200351,0.258060578316929,-0.0852063782711525
1580420538.64987,-0.927016098268101,0.252201113908598,-0.116456855115587
1580420538.68205,-0.965102616922255,0.268314641031509,-0.0656748302433812
1580420538.71422,-0.957289997711147,0.317143511100937,-0.0876478217746239
1580420538.7464,-0.933363851377127,0.300541695277332,-0.0534676127260241
1580420538.77857,-0.95191882200351,0.292240787365529,-0.0612802319371326
1580420538.81074,-1.01051346608682,0.265873197528038,-0.060303654535744
1580420538.84292,-0.963637750820173,0.113527122911421,-0.0432135500114441
1580420538.87509,-0.970962081330587,0.208743419546806,0.0319829098954756
1580420538.90727,-0.996841382467384,0.44165712977798,-0.0583504997329669
1580420538.93944,-1.0207675288014,0.251712825207903,-0.11450370031281
1580420538.97161,-1.00758373388266,-0.0397955291065841,-0.0368657969024184
1580420539.00379,-0.973403524834058,0.0700694285496297,-0.0700694285496297
1580420539.03596,-0.993423361562524,0.400152590218966,-0.120851453421835
1580420539.06814,-0.884534981307699,0.261478599221789,-0.0305180437933927
1580420539.10031,-1.00660715648127,0.354253452353703,-0.146730754558632
1580420539.13248,-1.02027924010071,0.133546959639887,-0.024170290684367
1580420539.16466,-0.922133211261158,0.0920424200808725,0.0153810940718699
1580420539.19683,-1.02858014801251,0.263431754024566,-0.0588387884336612
1580420539.22901,-0.973403524834058,0.291752498664835,0.0432135500114441
1580420539.26118,-0.967544060425727,0.2605020218204,-0.0686045624475469
1580420539.29336,-1.00660715648127,0.156984817273212,-0.0324711985961699
1580420539.32553,-0.952895399404898,0.160402838178072,-0.0227054245822842
1580420539.3576,-0.964126039520867,0.306889448386357,-0.0617685206378269
1580420539.38978,-0.96559090562295,0.302983138780803,-0.063721675440604
1580420539.42195,-0.97926298924239,0.182864118410009,-0.132082093537804
1580420539.45413,-0.957778286411841,0.127687495231555,-0.0158693827725642
1580420539.4863,-0.915785458152133,0.358648050659951,-0.0607919432364383
1580420539.51847,-0.939711604486153,0.428961623559928,-0.138429846646829
1580420539.55065,-0.990005340657664,0.208255130846112,-0.00610360875867855
1580420539.58282,-0.947524223697261,0.228274967574578,-0.0871595330739297
1580420539.615,-0.964614328221561,0.262455176623178,-0.0979018844892039
1580420539.64717,-0.954848554207675,0.320073243305103,-0.0954604409857325
1580420539.67935,-0.951430533302815,0.35962462806134,-0.11108567940795
1580420539.71152,-0.951430533302815,0.328374151216906,-0.077393759060044
1580420539.74369,-0.953383688105593,0.269291218432897,-0.0598153658350498
1580420539.77587,-0.961684596017395,0.258548867017623,-0.0246585793850613
1580420539.80804,-0.993423361562524,0.223880369268329,-0.067139696345464
1580420539.84022,-0.974380102235447,0.177492942702372,-0.00268558785381856
1580420539.87239,-0.973403524834058,0.218997482261386,0.0075684748607614
1580420539.90456,-0.968032349126421,0.290287632562752,-0.0354009308003356
1580420539.93674,-0.954848554207675,0.340093080033569,-0.0744640268558783
1580420539.96891,-1.02027924010071,0.265384908827343,-0.10766765850309
1580420540.00109,-0.98951705195697,0.145265888456549,-0.103761348897535
1580420540.03326,-0.955825131609064,0.200930800335698,-0.048096437018387
1580420540.06543,-0.983169298847944,0.307866025787746,-0.0534676127260241
1580420540.09761,-0.959243152513924,0.297611963073166,-0.0256351567864499
1580420540.12978,-0.928969253070878,0.306401159685663,-0.0153810940718699
1580420540.16196,-0.966567483024338,0.285893034256503,-0.0661631189440754
1580420540.19413,-0.93141069657435,0.201907377737086,-0.0334477759975584
1580420540.22631,-0.989028763256275,0.231692988479438,-0.037842374303807
1580420540.25848,-1.00807202258335,0.194583047226672,-0.0324711985961699
1580420540.29065,-0.923109788662547,0.102296482795452,-0.0163576714732585
1580420540.32283,-0.99293507286183,0.265873197528038,-0.110597390707255
1580420540.355,-0.997817959868772,0.167238879987792,-0.0681162737468526
1580420540.38718,-0.993423361562524,0.259525444419012,0.0529793240253298
1580420540.41935,-0.960219729915313,0.113038834210727,-0.0354009308003356
1580420540.45152,-0.980727855344472,0.192629892423895,0.0354009308003356
1580420540.4837,-0.98951705195697,0.466071564812694,-0.132082093537804
1580420540.51587,-0.965102616922255,0.132570382238498,0.0451667048142212
1580420540.54805,-0.93141069657435,0.130128938735027,0.0192874036774242
1580420540.58022,-0.950942244602121,0.289311055161363,-0.0495613031204698
1580420540.61239,-0.93141069657435,0.30493629358358,-0.0153810940718699
1580420540.64453,-0.960219729915313,0.25708400091554,-0.037842374303807
1580420540.6767,-0.977309834439613,0.223392080567635,-0.0373540856031127
1580420540.70888,-1.01002517738613,0.154543373769741,-0.0246585793850613
1580420540.74105,-0.955825131609064,0.169192034790569,0.0163576714732585
1580420540.77323,-0.994399938963912,0.199954222934309,-0.0559090562294955
1580420540.8054,-1.01149004348821,0.252201113908598,-0.0646982528419926
1580420540.83758,-1.00270084687572,0.177981231403066,-0.0295414663920042
1580420540.86975,-0.992446784161135,0.210208285648889,-0.0227054245822842
1580420540.90192,-0.934340428778516,0.294682230869,-0.120851453421835
1580420540.9341,-0.953871976806287,0.310795757991912,-0.0861829556725411
1580420540.96627,-0.94166475928893,0.351812008850231,-0.0573739223315783
1580420540.99845,-0.97926298924239,0.326420996414129,-0.0817883573662925
1580420541.03062,-0.964614328221561,0.216556038757915,-0.0104982070649271
1580420541.06279,-0.986587319752804,0.189700160219729,0.000732433051041426
1580420541.09497,-0.973403524834058,0.26733806363012,-0.024170290684367
1580420541.12714,-0.988540474555581,0.325932707713434,-0.00952162966353853
1580420541.15932,-0.96559090562295,0.285893034256503,-0.0134279392690928
1580420541.19149,-0.96559090562295,0.245365072098878,0.00561532005798426
1580420541.22366,-0.981216144045167,0.219974059662775,0.0686045624475469
1580420541.25584,-0.991958495460441,0.204348821240558,0.0227054245822842
1580420541.28801,-0.960219729915313,0.167727168688486,-0.00366216525520713
1580420541.32019,-0.977309834439613,0.231204699778743,-0.037842374303807
1580420541.35236,-0.93482871747921,0.292729076066223,-0.0515144579232469
1580420541.38453,-0.981216144045167,0.338139925230792,-0.0915541313801782
1580420541.41671,-0.966567483024338,0.211184863050278,-0.0891126878767068
1580420541.44888,-0.931898985275044,0.156496528572518,0.0187991149767299
1580420541.48106,-0.939711604486153,0.341557946135651,-0.0373540856031127
1580420541.51323,-0.976333257038224,0.377691309987028,-0.115480277714198
1580420541.54541,-0.974380102235447,0.217044327458609,-0.0900892652780954
1580420541.57758,-0.955825131609064,0.189700160219729,-0.0202639810788128
1580420541.60975,-0.991470206759747,0.237064164187075,-0.0656748302433812
1580420541.64193,-0.971450370031281,0.157961394674601,0.00659189745937283
1580420541.6741,-1.0383459220264,0.186770428015564,0.044678416113527
1580420541.70628,-0.991470206759747,0.261966887922483,0.107179369802395
1580420541.73845,-0.936781872281987,0.263431754024566,0.0100099183642328
1580420541.77062,-1.06569008926528,0.408453498130768,-0.100343327992675
1580420541.8028,-0.90406652933547,0.186282139314869,-0.0559090562294955
1580420541.83497,-1.01393148699168,-0.0295414663920042,-0.0979018844892039
1580420541.86715,-0.950453955901427,0.0788586251621268,-0.0158693827725642
1580420541.89932,-0.927504386968796,0.211184863050278,0.0617685206378269
1580420541.93143,-0.991958495460441,0.319096665903714,-0.0397955291065841
1580420541.9636,-0.926527809567407,0.308842603189134,-0.0534676127260241
1580420541.99577,-0.91773861295491,0.291752498664835,-0.0954604409857325
1580420542.02795,-0.986587319752804,0.276615548943312,-0.12133974212253
1580420542.06012,-0.980239566643778,0.236087586785686,-0.0842298008697639
1580420542.0923,-0.946059357595178,0.259037155718318,-0.00708018616006711
1580420542.12447,-0.972915236133364,0.263431754024566,-0.0139162279697871
1580420542.15664,-0.983657587548638,0.227298390173189,-0.0422369726100555
1580420542.18882,-0.974868390936141,0.199465934233615,0.027588311589227
1580420542.22099,-0.98268101014725,0.238529030289158,-0.034424353398947
1580420542.25317,-0.929457541771573,0.280033569848172,-0.0422369726100555
1580420542.28534,-0.966079194323644,0.258060578316929,-0.0354009308003356
1580420542.31752,-0.978774700541695,0.24682993820096,-0.0583504997329669
1580420542.34969,-0.951430533302815,0.192141603723201,0.037842374303807
1580420542.38186,-0.98609903105211,0.312748912794689,-0.000732433051041426
1580420542.41404,-0.977309834439613,0.273685816739146,0.00708018616006711
1580420542.44621,-0.994888227664607,0.194094758525978,0.027588311589227
1580420542.47839,-0.95191882200351,0.161867704280155,-0.0266117341878385
1580420542.51056,-0.927016098268101,0.245365072098878,-0.0656748302433812
1580420542.54273,-0.981704432745861,0.30493629358358,-0.130617227435721
1580420542.57491,-0.997817959868772,0.262455176623178,-0.120851453421835
1580420542.60708,-0.988052185854887,0.202883955138475,-0.0827649347676811
1580420542.63926,-0.986587319752804,0.194094758525978,-0.124269474326695
1580420542.67143,-0.988540474555581,0.179446097505149,-0.0554207675288012
1580420542.7036,-0.964126039520867,0.258060578316929,-0.0651865415426869
1580420542.73578,-0.956801709010453,0.30493629358358,-0.115968566414892
1580420542.76795,-0.96559090562295,0.292240787365529,-0.0983901731898982
1580420542.80013,-0.993911650263218,0.233646143282215,-0.0617685206378269
1580420542.8323,-0.995864805065995,0.242435339894712,-0.0852063782711525
1580420542.86448,-0.968520637827115,0.242435339894712,-0.128664072632944
1580420542.89665,-0.949965667200733,0.251712825207903,-0.0681162737468526
1580420542.92882,-0.97242694743267,0.353276874952314,-0.123292896925307
1580420542.961,-0.956801709010453,0.290775921263446,-0.143312733653772
1580420542.99317,-1.00270084687572,0.233646143282215,-0.142824444953078
1580420543.02535,-0.967055771725033,0.027588311589227,-0.145265888456549
1580420543.05752,-0.97926298924239,0.123781185626001,-0.0598153658350498
1580420543.08969,-1.02760357061112,0.269779507133592,-0.119874876020447
1580420543.12187,-0.947524223697261,0.276127260242617,-0.0451667048142212
1580420543.15404,-0.963149462119478,0.361089494163423,-0.041260395208667
1580420543.18622,-0.995864805065995,0.247806515602349,-0.186770428015564
1580420543.21835,-0.974380102235447,0.0124513618677042,-0.144777599755855
1580420543.25053,-0.980727855344472,0.154055085069047,-0.0549324788281069
1580420543.2827,-0.987563897154192,0.285404745555809,-0.211184863050278
1580420543.31487,-0.90748455024033,0.305912870984969,-0.0397955291065841
1580420543.34705,-0.914808880750744,0.507087815671017,0.0441901274128327
1580420543.37922,-0.927016098268101,0.489509422446019,-0.129640650034332
1580420543.41139,-0.929457541771573,0.235111009384298,-0.0686045624475469
1580420543.44357,-1.06471351186389,0.131593804837109,-0.0271000228885327
1580420543.47574,-1.06471351186389,-0.00708018616006711,-0.0539559014267184
1580420543.50792,-0.966567483024338,-0.0607919432364383,0.0329594872968642
1580420543.54009,-0.939711604486153,0.395269703212023,0.0500495918211641
1580420543.57226,-0.961196307316701,0.600350957503625,-0.187258716716258
1580420543.60444,-0.95875486381323,0.253177691309986,-0.112062256809338
1580420543.63661,-0.969985503929198,0.115968566414892,0.01196307316701
1580420543.66878,-0.991958495460441,0.202883955138475,0.0358892195010299
1580420543.70096,-0.969497215228504,0.25708400091554,0.0192874036774242
1580420543.73313,-0.99635309376669,0.268314641031509,-0.103761348897535
1580420543.76531,-1.01637293049516,0.198977645532921,-0.102784771496147
1580420543.79748,-0.92115663385977,0.0700694285496297,-0.0515144579232469
1580420543.82965,-0.978774700541695,0.131593804837109,-0.0817883573662925
1580420543.86183,-0.968032349126421,0.197024490730143,-0.0485847257190812
1580420543.894,-0.978286411841001,0.312748912794689,0.0251468680857556
1580420543.92617,-0.966567483024338,0.160402838178072,-0.0529793240253298
1580420543.95835,-1.01539635309377,0.171633478294041,-0.0212405584802013
1580420543.99052,-1.02223239490349,0.218997482261386,-0.0778820477607383
1580420544.02269,-0.959731441214618,0.0856946669718468,-0.109132524605172
1580420544.05487,-0.993423361562524,0.143312733653772,-0.130128938735027
1580420544.08704,-0.99977111467155,0.245853360799572,-0.185305561913481
1580420544.11922,-0.925062943465324,0.218020904859998,-0.102784771496147
1580420544.15139,-0.916273746852827,0.297611963073166,-0.130617227435721
