Timestamp_seconds,Accel_X_g,Accel_Y_g,Accel_Z_g
1580417107.72238,-0.288334477759976,-0.041260395208667,0.984634164950027
1580417107.72637,-0.288334477759976,-0.0407721065079727,0.985122453650721
1580417107.73037,-0.286869611657893,-0.0388189517051956,0.98951705195697
1580417107.73436,-0.287357900358588,-0.0432135500114441,0.985610742351415
1580417107.73836,-0.288334477759976,-0.0422369726100555,0.988540474555581
1580417107.74235,-0.289311055161365,-0.0417486839093613,0.986587319752804
1580417107.74635,-0.286381322957199,-0.0437018387121384,0.985610742351415
1580417107.75034,-0.288822766460671,-0.0451667048142212,0.991470206759747
1580417107.75433,-0.288822766460671,-0.0407721065079727,0.990981918059052
1580417107.75833,-0.288334477759976,-0.0432135500114441,0.983657587548638
1580417107.76232,-0.290775921263448,-0.0422369726100555,0.985122453650721
1580417107.76631,-0.290287632562753,-0.0441901274128327,0.986587319752804
1580417107.77031,-0.286869611657893,-0.044678416113527,0.983657587548638
1580417107.7743,-0.287357900358588,-0.044678416113527,0.986587319752804
1580417107.7783,-0.288334477759976,-0.0432135500114441,0.985122453650721
1580417107.78229,-0.292240787365531,-0.0461432822156098,0.976821545738918
1580417107.78628,-0.291752498664836,-0.0422369726100555,0.98268101014725
1580417107.79028,-0.291264209964142,-0.0417486839093613,0.983169298847944
1580417107.79427,-0.291264209964142,-0.0476081483176927,0.980239566643778
1580417107.79827,-0.291264209964142,-0.0461432822156098,0.980727855344472
1580417107.80228,-0.292729076066225,-0.0466315709163041,0.980727855344472
1580417107.80627,-0.293217364766919,-0.0451667048142212,0.987563897154192
1580417107.81026,-0.288334477759976,-0.0485847257190812,0.98609903105211
1580417107.81426,-0.289799343862059,-0.0490730144197755,0.981704432745861
1580417107.81825,-0.288334477759976,-0.0510261692225527,0.984145876249332
1580417107.82225,-0.287357900358588,-0.0520027466239412,0.983657587548638
1580417107.82624,-0.290287632562753,-0.0520027466239412,0.987075608453498
1580417107.83023,-0.289311055161365,-0.0524910353246355,0.987563897154192
1580417107.83423,-0.291752498664836,-0.0529793240253298,0.990005340657664
1580417107.83822,-0.288822766460671,-0.0554207675288012,0.985610742351415
1580417107.84222,-0.290775921263448,-0.0559090562294955,0.988052185854887
1580417107.84621,-0.290287632562753,-0.0544441901274126,0.985122453650721
1580417107.8502,-0.288822766460671,-0.0544441901274126,0.980727855344472
1580417107.8542,-0.288822766460671,-0.0534676127260241,0.98268101014725
1580417107.85819,-0.288334477759976,-0.0578622110322726,0.981216144045167
1580417107.86219,-0.289799343862059,-0.0554207675288012,0.983657587548638
1580417107.86618,-0.285404745555811,-0.0524910353246355,0.983657587548638
1580417107.87017,-0.291264209964142,-0.0554207675288012,0.985122453650721
1580417107.87417,-0.288822766460671,-0.0500495918211641,0.985122453650721
1580417107.87816,-0.287357900358588,-0.0529793240253298,0.989028763256275
1580417107.88214,-0.286869611657893,-0.0534676127260241,0.988540474555581
1580417107.88613,-0.291264209964142,-0.0534676127260241,0.985122453650721
1580417107.89013,-0.288334477759976,-0.0520027466239412,0.984634164950027
1580417107.89412,-0.288822766460671,-0.0529793240253298,0.98951705195697
1580417107.89812,-0.289799343862059,-0.0534676127260241,0.981704432745861
1580417107.90211,-0.288822766460671,-0.0539559014267184,0.984634164950027
1580417107.90611,-0.292240787365531,-0.0563973449301898,0.98951705195697
1580417107.9101,-0.284916456855116,-0.0524910353246355,0.986587319752804
1580417107.91409,-0.285893034256505,-0.0500495918211641,0.986587319752804
1580417107.91809,-0.285404745555811,-0.0529793240253298,0.989028763256275
1580417107.92208,-0.285404745555811,-0.0505378805218584,0.988052185854887
1580417107.92607,-0.286381322957199,-0.0510261692225527,0.989028763256275
1580417107.93007,-0.288822766460671,-0.0505378805218584,0.987075608453498
1580417107.93406,-0.286381322957199,-0.0515144579232469,0.988540474555581
1580417107.93806,-0.287846189059282,-0.0485847257190812,0.984634164950027
1580417107.94205,-0.290287632562753,-0.0495613031204698,0.988052185854887
1580417107.94604,-0.290287632562753,-0.0471198596169984,0.986587319752804
1580417107.95004,-0.287846189059282,-0.048096437018387,0.983169298847944
1580417107.95403,-0.290775921263448,-0.0476081483176927,0.987563897154192
1580417107.95803,-0.292729076066225,-0.0510261692225527,0.987563897154192
1580417107.96204,-0.295170519569696,-0.0510261692225527,0.987563897154192
1580417107.96603,-0.290287632562753,-0.0495613031204698,0.988540474555581
1580417107.97002,-0.292729076066225,-0.048096437018387,0.98609903105211
1580417107.97402,-0.289311055161365,-0.048096437018387,0.985122453650721
1580417107.97801,-0.289799343862059,-0.0461432822156098,0.987563897154192
1580417107.98201,-0.289799343862059,-0.0485847257190812,0.985122453650721
1580417107.986,-0.285893034256505,-0.0476081483176927,0.98609903105211
1580417107.98999,-0.287357900358588,-0.0456549935149155,0.984634164950027
1580417107.99399,-0.287357900358588,-0.0471198596169984,0.984634164950027
1580417107.99798,-0.287357900358588,-0.0441901274128327,0.983169298847944
1580417108.00198,-0.282963302052339,-0.0427252613107498,0.983169298847944
1580417108.00597,-0.285404745555811,-0.0432135500114441,0.981704432745861
1580417108.00996,-0.284916456855116,-0.0461432822156098,0.982192721446555
1580417108.01396,-0.285404745555811,-0.0476081483176927,0.984634164950027
1580417108.01795,-0.284916456855116,-0.0520027466239412,0.991470206759747
1580417108.02195,-0.286869611657893,-0.0495613031204698,0.989028763256275
1580417108.02594,-0.286869611657893,-0.0500495918211641,0.98268101014725
1580417108.02993,-0.286381322957199,-0.0549324788281069,0.980239566643778
1580417108.03393,-0.286381322957199,-0.0559090562294955,0.978774700541695
1580417108.03792,-0.286869611657893,-0.0568856336308841,0.977309834439613
1580417108.0419,-0.284428168154422,-0.0578622110322726,0.977798123140307
1580417108.04589,-0.284916456855116,-0.0578622110322726,0.978286411841001
1580417108.04989,-0.283939879453728,-0.0588387884336612,0.982192721446555
1580417108.05388,-0.282963302052339,-0.0583504997329669,0.983657587548638
1580417108.05788,-0.283451590753033,-0.0573739223315783,0.98268101014725
1580417108.06187,-0.280521858548868,-0.0544441901274126,0.985610742351415
1580417108.06586,-0.284428168154422,-0.0573739223315783,0.986587319752804
1580417108.06986,-0.284916456855116,-0.060303654535744,0.990005340657664
1580417108.07385,-0.282475013351645,-0.0627450980392155,0.990981918059052
1580417108.07785,-0.286381322957199,-0.0607919432364383,0.988540474555581
1580417108.08184,-0.282963302052339,-0.0612802319371326,0.989028763256275
1580417108.08583,-0.285404745555811,-0.0617685206378269,0.98951705195697
1580417108.08983,-0.285893034256505,-0.060303654535744,0.981704432745861
1580417108.09382,-0.286869611657893,-0.0607919432364383,0.987563897154192
1580417108.09782,-0.283451590753033,-0.063721675440604,0.98951705195697
1580417108.10181,-0.283939879453728,-0.0646982528419926,0.985610742351415
1580417108.1058,-0.285893034256505,-0.0642099641412983,0.987563897154192
1580417108.1098,-0.282963302052339,-0.0593270771343555,0.984145876249332
1580417108.11379,-0.286869611657893,-0.0612802319371326,0.983169298847944
1580417108.11779,-0.281010147249562,-0.060303654535744,0.984145876249332
1580417108.12179,-0.283451590753033,-0.0573739223315783,0.983657587548638
1580417108.12579,-0.283451590753033,-0.060303654535744,0.985610742351415
1580417108.12978,-0.283939879453728,-0.0563973449301898,0.982192721446555
1580417108.13378,-0.282475013351645,-0.0568856336308841,0.983657587548638
1580417108.13777,-0.282475013351645,-0.0554207675288012,0.982192721446555
1580417108.14176,-0.287357900358588,-0.0549324788281069,0.983657587548638
1580417108.14576,-0.287846189059282,-0.0510261692225527,0.987563897154192
1580417108.14975,-0.289311055161365,-0.0500495918211641,0.984145876249332
1580417108.15375,-0.294682230869002,-0.044678416113527,0.979751277943084
1580417108.15774,-0.296147096971085,-0.0451667048142212,0.984145876249332
1580417108.16173,-0.298100251773862,-0.0451667048142212,0.990005340657664
1580417108.16573,-0.298588540474556,-0.0427252613107498,0.988540474555581
1580417108.16972,-0.298588540474556,-0.0402838178072784,0.990981918059052
1580417108.17372,-0.297611963073168,-0.0354009308003356,0.988540474555581
1580417108.17771,-0.297123674372473,-0.0393072404058898,0.988052185854887
1580417108.1817,-0.293705653467613,-0.0368657969024184,0.988540474555581
1580417108.1857,-0.290775921263448,-0.0354009308003356,0.98951705195697
1580417108.18969,-0.295658808270391,-0.0354009308003356,0.98951705195697
1580417108.19369,-0.289311055161365,-0.0358892195010299,0.98951705195697
1580417108.19768,-0.290775921263448,-0.0368657969024184,0.985610742351415
1580417108.20166,-0.288334477759976,-0.0349126420996413,0.990005340657664
1580417108.20565,-0.286869611657893,-0.0334477759975584,0.987075608453498
1580417108.20965,-0.289799343862059,-0.0373540856031127,0.980239566643778
1580417108.21364,-0.288334477759976,-0.0339360646982527,0.98268101014725
1580417108.21764,-0.286869611657893,-0.0363775082017241,0.981704432745861
1580417108.22163,-0.289799343862059,-0.0393072404058898,0.98268101014725
1580417108.22562,-0.286869611657893,-0.0422369726100555,0.981704432745861
1580417108.22962,-0.286869611657893,-0.0451667048142212,0.985610742351415
1580417108.23361,-0.283939879453728,-0.0461432822156098,0.977798123140307
1580417108.23761,-0.278568703746091,-0.0466315709163041,0.978774700541695
1580417108.2416,-0.280033569848174,-0.0520027466239412,0.977309834439613
1580417108.24559,-0.280521858548868,-0.0515144579232469,0.97926298924239
1580417108.24959,-0.277592126344702,-0.0563973449301898,0.980727855344472
1580417108.25358,-0.279545281147479,-0.0588387884336612,0.97926298924239
1580417108.25758,-0.278080415045396,-0.0593270771343555,0.980239566643778
1580417108.26157,-0.276615548943314,-0.0578622110322726,0.975356679636835
1580417108.26556,-0.278568703746091,-0.0568856336308841,0.97584496833753
1580417108.26956,-0.279056992446785,-0.0578622110322726,0.971450370031281
1580417108.27355,-0.275150682841231,-0.0559090562294955,0.976333257038224
1580417108.27755,-0.277592126344702,-0.0544441901274126,0.981704432745861
1580417108.28155,-0.276127260242619,-0.0495613031204698,0.980727855344472
1580417108.28555,-0.277592126344702,-0.0485847257190812,0.97584496833753
1580417108.28954,-0.275638971541925,-0.0461432822156098,0.980727855344472
1580417108.29354,-0.275638971541925,-0.0437018387121384,0.981216144045167
1580417108.29753,-0.274662394140536,-0.0393072404058898,0.981704432745861
1580417108.30152,-0.270756084534982,-0.0402838178072784,0.97926298924239
1580417108.30552,-0.276127260242619,-0.0388189517051956,0.98609903105211
1580417108.30951,-0.277103837644008,-0.037842374303807,0.980727855344472
1580417108.31351,-0.280033569848174,-0.0383306630045013,0.980727855344472
1580417108.3175,-0.281986724650951,-0.0354009308003356,0.985122453650721
1580417108.32149,-0.279545281147479,-0.0329594872968642,0.98609903105211
1580417108.32549,-0.280521858548868,-0.0334477759975584,0.985122453650721
1580417108.32948,-0.284916456855116,-0.034424353398947,0.988540474555581
1580417108.33348,-0.285893034256505,-0.0324711985961699,0.990981918059052
1580417108.33747,-0.289311055161365,-0.0314946211947813,0.993911650263218
1580417108.34146,-0.292240787365531,-0.0319829098954756,0.993911650263218
1580417108.34546,-0.292729076066225,-0.0285648889906156,0.990981918059052
1580417108.34945,-0.296635385671779,-0.0261234454871442,0.991958495460441
1580417108.35345,-0.298588540474556,-0.0266117341878385,0.994888227664607
1580417108.35744,-0.299076829175251,-0.0271000228885327,0.991470206759747
1580417108.36142,-0.298588540474556,-0.0212405584802013,0.988052185854887
1580417108.36541,-0.301029983978028,-0.0231937132829785,0.993423361562524
1580417108.36941,-0.302494850080111,-0.0202639810788128,0.990005340657664
1580417108.3734,-0.299076829175251,-0.0207522697795071,0.991470206759747
1580417108.37739,-0.299076829175251,-0.0187991149767299,0.987563897154192
1580417108.38139,-0.294682230869002,-0.0163576714732585,0.987075608453498
1580417108.38538,-0.295170519569696,-0.0158693827725642,0.988540474555581
1580417108.38938,-0.294682230869002,-0.0144045166704814,0.987075608453498
1580417108.39337,-0.295658808270391,-0.0139162279697871,0.987075608453498
1580417108.39736,-0.297123674372473,-0.0129396505683985,0.986587319752804
1580417108.40136,-0.301029983978028,-0.0139162279697871,0.982192721446555
1580417108.40535,-0.298588540474556,-0.0144045166704814,0.980239566643778
1580417108.40935,-0.300541695277333,-0.01196307316701,0.985122453650721
1580417108.41334,-0.302006561379416,-0.0104982070649271,0.982192721446555
1580417108.41734,-0.302494850080111,-0.0148928053711757,0.984145876249332
1580417108.42133,-0.303471427481499,-0.0148928053711757,0.983169298847944
1580417108.42532,-0.302006561379416,-0.0173342488746471,0.983169298847944
1580417108.42932,-0.301518272678722,-0.0178225375753414,0.98609903105211
1580417108.43331,-0.302006561379416,-0.0187991149767299,0.988540474555581
1580417108.4373,-0.301518272678722,-0.0173342488746471,0.988052185854887
1580417108.44131,-0.302006561379416,-0.0187991149767299,0.989028763256275
1580417108.44531,-0.297611963073168,-0.0251468680857556,0.988540474555581
1580417108.4493,-0.303959716182193,-0.0251468680857556,0.984634164950027
1580417108.4533,-0.301518272678722,-0.0261234454871442,0.989028763256275
1580417108.45729,-0.302494850080111,-0.0285648889906156,0.990493629358358
1580417108.46128,-0.302494850080111,-0.0305180437933927,0.983657587548638
1580417108.46528,-0.299565117875945,-0.034424353398947,0.987563897154192
1580417108.46927,-0.298100251773862,-0.0354009308003356,0.980727855344472
1580417108.47327,-0.295170519569696,-0.0363775082017241,0.980727855344472
1580417108.47726,-0.292240787365531,-0.0417486839093613,0.981704432745861
1580417108.48125,-0.291264209964142,-0.044678416113527,0.985122453650721
1580417108.48525,-0.291752498664836,-0.0451667048142212,0.984145876249332
1580417108.48924,-0.286381322957199,-0.0485847257190812,0.97926298924239
1580417108.49324,-0.286381322957199,-0.0495613031204698,0.982192721446555
1580417108.49723,-0.288334477759976,-0.0520027466239412,0.983657587548638
1580417108.50122,-0.286869611657893,-0.0534676127260241,0.981216144045167
1580417108.50522,-0.287357900358588,-0.0573739223315783,0.983657587548638
1580417108.50921,-0.289311055161365,-0.0622568093385212,0.98268101014725
1580417108.51321,-0.291752498664836,-0.0642099641412983,0.984634164950027
1580417108.5172,-0.290287632562753,-0.0642099641412983,0.981216144045167
1580417108.52118,-0.287357900358588,-0.0661631189440754,0.98268101014725
1580417108.52517,-0.288334477759976,-0.070557717250324,0.98951705195697
1580417108.52917,-0.291264209964142,-0.0725108720531011,0.988052185854887
1580417108.53316,-0.288334477759976,-0.0725108720531011,0.990005340657664
1580417108.53715,-0.288822766460671,-0.0754406042572668,0.993423361562524
1580417108.54115,-0.289311055161365,-0.0764171816586554,0.990005340657664
1580417108.54514,-0.292240787365531,-0.0783703364614325,0.98951705195697
1580417108.54914,-0.294682230869002,-0.0813000686655982,0.988540474555581
1580417108.55313,-0.294682230869002,-0.0813000686655982,0.991958495460441
1580417108.55712,-0.296635385671779,-0.0793469138628211,0.990005340657664
1580417108.56112,-0.294193942168308,-0.0798352025635154,0.987563897154192
1580417108.56511,-0.289311055161365,-0.0861829556725411,0.988540474555581
1580417108.56911,-0.288822766460671,-0.0852063782711525,0.984145876249332
1580417108.5731,-0.285404745555811,-0.0866712443732354,0.982192721446555
1580417108.5771,-0.282475013351645,-0.0856946669718468,0.984634164950027
1580417108.58109,-0.280033569848174,-0.0847180895704582,0.984145876249332
1580417108.58508,-0.277103837644008,-0.0832532234683754,0.983657587548638
1580417108.58908,-0.273197528038454,-0.0817883573662925,0.980239566643778
1580417108.59307,-0.272709239337759,-0.0813000686655982,0.981216144045167
1580417108.59706,-0.270756084534982,-0.0832532234683754,0.980239566643778
1580417108.60104,-0.270267795834288,-0.080811779964904,0.976821545738918
1580417108.60504,-0.270267795834288,-0.0788586251621268,0.97926298924239
1580417108.60903,-0.268802929732205,-0.0744640268558783,0.974380102235447
1580417108.61302,-0.270756084534982,-0.0754406042572668,0.976333257038224
1580417108.61702,-0.273685816739148,-0.0734874494544897,0.977309834439613
1580417108.62101,-0.276615548943314,-0.0734874494544897,0.974380102235447
1580417108.62501,-0.276127260242619,-0.0695811398489354,0.974868390936141
1580417108.629,-0.276615548943314,-0.0681162737468526,0.976821545738918
1580417108.63299,-0.280521858548868,-0.0666514076447697,0.976333257038224
1580417108.63699,-0.285893034256505,-0.0627450980392155,0.980727855344472
1580417108.64098,-0.285893034256505,-0.0607919432364383,0.985610742351415
1580417108.64498,-0.284428168154422,-0.060303654535744,0.984634164950027
1580417108.64897,-0.287357900358588,-0.0593270771343555,0.98609903105211
1580417108.65296,-0.286381322957199,-0.0559090562294955,0.980727855344472
1580417108.65696,-0.286869611657893,-0.0534676127260241,0.984634164950027
1580417108.66095,-0.286381322957199,-0.0515144579232469,0.981216144045167
1580417108.66495,-0.283939879453728,-0.0495613031204698,0.984634164950027
1580417108.66894,-0.282475013351645,-0.048096437018387,0.98609903105211
1580417108.67294,-0.281986724650951,-0.048096437018387,0.98268101014725
1580417108.67693,-0.281010147249562,-0.0441901274128327,0.980727855344472
1580417108.68094,-0.278568703746091,-0.0466315709163041,0.978774700541695
1580417108.68493,-0.280033569848174,-0.0456549935149155,0.981704432745861
1580417108.68893,-0.280521858548868,-0.0427252613107498,0.98268101014725
1580417108.69292,-0.280521858548868,-0.0441901274128327,0.97926298924239
1580417108.69691,-0.281986724650951,-0.0437018387121384,0.976333257038224
1580417108.70091,-0.283451590753033,-0.0441901274128327,0.977309834439613
1580417108.7049,-0.284916456855116,-0.0476081483176927,0.97584496833753
1580417108.7089,-0.287846189059282,-0.0466315709163041,0.977798123140307
1580417108.71289,-0.292729076066225,-0.0476081483176927,0.985610742351415
1580417108.71688,-0.293217364766919,-0.044678416113527,0.984145876249332
1580417108.72088,-0.292729076066225,-0.044678416113527,0.985122453650721
1580417108.72487,-0.295170519569696,-0.0427252613107498,0.984634164950027
1580417108.72887,-0.300541695277333,-0.044678416113527,0.991470206759747
1580417108.73286,-0.297611963073168,-0.0437018387121384,0.98951705195697
1580417108.73685,-0.301518272678722,-0.041260395208667,0.99293507286183
1580417108.74085,-0.301518272678722,-0.0397955291065841,0.994399938963912
1580417108.74484,-0.302983138780805,-0.0368657969024184,0.996841382467384
1580417108.74884,-0.302494850080111,-0.0324711985961699,0.994399938963912
1580417108.75283,-0.301518272678722,-0.0305180437933927,0.994399938963912
1580417108.75682,-0.302006561379416,-0.0290531776913099,0.993911650263218
1580417108.7608,-0.303959716182193,-0.0295414663920042,0.999282825970855
1580417108.7648,-0.301029983978028,-0.027588311589227,0.997329671168078
1580417108.76879,-0.299076829175251,-0.0256351567864499,1.00270084687572
1580417108.77278,-0.299076829175251,-0.0236820019836728,1.00172426947433
1580417108.77678,-0.297611963073168,-0.0256351567864499,1.00221255817502
1580417108.78077,-0.296635385671779,-0.0256351567864499,1.00270084687572
1580417108.78477,-0.294682230869002,-0.0266117341878385,1.00025940337224
1580417108.78876,-0.294682230869002,-0.0300297550926985,0.998794537270161
1580417108.79275,-0.292240787365531,-0.0300297550926985,0.995376516365301
1580417108.79675,-0.292240787365531,-0.0329594872968642,0.99293507286183
1580417108.80074,-0.293217364766919,-0.0349126420996413,0.990493629358358
1580417108.80474,-0.295658808270391,-0.0363775082017241,0.984634164950027
1580417108.80873,-0.292729076066225,-0.0383306630045013,0.981704432745861
1580417108.81272,-0.293705653467613,-0.0373540856031127,0.981216144045167
1580417108.81672,-0.294682230869002,-0.0407721065079727,0.976821545738918
1580417108.82071,-0.293705653467613,-0.0441901274128327,0.977798123140307
1580417108.82471,-0.294193942168308,-0.0456549935149155,0.973403524834058
1580417108.8287,-0.291264209964142,-0.0466315709163041,0.978286411841001
1580417108.8327,-0.291264209964142,-0.0520027466239412,0.973403524834058
1580417108.83669,-0.287846189059282,-0.0495613031204698,0.980727855344472
1580417108.8407,-0.288334477759976,-0.0515144579232469,0.979751277943084
1580417108.84469,-0.288334477759976,-0.0554207675288012,0.981704432745861
1580417108.84869,-0.288822766460671,-0.0520027466239412,0.983657587548638
1580417108.85268,-0.288334477759976,-0.0568856336308841,0.983657587548638
1580417108.85667,-0.291264209964142,-0.0559090562294955,0.98609903105211
1580417108.86067,-0.287846189059282,-0.0568856336308841,0.985610742351415
1580417108.86466,-0.290775921263448,-0.0573739223315783,0.98268101014725
1580417108.86866,-0.290775921263448,-0.0598153658350498,0.983657587548638
1580417108.87265,-0.290287632562753,-0.0588387884336612,0.989028763256275
1580417108.87664,-0.292240787365531,-0.0583504997329669,0.988540474555581
1580417108.88064,-0.288822766460671,-0.0617685206378269,0.987075608453498
1580417108.88463,-0.287846189059282,-0.0598153658350498,0.985610742351415
1580417108.88863,-0.287357900358588,-0.0612802319371326,0.983657587548638
1580417108.89262,-0.286869611657893,-0.060303654535744,0.977798123140307
1580417108.89661,-0.283939879453728,-0.0632333867399097,0.980727855344472
1580417108.90061,-0.282475013351645,-0.0632333867399097,0.973403524834058
1580417108.9046,-0.277592126344702,-0.0632333867399097,0.971450370031281
1580417108.9086,-0.278080415045396,-0.0656748302433812,0.972915236133364
1580417108.91259,-0.272709239337759,-0.0681162737468526,0.973403524834058
1580417108.91658,-0.270756084534982,-0.0686045624475469,0.971938658731975
1580417108.92056,-0.271244373235676,-0.0656748302433812,0.966567483024338
1580417108.92456,-0.268802929732205,-0.0656748302433812,0.967055771725033
1580417108.92855,-0.265873197528039,-0.0676279850461583,0.966567483024338
1580417108.93254,-0.266849774929428,-0.0632333867399097,0.96900892652781
1580417108.93654,-0.264896620126651,-0.0593270771343555,0.971938658731975
1580417108.94053,-0.266849774929428,-0.0607919432364383,0.967055771725033
1580417108.94453,-0.268314641031511,-0.0559090562294955,0.966079194323644
1580417108.94852,-0.268802929732205,-0.0559090562294955,0.974868390936141
1580417108.95251,-0.271732661936371,-0.0544441901274126,0.980727855344472
1580417108.95651,-0.277103837644008,-0.0549324788281069,0.971938658731975
1580417108.9605,-0.276615548943314,-0.0515144579232469,0.977798123140307
1580417108.9645,-0.282963302052339,-0.0505378805218584,0.978774700541695
1580417108.96849,-0.286869611657893,-0.0485847257190812,0.983169298847944
1580417108.97248,-0.289311055161365,-0.0456549935149155,0.987563897154192
1580417108.97648,-0.292729076066225,-0.0456549935149155,0.989028763256275
1580417108.98047,-0.296147096971085,-0.0441901274128327,0.992446784161135
1580417108.98447,-0.297611963073168,-0.0456549935149155,0.990981918059052
1580417108.98846,-0.299076829175251,-0.041260395208667,0.99293507286183
1580417108.99245,-0.297611963073168,-0.0417486839093613,0.997817959868772
1580417108.99645,-0.300053406576639,-0.0432135500114441,0.998794537270161
1580417109.00046,-0.299076829175251,-0.0368657969024184,0.997329671168078
1580417109.00445,-0.299076829175251,-0.0324711985961699,1.0036774242771
1580417109.00845,-0.299076829175251,-0.0280766002899213,1.00221255817502
1580417109.01244,-0.299076829175251,-0.027588311589227,1.0036774242771
1580417109.01643,-0.295658808270391,-0.0207522697795071,1.00074769207294
1580417109.02043,-0.298588540474556,-0.0173342488746471,0.998794537270161
1580417109.02442,-0.295658808270391,-0.0139162279697871,0.994399938963912
1580417109.02841,-0.294193942168308,-0.0109864957656214,0.995376516365301
1580417109.03241,-0.293705653467613,-0.00952162966353853,0.991470206759747
1580417109.0364,-0.292729076066225,-0.00659189745937283,0.992446784161135
1580417109.0404,-0.293217364766919,-0.00903334096284425,0.988052185854887
1580417109.04439,-0.290287632562753,-0.00854505226214997,0.981704432745861
1580417109.04838,-0.290287632562753,-0.00952162966353853,0.98609903105211
1580417109.05238,-0.291752498664836,-0.00952162966353853,0.98268101014725
1580417109.05637,-0.293217364766919,-0.0104982070649271,0.979751277943084
1580417109.06037,-0.294682230869002,-0.0129396505683985,0.97926298924239
1580417109.06436,-0.298588540474556,-0.0114747844663157,0.977798123140307
1580417109.06835,-0.303471427481499,-0.0139162279697871,0.978286411841001
1580417109.07235,-0.306889448386359,-0.0197756923781185,0.978774700541695
1580417109.07634,-0.309819180590525,-0.0183108262760356,0.97926298924239
1580417109.08032,-0.313725490196079,-0.0217288471808956,0.98268101014725
1580417109.08432,-0.31958495460441,-0.024170290684367,0.98609903105211
1580417109.08831,-0.320073243305105,-0.0266117341878385,0.989028763256275
1580417109.0923,-0.320073243305105,-0.0251468680857556,0.992446784161135
1580417109.0963,-0.322026398107882,-0.027588311589227,0.999282825970855
1580417109.10029,-0.322026398107882,-0.0280766002899213,1.00025940337224
1580417109.10429,-0.319096665903716,-0.0305180437933927,1.00172426947433
1580417109.10828,-0.31958495460441,-0.0324711985961699,1.00465400167849
1580417109.11227,-0.316655222400245,-0.0329594872968642,1.00318913557641
1580417109.11627,-0.315678644998856,-0.031006332494087,1.00514229037919
1580417109.12026,-0.310307469291219,-0.0354009308003356,1.00465400167849
1580417109.12426,-0.305912870984971,-0.034424353398947,1.00856031128405
1580417109.12825,-0.304448004882888,-0.037842374303807,1.00270084687572
1580417109.13224,-0.300053406576639,-0.0388189517051956,1.00123598077363
1580417109.13624,-0.301029983978028,-0.0407721065079727,0.994888227664607
1580417109.14023,-0.296147096971085,-0.0417486839093613,0.991958495460441
1580417109.14423,-0.296147096971085,-0.0451667048142212,0.98268101014725
1580417109.14822,-0.294193942168308,-0.0441901274128327,0.97242694743267
1580417109.15221,-0.292729076066225,-0.0471198596169984,0.974380102235447
1580417109.15621,-0.289311055161365,-0.0505378805218584,0.964614328221561
1580417109.16022,-0.287846189059282,-0.0534676127260241,0.960708018616007
1580417109.16421,-0.286381322957199,-0.0559090562294955,0.959731441214618
1580417109.16821,-0.285404745555811,-0.0583504997329669,0.95875486381323
1580417109.1722,-0.284916456855116,-0.060303654535744,0.955825131609064
1580417109.17619,-0.282963302052339,-0.0632333867399097,0.953383688105593
1580417109.18019,-0.283451590753033,-0.0646982528419926,0.957289997711147
1580417109.18418,-0.281986724650951,-0.0656748302433812,0.955825131609064
1580417109.18817,-0.278080415045396,-0.063721675440604,0.959243152513924
1580417109.19217,-0.275638971541925,-0.0676279850461583,0.963637750820173
1580417109.19616,-0.274174105439842,-0.0676279850461583,0.965102616922255
1580417109.20016,-0.270267795834288,-0.0651865415426869,0.965102616922255
1580417109.20415,-0.269291218432899,-0.0661631189440754,0.969497215228504
1580417109.20814,-0.266361486228734,-0.0642099641412983,0.969497215228504
1580417109.21214,-0.263431754024568,-0.0651865415426869,0.972915236133364
1580417109.21613,-0.262943465323874,-0.0651865415426869,0.972915236133364
1580417109.22013,-0.261478599221791,-0.0651865415426869,0.976821545738918
1580417109.22412,-0.259525444419014,-0.0627450980392155,0.977309834439613
1580417109.22811,-0.260502021820402,-0.0651865415426869,0.974380102235447
1580417109.23211,-0.259525444419014,-0.063721675440604,0.976333257038224
1580417109.2361,-0.258548867017625,-0.0651865415426869,0.97584496833753
1580417109.24011,-0.262455176623179,-0.067139696345464,0.980239566643778
1580417109.24411,-0.258060578316931,-0.0661631189440754,0.988540474555581
1580417109.2481,-0.259037155718319,-0.0632333867399097,0.989028763256275
1580417109.25209,-0.259525444419014,-0.0642099641412983,0.989028763256275
1580417109.25609,-0.261478599221791,-0.0622568093385212,0.986587319752804
1580417109.26008,-0.262943465323874,-0.060303654535744,0.99293507286183
1580417109.26408,-0.265873197528039,-0.060303654535744,0.994888227664607
1580417109.26807,-0.268802929732205,-0.0573739223315783,0.99293507286183
1580417109.27206,-0.270756084534982,-0.0539559014267184,0.992446784161135
1580417109.27606,-0.271244373235676,-0.0568856336308841,0.992446784161135
1580417109.28005,-0.274174105439842,-0.0583504997329669,0.986587319752804
1580417109.28405,-0.275638971541925,-0.0563973449301898,0.98609903105211
1580417109.28804,-0.276127260242619,-0.0505378805218584,0.984634164950027
1580417109.29203,-0.275638971541925,-0.0529793240253298,0.988540474555581
1580417109.29603,-0.277592126344702,-0.0524910353246355,0.983657587548638
1580417109.30002,-0.277592126344702,-0.0476081483176927,0.986587319752804
1580417109.30402,-0.271732661936371,-0.0432135500114441,0.988052185854887
1580417109.30801,-0.270267795834288,-0.0417486839093613,0.985122453650721
1580417109.312,-0.271244373235676,-0.0373540856031127,0.990981918059052
1580417109.316,-0.269291218432899,-0.0319829098954756,0.991470206759747
1580417109.31998,-0.266849774929428,-0.0329594872968642,0.993423361562524
1580417109.32397,-0.269291218432899,-0.0285648889906156,0.990005340657664
1580417109.32796,-0.272709239337759,-0.0271000228885327,0.987075608453498
1580417109.33196,-0.271732661936371,-0.0217288471808956,0.98609903105211
1580417109.33595,-0.276615548943314,-0.0197756923781185,0.988540474555581
1580417109.33995,-0.281010147249562,-0.0144045166704814,0.987075608453498
1580417109.34394,-0.288822766460671,-0.0114747844663157,0.989028763256275
1580417109.34793,-0.296635385671779,-0.00659189745937283,0.990493629358358
1580417109.35193,-0.298588540474556,-0.00903334096284425,0.990981918059052
1580417109.35592,-0.309819180590525,-0.0075684748607614,0.99293507286183
1580417109.35992,-0.318608377203022,-0.00561532005798426,0.993911650263218
1580417109.36391,-0.325444419012742,-0.00317387655451284,1.00025940337224
1580417109.3679,-0.334233615625239,-0.00415045395590141,1.00953688868544
1580417109.3719,-0.335698481727322,-0.00122072175173571,1.01539635309377
1580417109.37589,-0.338628213931488,0.00122072175173571,1.01588464179446
1580417109.37989,-0.337651636530099,0.00170901045242999,1.0212558175021
1580417109.38388,-0.34009308003357,0.00170901045242999,1.02320897230488
1580417109.38787,-0.337651636530099,0.00219729915312428,1.02906843671321
1580417109.39187,-0.332768749523156,0.00268558785381856,1.02418554970626
1580417109.39586,-0.32983901731899,0.000244144350347142,1.01783779659724
1580417109.39987,-0.325444419012742,-0.000732433051041426,1.01197833218891
1580417109.40386,-0.31958495460441,-0.00317387655451284,1.00660715648127
1580417109.40786,-0.317143511100939,-0.00170901045242999,0.997817959868772
1580417109.41185,-0.317143511100939,-0.00512703135728998,0.995864805065995
1580417109.41585,-0.312260624093996,-0.0046387426565957,0.994888227664607
1580417109.41984,-0.313237201495385,-0.00512703135728998,0.992446784161135
1580417109.42384,-0.312260624093996,-0.00805676356145568,0.990981918059052
1580417109.42783,-0.309330891889831,-0.00952162966353853,0.988540474555581
1580417109.43182,-0.306889448386359,-0.0100099183642328,0.984145876249332
1580417109.43582,-0.303471427481499,-0.0109864957656214,0.976333257038224
1580417109.43981,-0.299565117875945,-0.0158693827725642,0.978774700541695
1580417109.4438,-0.294193942168308,-0.0178225375753414,0.970962081330587
1580417109.4478,-0.285404745555811,-0.0217288471808956,0.96559090562295
1580417109.45179,-0.281986724650951,-0.0271000228885327,0.956313420309758
1580417109.45579,-0.275150682841231,-0.0319829098954756,0.94166475928893
1580417109.45978,-0.268314641031511,-0.0393072404058898,0.943617914091707
1580417109.46377,-0.262455176623179,-0.041260395208667,0.939711604486153
1580417109.46777,-0.261478599221791,-0.0461432822156098,0.946547646295873
1580417109.47176,-0.255619134813459,-0.0510261692225527,0.950453955901427
1580417109.47576,-0.259037155718319,-0.0559090562294955,0.961196307316701
1580417109.47974,-0.256595712214848,-0.0588387884336612,0.968032349126421
1580417109.48373,-0.255619134813459,-0.0598153658350498,0.974868390936141
1580417109.48772,-0.254642557412071,-0.0651865415426869,0.976333257038224
1580417109.49172,-0.256107423514154,-0.0617685206378269,0.983169298847944
1580417109.49571,-0.257084000915542,-0.0642099641412983,0.985610742351415
1580417109.49971,-0.258060578316931,-0.063721675440604,0.980239566643778
1580417109.5037,-0.258060578316931,-0.0632333867399097,0.974868390936141
1580417109.50769,-0.260013733119708,-0.0676279850461583,0.977309834439613
1580417109.51169,-0.263431754024568,-0.0686045624475469,0.978286411841001
1580417109.51568,-0.260013733119708,-0.0676279850461583,0.984145876249332
1580417109.51968,-0.262455176623179,-0.0725108720531011,0.986587319752804
1580417109.52367,-0.258060578316931,-0.073975738155184,0.98951705195697
1580417109.52766,-0.259525444419014,-0.0788586251621268,0.998794537270161
1580417109.53166,-0.257572289616236,-0.0788586251621268,1.00514229037919
1580417109.53565,-0.258060578316931,-0.0778820477607383,1.00660715648127
1580417109.53965,-0.255130846112765,-0.0749523155565726,1.0124666208896
1580417109.54364,-0.253665980010682,-0.0754406042572668,1.01002517738613
1580417109.54763,-0.255130846112765,-0.0729991607537954,1.01100175478752
1580417109.55163,-0.254154268711376,-0.063721675440604,1.00758373388266
1580417109.55562,-0.258548867017625,-0.0578622110322726,1.00856031128405
1580417109.55963,-0.263431754024568,-0.0524910353246355,1.0041657129778
1580417109.56362,-0.264896620126651,-0.0388189517051956,1.00660715648127
1580417109.56762,-0.267826352330816,-0.0334477759975584,1.00807202258335
1580417109.57161,-0.270756084534982,-0.0261234454871442,1.00904859998474
1580417109.57561,-0.274174105439842,-0.0212405584802013,1.00074769207294
1580417109.5796,-0.274662394140536,-0.0158693827725642,1.00025940337224
1580417109.5836,-0.277103837644008,-0.0114747844663157,1.00270084687572
1580417109.58759,-0.274662394140536,-0.00903334096284425,0.994399938963912
1580417109.59158,-0.278568703746091,-0.00659189745937283,0.991958495460441
1580417109.59558,-0.281986724650951,-0.00610360875867855,0.991470206759747
1580417109.59957,-0.280033569848174,-0.00415045395590141,0.991958495460441
1580417109.60356,-0.283451590753033,-0.00561532005798426,0.99293507286183
1580417109.60756,-0.286381322957199,-0.0075684748607614,0.992446784161135
1580417109.61155,-0.284916456855116,-0.00805676356145568,0.989028763256275
1580417109.61555,-0.285404745555811,-0.00854505226214997,0.98951705195697
1580417109.61954,-0.287846189059282,-0.0104982070649271,0.989028763256275
1580417109.62353,-0.289311055161365,-0.00903334096284425,0.990493629358358
1580417109.62753,-0.287357900358588,-0.00805676356145568,0.988540474555581
1580417109.63152,-0.285404745555811,-0.0114747844663157,0.989028763256275
1580417109.63552,-0.285404745555811,-0.0104982070649271,0.994399938963912
1580417109.63949,-0.283451590753033,-0.01196307316701,0.991470206759747
1580417109.64349,-0.283451590753033,-0.0129396505683985,0.991470206759747
1580417109.64748,-0.284428168154422,-0.0139162279697871,0.990005340657664
1580417109.65148,-0.282963302052339,-0.0178225375753414,0.985610742351415
1580417109.65547,-0.284428168154422,-0.0168459601739528,0.985610742351415
1580417109.65946,-0.284916456855116,-0.0207522697795071,0.984634164950027
1580417109.66346,-0.286381322957199,-0.0231937132829785,0.984145876249332
1580417109.66745,-0.285893034256505,-0.0271000228885327,0.983169298847944
1580417109.67145,-0.286869611657893,-0.0261234454871442,0.976333257038224
1580417109.67544,-0.286869611657893,-0.0271000228885327,0.974380102235447
1580417109.67944,-0.286381322957199,-0.0305180437933927,0.971938658731975
1580417109.68343,-0.283451590753033,-0.0329594872968642,0.968032349126421
1580417109.68742,-0.287846189059282,-0.037842374303807,0.966567483024338
1580417109.69142,-0.284428168154422,-0.037842374303807,0.965102616922255
1580417109.69541,-0.285404745555811,-0.0397955291065841,0.964126039520867
1580417109.6994,-0.281010147249562,-0.0397955291065841,0.964126039520867
1580417109.7034,-0.283939879453728,-0.0427252613107498,0.970473792629893
1580417109.70739,-0.282475013351645,-0.0422369726100555,0.970473792629893
1580417109.71139,-0.281986724650951,-0.0437018387121384,0.969497215228504
1580417109.71538,-0.280521858548868,-0.0397955291065841,0.980239566643778
1580417109.71939,-0.278080415045396,-0.0407721065079727,0.977309834439613
1580417109.72338,-0.277592126344702,-0.0437018387121384,0.977798123140307
1580417109.72738,-0.274174105439842,-0.041260395208667,0.985122453650721
1580417109.73137,-0.277103837644008,-0.0393072404058898,0.987563897154192
1580417109.73537,-0.278080415045396,-0.0417486839093613,0.990005340657664
1580417109.73936,-0.275638971541925,-0.0417486839093613,0.990493629358358
1580417109.74335,-0.276127260242619,-0.0388189517051956,0.993911650263218
1580417109.74735,-0.277103837644008,-0.037842374303807,0.99635309376669
1580417109.75134,-0.281010147249562,-0.0383306630045013,0.98951705195697
1580417109.75534,-0.279056992446785,-0.034424353398947,0.989028763256275
1580417109.75933,-0.281010147249562,-0.037842374303807,0.988052185854887
1580417109.76332,-0.286381322957199,-0.0373540856031127,0.991470206759747
1580417109.76732,-0.284428168154422,-0.0368657969024184,0.990493629358358
1580417109.77131,-0.284916456855116,-0.0363775082017241,0.98951705195697
1580417109.77531,-0.285893034256505,-0.0334477759975584,0.989028763256275
1580417109.7793,-0.283939879453728,-0.0334477759975584,0.994399938963912
1580417109.78329,-0.285404745555811,-0.0314946211947813,0.989028763256275
1580417109.78729,-0.283451590753033,-0.034424353398947,0.990493629358358
1580417109.79128,-0.281498435950256,-0.0354009308003356,0.988540474555581
1580417109.79528,-0.285404745555811,-0.0368657969024184,0.983169298847944
1580417109.79925,-0.282475013351645,-0.0339360646982527,0.985610742351415
1580417109.80325,-0.279545281147479,-0.0358892195010299,0.981216144045167
1580417109.80724,-0.283451590753033,-0.034424353398947,0.980239566643778
1580417109.81124,-0.282963302052339,-0.037842374303807,0.983169298847944
1580417109.81523,-0.281010147249562,-0.0349126420996413,0.98609903105211
1580417109.81922,-0.282963302052339,-0.0329594872968642,0.987563897154192
1580417109.82322,-0.283451590753033,-0.0314946211947813,0.988540474555581
1580417109.82721,-0.282475013351645,-0.031006332494087,0.990005340657664
1580417109.83121,-0.283451590753033,-0.0285648889906156,0.991470206759747
1580417109.8352,-0.285404745555811,-0.0305180437933927,0.994399938963912
1580417109.8392,-0.280521858548868,-0.031006332494087,0.99293507286183
1580417109.84319,-0.281010147249562,-0.0300297550926985,0.996841382467384
1580417109.84718,-0.278568703746091,-0.0280766002899213,0.995376516365301
1580417109.85118,-0.277103837644008,-0.0295414663920042,0.991470206759747
1580417109.85517,-0.278568703746091,-0.0329594872968642,0.993423361562524
1580417109.85916,-0.278080415045396,-0.037842374303807,0.990493629358358
1580417109.86316,-0.275150682841231,-0.0393072404058898,0.990005340657664
1580417109.86715,-0.281010147249562,-0.0432135500114441,0.991958495460441
1580417109.87115,-0.277103837644008,-0.0456549935149155,0.988052185854887
1580417109.87514,-0.279545281147479,-0.0432135500114441,0.996841382467384
1580417109.87915,-0.278568703746091,-0.044678416113527,0.994888227664607
1580417109.88314,-0.280521858548868,-0.044678416113527,0.99635309376669
1580417109.88714,-0.280521858548868,-0.0417486839093613,0.994399938963912
1580417109.89113,-0.284428168154422,-0.0363775082017241,0.993423361562524
1580417109.89513,-0.287846189059282,-0.0383306630045013,0.984145876249332
1580417109.89912,-0.289799343862059,-0.0339360646982527,0.988052185854887
1580417109.90311,-0.292729076066225,-0.0358892195010299,0.987075608453498
1580417109.90711,-0.293705653467613,-0.0319829098954756,0.983657587548638
1580417109.9111,-0.295170519569696,-0.0305180437933927,0.987075608453498
1580417109.9151,-0.293705653467613,-0.0305180437933927,0.990981918059052
1580417109.91909,-0.288822766460671,-0.0290531776913099,0.990493629358358
1580417109.92308,-0.286869611657893,-0.0290531776913099,0.988540474555581
1580417109.92708,-0.289799343862059,-0.0246585793850613,0.990493629358358
1580417109.93107,-0.293217364766919,-0.0212405584802013,0.993911650263218
1580417109.93507,-0.296635385671779,-0.0144045166704814,0.996841382467384
1580417109.93906,-0.305424582284276,-0.0109864957656214,0.990981918059052
1580417109.94305,-0.309819180590525,-0.00561532005798426,0.994888227664607
1580417109.94705,-0.311772335393302,-0.00708018616006711,0.994399938963912
1580417109.95104,-0.309819180590525,-0.0129396505683985,0.995376516365301
1580417109.95504,-0.306889448386359,-0.0148928053711757,0.996841382467384
1580417109.95901,-0.296147096971085,-0.0104982070649271,1.0041657129778
1580417109.96301,-0.284428168154422,-0.0075684748607614,0.999282825970855
1580417109.967,-0.272220950637065,-0.00561532005798426,1.01051346608682
1580417109.971,-0.268802929732205,0.00219729915312428,1.0124666208896
1580417109.97499,-0.266361486228734,0.0153810940718699,1.01637293049516
1580417109.97898,-0.275638971541925,0.0324711985961699,1.01441977569238
1580417109.98298,-0.283451590753033,0.0451667048142212,1.02369726100557
1580417109.98697,-0.290775921263448,0.0490730144197755,1.04420538643473
1580417109.99097,-0.287357900358588,0.0437018387121384,1.05348287174792
1580417109.99496,-0.274662394140536,0.024170290684367,1.04078736552987
1580417109.99895,-0.256595712214848,0.0046387426565957,1.00514229037919
1580417110.00295,-0.239017318989852,-0.0227054245822842,0.963149462119478
1580417110.00694,-0.224368657969023,-0.0417486839093613,0.911879148546578
1580417110.01094,-0.219974059662775,-0.0573739223315783,0.878675516899367
1580417110.01493,-0.222903791866941,-0.0676279850461583,0.861097123674373
1580417110.01892,-0.226810101472495,-0.0769054703593497,0.865003433279927
1580417110.02292,-0.234622720683603,-0.0783703364614325,0.893324177920196
1580417110.02691,-0.242435339894712,-0.0744640268558783,0.927016098268101
1580417110.03091,-0.250736247806516,-0.067139696345464,0.961196307316701
1580417110.0349,-0.254154268711376,-0.0681162737468526,0.994888227664607
1580417110.03891,-0.253665980010682,-0.0715342946517126,1.01881437399863
1580417110.0429,-0.246341649500266,-0.0710460059510183,1.03102159151598
1580417110.0469,-0.236087586785686,-0.073975738155184,1.03053330281529
1580417110.05089,-0.225833524071106,-0.0783703364614325,1.02906843671321
1580417110.05488,-0.223392080567635,-0.0813000686655982,1.02272068360418
1580417110.05888,-0.217532616159303,-0.0837415121690697,1.02613870450904
1580417110.06287,-0.220950637064163,-0.080811779964904,1.02027924010071
1580417110.06687,-0.230716411078049,-0.0759288929579611,1.01881437399863
1580417110.07086,-0.240970473792629,-0.070557717250324,1.01588464179446
1580417110.07485,-0.251224536507211,-0.060303654535744,1.01539635309377
1580417110.07885,-0.274174105439842,-0.0495613031204698,1.01686121919585
1580417110.08284,-0.311772335393302,-0.0261234454871442,1.00904859998474
1580417110.08684,-0.343022812237736,-0.0187991149767299,1.00270084687572
1580417110.09083,-0.345952544441902,-0.0236820019836728,0.990493629358358
1580417110.09483,-0.346440833142596,-0.0173342488746471,0.972915236133364
1580417110.09882,-0.349858854047456,-0.0187991149767299,0.950453955901427
1580417110.10281,-0.336186770428016,-0.0334477759975584,0.933852140077821
1580417110.10681,-0.316655222400245,-0.0485847257190812,0.918715190356298
1580417110.1108,-0.303471427481499,-0.060303654535744,0.904554818036164
1580417110.11479,-0.283939879453728,-0.0754406042572668,0.918226901655604
1580417110.11877,-0.265384908827345,-0.0856946669718468,0.931898985275044
1580417110.12277,-0.257572289616236,-0.0939955748836496,0.957778286411841
1580417110.12676,-0.252689402609294,-0.0944838635843439,0.986587319752804
1580417110.13076,-0.242435339894712,-0.0959487296864268,1.01734950789654
1580417110.13475,-0.235599298084992,-0.0881361104753182,1.0295567254139
1580417110.13874,-0.237064164187075,-0.080811779964904,1.04420538643473
1580417110.14274,-0.231204699778743,-0.0729991607537954,1.04567025253681
1580417110.14673,-0.228763256275272,-0.0651865415426869,1.0378576333257
1580417110.15073,-0.235111009384298,-0.0593270771343555,1.02613870450904
1580417110.15472,-0.238040741588463,-0.0544441901274126,1.00807202258335
1580417110.15871,-0.246341649500266,-0.060303654535744,0.993911650263218
1580417110.16271,-0.256595712214848,-0.0554207675288012,0.982192721446555
1580417110.1667,-0.268802929732205,-0.0656748302433812,0.97926298924239
1580417110.1707,-0.273685816739148,-0.0725108720531011,0.970473792629893
1580417110.17469,-0.282475013351645,-0.0749523155565726,0.964614328221561
1580417110.17868,-0.291752498664836,-0.0764171816586554,0.959243152513924
1580417110.18268,-0.295658808270391,-0.0715342946517126,0.953383688105593
1580417110.18667,-0.297611963073168,-0.060303654535744,0.94850080109865
1580417110.19067,-0.299076829175251,-0.0505378805218584,0.950942244602121
1580417110.19466,-0.295658808270391,-0.0397955291065841,0.958266575112535
1580417110.19867,-0.297611963073168,-0.0266117341878385,0.97242694743267
1580417110.20266,-0.298100251773862,-0.0192874036774242,0.987075608453498
1580417110.20666,-0.311772335393302,-0.00561532005798426,0.99977111467155
1580417110.21065,-0.330815594720379,0.00366216525520713,1.00758373388266
1580417110.21464,-0.344975967040513,0.00610360875867855,1.01783779659724
1580417110.21864,-0.352300297550928,-0.00122072175173571,1.02174410620279
1580417110.22263,-0.349370565346762,-0.00415045395590141,1.0207675288014
1580417110.22663,-0.346440833142596,-0.0158693827725642,1.01979095140002
1580417110.23062,-0.338139925230793,-0.0227054245822842,1.01979095140002
1580417110.23461,-0.328374151216908,-0.0290531776913099,1.01979095140002
1580417110.23861,-0.312748912794691,-0.0432135500114441,1.02223239490349
1580417110.2426,-0.298588540474556,-0.0495613031204698,1.02467383840696
1580417110.2466,-0.282963302052339,-0.0578622110322726,1.03248645761807
1580417110.25059,-0.266849774929428,-0.0651865415426869,1.03541618982223
1580417110.25459,-0.255130846112765,-0.0690928511482412,1.03932249942779
1580417110.25858,-0.243900205996795,-0.0720225833524069,1.04371709773404
1580417110.26257,-0.237064164187075,-0.0676279850461583,1.03932249942779
1580417110.26657,-0.231204699778743,-0.0686045624475469,1.03688105592432
1580417110.27056,-0.229251544975966,-0.0700694285496297,1.01930266269932
1580417110.27455,-0.232181277180132,-0.070557717250324,1.00318913557641
1580417110.27853,-0.23315785458152,-0.0695811398489354,0.984145876249332
1580417110.28253,-0.237552452887769,-0.0695811398489354,0.974868390936141
1580417110.28652,-0.244876783398183,-0.0695811398489354,0.971938658731975
1580417110.29052,-0.250247959105822,-0.0759288929579611,0.967055771725033
1580417110.29451,-0.257084000915542,-0.0788586251621268,0.967055771725033
1580417110.2985,-0.262455176623179,-0.0832532234683754,0.962661173418784
1580417110.3025,-0.264408331425956,-0.0852063782711525,0.966079194323644
1580417110.30649,-0.269779507133594,-0.0891126878767068,0.964614328221561
1580417110.31048,-0.275638971541925,-0.0935072861829553,0.961684596017395
1580417110.31448,-0.278080415045396,-0.0915541313801782,0.954848554207675
1580417110.31847,-0.282963302052339,-0.0915541313801782,0.95533684290837
1580417110.32247,-0.285404745555811,-0.0930189974822611,0.956801709010453
1580417110.32646,-0.285893034256505,-0.0910658426794839,0.967544060425727
1580417110.33045,-0.286869611657893,-0.0891126878767068,0.97242694743267
1580417110.33445,-0.289311055161365,-0.0842298008697639,0.985122453650721
1580417110.33844,-0.287846189059282,-0.0798352025635154,0.996841382467384
1580417110.34244,-0.283451590753033,-0.0734874494544897,1.00514229037919
1580417110.34643,-0.277103837644008,-0.0720225833524069,1.00660715648127
1580417110.35043,-0.268802929732205,-0.067139696345464,1.00514229037919
1580417110.35442,-0.266361486228734,-0.0632333867399097,1.00563057907988
1580417110.35843,-0.259037155718319,-0.0583504997329669,1.01197833218891
1580417110.36242,-0.252689402609294,-0.0568856336308841,1.01051346608682
1580417110.36642,-0.24682993820096,-0.0534676127260241,1.01100175478752
1580417110.37041,-0.243900205996795,-0.048096437018387,1.00465400167849
1580417110.3744,-0.240482185091935,-0.0422369726100555,1.01490806439307
1580417110.3784,-0.2434119172961,-0.0393072404058898,1.00953688868544
1580417110.38239,-0.239505607690546,-0.0368657969024184,1.00270084687572
1580417110.38639,-0.23999389639124,-0.0339360646982527,0.993911650263218
1580417110.39038,-0.252201113908599,-0.0363775082017241,0.988540474555581
1580417110.39437,-0.257572289616236,-0.0334477759975584,0.977798123140307
1580417110.39837,-0.268314641031511,-0.0358892195010299,0.96900892652781
1580417110.40236,-0.275638971541925,-0.0397955291065841,0.966079194323644
1580417110.40636,-0.279056992446785,-0.0427252613107498,0.964126039520867
1580417110.41035,-0.280521858548868,-0.0466315709163041,0.965102616922255
1580417110.41434,-0.281498435950256,-0.0515144579232469,0.96900892652781
1580417110.41834,-0.283939879453728,-0.0549324788281069,0.966567483024338
1580417110.42233,-0.280521858548868,-0.0583504997329669,0.973403524834058
1580417110.42633,-0.278568703746091,-0.0573739223315783,0.981704432745861
1580417110.43032,-0.270267795834288,-0.0607919432364383,0.987075608453498
1580417110.43431,-0.263431754024568,-0.0622568093385212,0.998306248569467
1580417110.43829,-0.256595712214848,-0.0627450980392155,1.00270084687572
1580417110.44229,-0.253665980010682,-0.0676279850461583,1.00514229037919
1580417110.44628,-0.250247959105822,-0.0710460059510183,1.00807202258335
1580417110.45027,-0.245853360799572,-0.0744640268558783,1.00514229037919
1580417110.45427,-0.244876783398183,-0.0778820477607383,1.00025940337224
1580417110.45826,-0.249759670405126,-0.0778820477607383,0.999282825970855
1580417110.46226,-0.252689402609294,-0.077393759060044,0.997817959868772
1580417110.46625,-0.257084000915542,-0.0769054703593497,0.997817959868772
1580417110.47024,-0.258548867017625,-0.0734874494544897,0.994399938963912
1580417110.47424,-0.261478599221791,-0.0715342946517126,0.994399938963912
1580417110.47823,-0.261966887922485,-0.0720225833524069,0.992446784161135
1580417110.48223,-0.263431754024568,-0.0700694285496297,0.985610742351415
1580417110.48622,-0.260990310521096,-0.0734874494544897,0.989028763256275
1580417110.49021,-0.263431754024568,-0.0676279850461583,0.983169298847944
1580417110.49421,-0.260502021820402,-0.0617685206378269,0.980727855344472
1580417110.4982,-0.259037155718319,-0.060303654535744,0.971450370031281
1580417110.5022,-0.259037155718319,-0.0490730144197755,0.964126039520867
1580417110.50619,-0.262943465323874,-0.0432135500114441,0.956801709010453
1580417110.51019,-0.268802929732205,-0.0319829098954756,0.952895399404898
1580417110.51418,-0.272220950637065,-0.0231937132829785,0.94850080109865
1580417110.51819,-0.279056992446785,-0.0124513618677042,0.95191882200351
1580417110.52218,-0.284916456855116,0.00317387655451284,0.95533684290837
1580417110.52618,-0.281986724650951,0.0187991149767299,0.971938658731975
1580417110.53017,-0.286381322957199,0.0305180437933927,0.995376516365301
1580417110.53416,-0.290775921263448,0.0471198596169984,1.00270084687572
1580417110.53816,-0.293217364766919,0.063721675440604,0.984145876249332
1580417110.54215,-0.296635385671779,0.0783703364614325,0.967055771725033
1580417110.54615,-0.302006561379416,0.0813000686655982,0.982192721446555
1580417110.55014,-0.315678644998856,0.0866712443732354,0.99293507286183
1580417110.55413,-0.316166933699551,0.0881361104753182,1.0124666208896
1580417110.55813,-0.310795757991913,0.0900892652780954,1.00563057907988
1580417110.56212,-0.298100251773862,0.0935072861829553,0.993423361562524
1580417110.56612,-0.274662394140536,0.0930189974822611,0.999282825970855
1580417110.57011,-0.240970473792629,0.0920424200808725,0.971938658731975
1580417110.5741,-0.205325398641946,0.0588387884336612,1.03883421072709
1580417110.5781,-0.235599298084992,0.0207522697795071,1.11451895933471
1580417110.58209,-0.285893034256505,0.0163576714732585,1.01637293049516
1580417110.58609,-0.307377737087053,0.00366216525520713,0.806408789196613
1580417110.59008,-0.318608377203022,-0.0661631189440754,0.663828488593882
1580417110.59407,-0.357671473258565,-0.169192034790569,0.614999618524454
1580417110.59805,-0.411383230334936,-0.285893034256505,0.641367208361945
1580417110.60205,-0.448493171587701,-0.396246280613413,0.728770885786222
1580417110.60604,-0.450934615091173,-0.472419317921721,0.819104295414665
1580417110.61003,-0.432867933165484,-0.53150225070573,0.89723048752575
1580417110.61403,-0.397711146715496,-0.567147325856412,0.95533684290837
1580417110.61802,-0.345952544441902,-0.592050049591821,1.0036774242771
1580417110.62202,-0.285893034256505,-0.596444647898069,1.0383459220264
1580417110.62601,-0.226810101472495,-0.576424811169604,1.05934233615625
1580417110.63,-0.167727168688486,-0.542732890821698,1.08326848249027
1580417110.634,-0.120851453421835,-0.500251773861295,1.11549553673609
1580417110.63799,-0.0827649347676811,-0.455817502098116,1.16432440680552
1580417110.64199,-0.0563973449301898,-0.404058899824522,1.21071183337148
1580417110.64598,-0.0432135500114441,-0.352788586251622,1.25905241474021
1580417110.64997,-0.0466315709163041,-0.294682230869002,1.28102540627146
1580417110.65397,-0.0666514076447697,-0.234622720683603,1.28542000457771
1580417110.65796,-0.0939955748836496,-0.174563210498206,1.26637674525063
1580417110.66196,-0.127687495231555,-0.127199206530861,1.23219653620203
1580417110.66595,-0.156008239871824,-0.0896009765774011,1.18580910963607
1580417110.66994,-0.185793850614175,-0.0632333867399097,1.13258564126039
1580417110.67394,-0.216067750057221,-0.0402838178072784,1.0896162355993
1580417110.67795,-0.247318226901655,-0.0280766002899213,1.0554360265507
1580417110.68194,-0.272709239337759,-0.0183108262760356,1.03395132372015
1580417110.68594,-0.289799343862059,-0.00610360875867855,1.01686121919585
1580417110.68993,-0.290775921263448,0.00317387655451284,1.01881437399863
1580417110.69392,-0.281010147249562,0.0202639810788128,1.01930266269932
1580417110.69792,-0.259525444419014,0.0437018387121384,1.02174410620279
1580417110.70191,-0.231204699778743,0.063721675440604,1.02516212710765
1580417110.70591,-0.195559624628061,0.0759288929579611,1.02174410620279
1580417110.7099,-0.152101930266269,0.0749523155565726,1.00270084687572
1580417110.71389,-0.101808194094758,0.0544441901274126,0.976333257038224
1580417110.71789,-0.0563973449301898,0.0202639810788128,0.939223315785458
1580417110.72188,-0.0114747844663157,-0.0246585793850613,0.896742198825056
1580417110.72587,0.0197756923781185,-0.0676279850461583,0.860120546272984
1580417110.72987,0.0285648889906156,-0.0988784618905925,0.844983596551462
1580417110.73386,0.0251468680857556,-0.119874876020447,0.848401617456322
1580417110.73786,0.0075684748607614,-0.123781185626001,0.867933165484093
1580417110.74185,-0.0153810940718699,-0.105226214999618,0.903578240634776
1580417110.74584,-0.0441901274128327,-0.0734874494544897,0.953871976806287
1580417110.74984,-0.0788586251621268,-0.0300297550926985,0.985122453650721
1580417110.75383,-0.113038834210727,0.0246585793850613,0.973891813534753
1580417110.75781,-0.143312733653772,0.0832532234683754,0.93482871747921
1580417110.76181,-0.186770428015564,0.132570382238498,0.881605249103533
1580417110.7658,-0.234622720683603,0.174563210498206,0.838635843442436
1580417110.76979,-0.287846189059282,0.210208285648889,0.805432211795225
1580417110.77379,-0.331792172121768,0.231204699778743,0.776623178454262
1580417110.77778,-0.35718318455787,0.228274967574578,0.750255588616771
1580417110.78178,-0.369878690775922,0.198977645532921,0.730724040588999
1580417110.78577,-0.373785000381476,0.154055085069047,0.725352864881362
1580417110.78976,-0.377203021286336,0.101808194094758,0.731700617990388
1580417110.79376,-0.38452735179675,0.0539559014267184,0.742442969405662
1580417110.79775,-0.379156176089113,0.0139162279697871,0.76392767223621
1580417110.80175,-0.364507515068285,-0.00659189745937283,0.798596169985505
1580417110.80574,-0.338139925230793,-0.0124513618677042,0.840588998245213
1580417110.80973,-0.304936293583582,-0.00610360875867855,0.877210650797284
1580417110.81373,-0.271244373235676,0.01196307316701,0.912367437247273
1580417110.81772,-0.239017318989852,0.0393072404058898,0.956801709010453
1580417110.82172,-0.213138017853055,0.0588387884336612,1.01881437399863
1580417110.82571,-0.190188448920424,0.077393759060044,1.09205767910277
1580417110.8297,-0.168703746089875,0.0827649347676811,1.13746852826734
1580417110.8337,-0.182864118410009,0.0876478217746239,1.15651178759441
1580417110.83771,-0.215579461356526,0.0729991607537954,1.15260547798886
1580417110.8417,-0.262943465323874,0.0456549935149155,1.12477302204929
1580417110.8457,-0.298588540474556,-0.00366216525520713,1.05885404745556
1580417110.84969,-0.322026398107882,-0.0632333867399097,0.977309834439613
1580417110.85368,-0.347905699244679,-0.147219043259327,0.92115663385977
1580417110.85768,-0.379156176089113,-0.23999389639124,0.89723048752575
1580417110.86167,-0.40845349813077,-0.329350728618296,0.906507972838941
1580417110.86566,-0.429449912260624,-0.410894941634242,0.942153047989624
1580417110.86966,-0.438239108873121,-0.488532845044633,0.979751277943084
1580417110.87365,-0.44263370717937,-0.573006790264744,1.01100175478752
1580417110.87765,-0.434332799267567,-0.657480735484855,1.02809185931182
1580417110.88164,-0.421637293049516,-0.72877088578622,1.03883421072709
1580417110.88563,-0.414312962539102,-0.771252002746625,1.04859998474098
1580417110.88963,-0.404547188525216,-0.775646601052873,1.05787747005417
1580417110.89362,-0.386480506599527,-0.754161898222325,1.04908827344167
1580417110.89762,-0.365972381170367,-0.712169069962615,1.03443961242084
1580417110.90161,-0.333745326924545,-0.672129396505683,1.01344319829099
1580417110.9056,-0.301518272678722,-0.630136568245975,0.998306248569467
1580417110.9096,-0.279056992446785,-0.588143739986267,1.00221255817502
1580417110.91359,-0.275150682841231,-0.531013962005035,1.03248645761807
1580417110.91757,-0.284428168154422,-0.465583276112001,1.06715495536736
1580417110.92157,-0.293705653467613,-0.392828259708553,1.08815136949721
1580417110.92556,-0.300053406576639,-0.318120088502328,1.0808270389868
1580417110.92955,-0.311772335393302,-0.247806515602349,1.04176394293126
1580417110.93355,-0.324956130312048,-0.173586633096818,1.0036774242771
1580417110.93754,-0.341069657434959,-0.112062256809338,0.98268101014725
1580417110.94154,-0.348882276646068,-0.0651865415426869,0.966567483024338
1580417110.94553,-0.358648050659953,-0.0256351567864499,0.943617914091707
1580417110.94952,-0.360112916762036,0.00366216525520713,0.928480964370184
1580417110.95352,-0.359136339360647,0.024170290684367,0.917250324254216
1580417110.95751,-0.351323720149539,0.034424353398947,0.908949416342413
1580417110.96151,-0.332280460822462,0.0349126420996413,0.921644922560464
1580417110.9655,-0.306401159685665,0.0314946211947813,0.922133211261158
1580417110.96949,-0.281498435950256,0.0295414663920042,0.93141069657435
1580417110.97349,-0.269779507133594,0.0324711985961699,0.939711604486153
1580417110.97748,-0.263431754024568,0.0432135500114441,0.949477378500038
1580417110.98147,-0.259037155718319,0.0622568093385212,0.951430533302815
1580417110.98547,-0.250736247806516,0.0905775539787896,0.959243152513924
1580417110.98946,-0.2434119172961,0.133546959639887,0.964126039520867
1580417110.99346,-0.237552452887769,0.178469520103761,0.978774700541695
1580417110.99747,-0.23999389639124,0.218020904859998,0.990981918059052
1580417111.00146,-0.23999389639124,0.246341649500266,0.993423361562524
1580417111.00546,-0.237552452887769,0.254154268711375,0.981704432745861
1580417111.00945,-0.234622720683603,0.23999389639124,0.965102616922255
1580417111.01344,-0.228763256275272,0.206301976043335,0.966079194323644
1580417111.01744,-0.230228122377355,0.157473105973907,0.978774700541695
1580417111.02143,-0.236087586785686,0.0954604409857325,1.0041657129778
1580417111.02542,-0.235599298084992,0.0261234454871442,1.02565041580835
1580417111.02942,-0.238529030289158,-0.0432135500114441,1.03150988021668
1580417111.03341,-0.243900205996795,-0.108644235904478,1.02711528191043
1580417111.03741,-0.252689402609294,-0.172121766994735,1.01344319829099
1580417111.0414,-0.261966887922485,-0.228274967574578,1.01393148699168
1580417111.04539,-0.270756084534982,-0.282963302052339,1.0212558175021
1580417111.04939,-0.281498435950256,-0.318608377203022,1.02516212710765
1580417111.05338,-0.295658808270391,-0.348882276646068,1.02516212710765
1580417111.05738,-0.310307469291219,-0.36743724727245,1.01637293049516
1580417111.06137,-0.329350728618296,-0.368902113374533,1.01881437399863
1580417111.06536,-0.349370565346762,-0.365484092469673,1.02906843671321
1580417111.06936,-0.371831845578699,-0.350835431448845,1.02809185931182
1580417111.07335,-0.390386816205082,-0.327885862516213,1.01881437399863
1580417111.07733,-0.403082322423133,-0.286869611657893,0.997329671168078
1580417111.08132,-0.412359807736324,-0.245853360799572,0.981216144045167
1580417111.08532,-0.413336385137713,-0.213138017853055,0.971450370031281
1580417111.08931,-0.410894941634242,-0.182864118410009,0.958266575112535
1580417111.09331,-0.396246280613413,-0.155519951171129,0.943129625391013
1580417111.0973,-0.380132753490502,-0.127199206530861,0.930434119172961
1580417111.10129,-0.367925535973145,-0.096437018387121,0.903578240634776
1580417111.10529,-0.347905699244679,-0.0715342946517126,0.885999847409781
1580417111.10928,-0.331303883421073,-0.0549324788281069,0.886488136110476
1580417111.11328,-0.312748912794691,-0.0456549935149155,0.900160219729916
1580417111.11727,-0.301518272678722,-0.0334477759975584,0.91432059205005
1580417111.12126,-0.295658808270391,-0.0251468680857556,0.94508278019379
1580417111.12526,-0.304448004882888,-0.0148928053711757,0.967055771725033
1580417111.12925,-0.315190356298162,-0.0046387426565957,0.984634164950027
1580417111.13325,-0.312260624093996,-0.00366216525520713,0.982192721446555
1580417111.13724,-0.312748912794691,-0.0124513618677042,0.985610742351415
1580417111.14123,-0.311772335393302,-0.024170290684367,0.988052185854887
1580417111.14523,-0.308354314488442,-0.0490730144197755,1.00709544518196
1580417111.14922,-0.304936293583582,-0.0744640268558783,1.01979095140002
1580417111.15322,-0.293705653467613,-0.0910658426794839,1.02467383840696
1580417111.1572,-0.277592126344702,-0.115968566414892,1.02662699320974
1580417111.16119,-0.263431754024568,-0.138918135347524,1.02613870450904
1580417111.16518,-0.248783093003738,-0.154055085069047,1.02418554970626
1580417111.16918,-0.23999389639124,-0.167727168688486,1.02516212710765
1580417111.17317,-0.246341649500266,-0.172121766994735,1.02027924010071
1580417111.17717,-0.255619134813459,-0.176028076600289,1.00172426947433
1580417111.18116,-0.265384908827345,-0.176028076600289,0.980239566643778
1580417111.18515,-0.276127260242619,-0.177004654001678,0.960219729915313
1580417111.18915,-0.288334477759976,-0.180422674906538,0.95191882200351
1580417111.19314,-0.306889448386359,-0.185793850614175,0.940199893186847
1580417111.19714,-0.324467841611353,-0.191653315022506,0.928480964370184
1580417111.20113,-0.35034714274815,-0.197512779430838,0.923598077363241
1580417111.20512,-0.37769130998703,-0.206790264744029,0.916273746852827
1580417111.20912,-0.391851682307164,-0.213626306553749,0.911390859845884
1580417111.21311,-0.394293125810636,-0.227786678873883,0.916273746852827
1580417111.2171,-0.387457084000916,-0.244876783398183,0.918226901655604
1580417111.2211,-0.374761577782865,-0.270756084534982,0.92115663385977
1580417111.22509,-0.354253452353705,-0.296147096971085,0.925062943465324
1580417111.22909,-0.338139925230793,-0.309819180590525,0.913344014648661
1580417111.23308,-0.315190356298162,-0.314702067597468,0.926527809567407
1580417111.23709,-0.288822766460671,-0.302494850080111,0.935805294880598
1580417111.24108,-0.263431754024568,-0.277592126344702,0.946059357595178
1580417111.24508,-0.244388494697489,-0.24682993820096,0.960219729915313
1580417111.24907,-0.239505607690546,-0.216067750057221,0.966079194323644
1580417111.25307,-0.241947051194018,-0.193606469825284,0.988540474555581
1580417111.25706,-0.261478599221791,-0.174563210498206,0.996841382467384
1580417111.26105,-0.274662394140536,-0.160891126878766,1.01149004348821
1580417111.26505,-0.295170519569696,-0.139894712748912,1.00709544518196
1580417111.26904,-0.315190356298162,-0.115480277714198,0.99635309376669
1580417111.27304,-0.335698481727322,-0.0949721522850382,0.98268101014725
1580417111.27703,-0.347417410543985,-0.0832532234683754,0.973403524834058
1580417111.28102,-0.351323720149539,-0.0837415121690697,0.979751277943084
1580417111.28502,-0.349858854047456,-0.0954604409857325,0.987075608453498
1580417111.28901,-0.347417410543985,-0.10424963759823,0.984634164950027
1580417111.29301,-0.342046234836348,-0.113038834210727,0.978774700541695
1580417111.297,-0.33325703822385,-0.118898298619058,0.966079194323644
1580417111.30099,-0.327397573815519,-0.128664072632944,0.950453955901427
1580417111.30499,-0.31958495460441,-0.129640650034332,0.951430533302815
1580417111.30898,-0.316166933699551,-0.130128938735027,0.966079194323644
1580417111.31298,-0.320073243305105,-0.124269474326695,0.970962081330587
1580417111.31695,-0.312748912794691,-0.114991989013504,0.967544060425727
1580417111.32095,-0.301518272678722,-0.107179369802395,0.963637750820173
1580417111.32494,-0.293217364766919,-0.10083161669337,0.965102616922255
1580417111.32894,-0.283939879453728,-0.0852063782711525,0.96217288471809
1580417111.33293,-0.279056992446785,-0.0744640268558783,0.949965667200733
1580417111.33693,-0.271244373235676,-0.0734874494544897,0.939223315785458
1580417111.34092,-0.258548867017625,-0.0847180895704582,0.930434119172961
1580417111.34491,-0.260990310521096,-0.102784771496147,0.93824673838407
1580417111.34891,-0.268802929732205,-0.12133974212253,0.952407110704204
1580417111.3529,-0.284428168154422,-0.133546959639887,0.968032349126421
1580417111.35689,-0.304448004882888,-0.141359578850995,0.987075608453498
1580417111.36089,-0.314702067597468,-0.145265888456549,0.995864805065995
1580417111.36488,-0.321538109407188,-0.142824444953078,1.00270084687572
1580417111.36888,-0.317631799801633,-0.140383001449607,0.98609903105211
1580417111.37287,-0.316655222400245,-0.139894712748912,0.978286411841001
1580417111.37686,-0.31958495460441,-0.141847867551689,0.950453955901427
1580417111.38086,-0.321049820706493,-0.149660486762798,0.925062943465324
1580417111.38485,-0.325932707713436,-0.170656900892652,0.939223315785458
1580417111.38885,-0.335698481727322,-0.204348821240558,0.967055771725033
1580417111.39284,-0.362554360265507,-0.242435339894712,0.982192721446555
1580417111.39685,-0.38794537270161,-0.274662394140536,0.975356679636835
1580417111.40084,-0.397711146715496,-0.292729076066225,0.980727855344472
1580417111.40484,-0.40503547722591,-0.317631799801633,0.988540474555581
1580417111.40883,-0.409430075532159,-0.337651636530099,0.978774700541695
1580417111.41283,-0.409918364232853,-0.340581368734265,0.955825131609064
1580417111.41682,-0.404058899824522,-0.32642099641413,0.945571068894484
1580417111.42081,-0.393316548409247,-0.314213778896773,0.933363851377127
1580417111.42481,-0.385503929198139,-0.286381322957199,0.916273746852827
1580417111.4288,-0.378179598687725,-0.255619134813459,0.90748455024033
1580417111.4328,-0.366460669871062,-0.229251544975966,0.908461127641718
1580417111.43679,-0.34351110093843,-0.212161440451666,0.91773861295491
1580417111.44078,-0.323979552910659,-0.200442511635003,0.92799267566949
1580417111.44478,-0.306401159685665,-0.182375829709315,0.933363851377127
1580417111.44877,-0.289799343862059,-0.160891126878766,0.942641336690318
1580417111.45277,-0.271732661936371,-0.141847867551689,0.961684596017395
1580417111.45676,-0.251712825207905,-0.119386587319752,0.974868390936141
1580417111.46075,-0.232181277180132,-0.0983901731898982,0.989028763256275
1580417111.46475,-0.222415503166246,-0.0896009765774011,0.992446784161135
1580417111.46874,-0.219974059662775,-0.080811779964904,1.00758373388266
1580417111.47274,-0.239017318989852,-0.0778820477607383,1.0300450141146
1580417111.47671,-0.270267795834288,-0.0798352025635154,1.04420538643473
1580417111.48071,-0.295658808270391,-0.0676279850461583,1.02613870450904
1580417111.4847,-0.321538109407188,-0.0568856336308841,0.997329671168078
1580417111.4887,-0.346440833142596,-0.0583504997329669,0.969985503929198
1580417111.49269,-0.36401922636759,-0.063721675440604,0.954848554207675
1580417111.49669,-0.383062485694667,-0.0764171816586554,0.961684596017395
1580417111.50068,-0.399664301518273,-0.0856946669718468,0.950942244602121
1580417111.50467,-0.41187151903563,-0.0930189974822611,0.923598077363241
1580417111.50867,-0.407476920729382,-0.10083161669337,0.896253910124361
1580417111.51266,-0.397222858014802,-0.102296482795452,0.871839475089647
1580417111.51665,-0.385503929198139,-0.121828030823224,0.878187228198673
1580417111.52065,-0.369390402075227,-0.153078507667658,0.89039444571603
1580417111.52464,-0.359136339360647,-0.190676737621118,0.909925993743801
1580417111.52864,-0.359624628061342,-0.219974059662775,0.916762035553521
1580417111.53263,-0.35718318455787,-0.233646143282215,0.923598077363241
1580417111.53662,-0.347905699244679,-0.239505607690546,0.933363851377127
1580417111.54062,-0.344487678339819,-0.248294804303043,0.939223315785458
1580417111.54461,-0.343022812237736,-0.255130846112765,0.951430533302815
1580417111.54861,-0.356694895857176,-0.258548867017625,0.966079194323644
1580417111.5526,-0.369878690775922,-0.250736247806516,0.976333257038224
1580417111.55661,-0.37427328908217,-0.234622720683603,0.983169298847944
1580417111.5606,-0.375249866483559,-0.215091172655832,0.977798123140307
1580417111.5646,-0.37769130998703,-0.195559624628061,0.974868390936141
1580417111.56859,-0.385015640497445,-0.182864118410009,0.952895399404898
1580417111.57259,-0.38794537270161,-0.164797436484321,0.930922407873656
1580417111.57658,-0.390386816205082,-0.155519951171129,0.94166475928893
1580417111.58057,-0.385015640497445,-0.154543373769741,0.96559090562295
1580417111.58457,-0.388433661402305,-0.156008239871824,0.972915236133364
1580417111.58856,-0.389898527504387,-0.148195620660715,0.957778286411841
1580417111.59256,-0.394293125810636,-0.138429846646829,0.960708018616007
1580417111.59655,-0.401129167620356,-0.125734340428778,0.959243152513924
1580417111.60054,-0.393804837109942,-0.114991989013504,0.95191882200351
1580417111.60454,-0.375249866483559,-0.10083161669337,0.951430533302815
1580417111.60853,-0.351812008850233,-0.105226214999618,0.949477378500038
1580417111.61253,-0.330327306019685,-0.122316319523918,0.945571068894484
1580417111.61652,-0.322514686808576,-0.140871290150301,0.926039520866713
1580417111.62051,-0.320561532005799,-0.144777599755855,0.909925993743801
1580417111.62451,-0.321538109407188,-0.140383001449607,0.916762035553521
1580417111.6285,-0.322514686808576,-0.136476691844052,0.925062943465324
1580417111.6325,-0.324467841611353,-0.132570382238498,0.919691767757687
1580417111.63647,-0.334233615625239,-0.126710917830167,0.91773861295491
1580417111.64047,-0.341557946135653,-0.126222629129472,0.928969253070878
1580417111.64446,-0.351323720149539,-0.12133974212253,0.942641336690318
1580417111.64846,-0.360112916762036,-0.126710917830167,0.951430533302815
1580417111.65245,-0.364995803768979,-0.127687495231555,0.959731441214618
1580417111.65644,-0.379644464789807,-0.130617227435721,0.977798123140307
1580417111.66044,-0.388433661402305,-0.128664072632944,1.00514229037919
1580417111.66443,-0.39136339360647,-0.125734340428778,1.01149004348821
1580417111.66843,-0.396734569314107,-0.128175783932249,1.01783779659724
1580417111.67242,-0.400152590218967,-0.144289311055161,1.01686121919585
1580417111.67641,-0.399664301518273,-0.166750591287098,1.01002517738613
1580417111.68041,-0.396246280613413,-0.191165026321812,1.00514229037919
1580417111.6844,-0.399176012817579,-0.207278553444723,0.990981918059052
1580417111.6884,-0.387457084000916,-0.218997482261386,0.978774700541695
1580417111.69239,-0.369878690775922,-0.235599298084992,0.967544060425727
1580417111.69638,-0.348882276646068,-0.252201113908599,0.948012512397955
1580417111.70038,-0.337163347829405,-0.279545281147479,0.923109788662547
1580417111.70437,-0.325444419012742,-0.305912870984971,0.908461127641718
1580417111.70837,-0.318608377203022,-0.32642099641413,0.915297169451438
1580417111.71236,-0.316166933699551,-0.34009308003357,0.92457465476463
1580417111.71637,-0.321049820706493,-0.339116502632182,0.919691767757687
1580417111.72036,-0.337163347829405,-0.320073243305105,0.91432059205005
1580417111.72436,-0.349370565346762,-0.289311055161365,0.911879148546578
1580417111.72835,-0.354741741054399,-0.235111009384298,0.933852140077821
1580417111.73234,-0.368413824673839,-0.180910963607232,0.957289997711147
1580417111.73634,-0.373785000381476,-0.131105516136415,0.969985503929198
1580417111.74033,-0.377203021286336,-0.0788586251621268,0.968032349126421
1580417111.74433,-0.384039063096056,-0.0305180437933927,0.959731441214618
1580417111.74832,-0.390386816205082,0.00903334096284425,0.956313420309758
1580417111.75232,-0.392828259708553,0.041260395208667,0.951430533302815
1580417111.75631,-0.393804837109942,0.060303654535744,0.955825131609064
1580417111.7603,-0.391851682307164,0.0661631189440754,0.951430533302815
1580417111.7643,-0.38452735179675,0.0563973449301898,0.949965667200733
1580417111.76829,-0.387457084000916,0.0266117341878385,0.928969253070878
1580417111.77228,-0.380621042191196,-0.0109864957656214,0.909925993743801
1580417111.77628,-0.380621042191196,-0.0437018387121384,0.910414282444496
1580417111.78027,-0.375249866483559,-0.0842298008697639,0.946547646295873
1580417111.78427,-0.368413824673839,-0.132082093537804,0.938735027084764
1580417111.78826,-0.361089494163425,-0.176516365300984,0.921644922560464
1580417111.79225,-0.355230029755093,-0.206790264744029,0.91432059205005
1580417111.79626,-0.348393987945373,-0.229739833676661,0.918715190356298
1580417111.80026,-0.341069657434959,-0.244388494697489,0.929457541771573
1580417111.80425,-0.331792172121768,-0.255619134813459,0.946059357595178
1580417111.80825,-0.323491264209965,-0.258548867017625,0.963637750820173
1580417111.81224,-0.318608377203022,-0.260013733119708,0.969497215228504
1580417111.81623,-0.318608377203022,-0.247318226901655,0.961684596017395
1580417111.82023,-0.331792172121768,-0.23315785458152,0.942641336690318
1580417111.82422,-0.345464255741208,-0.226321812771801,0.956801709010453
1580417111.82822,-0.360112916762036,-0.230716411078049,0.976821545738918
1580417111.83221,-0.373785000381476,-0.229251544975966,0.987075608453498
1580417111.8362,-0.39136339360647,-0.222903791866941,0.969985503929198
1580417111.8402,-0.400152590218967,-0.207278553444723,0.965102616922255
1580417111.84419,-0.409430075532159,-0.198977645532921,0.96900892652781
1580417111.84819,-0.410894941634242,-0.191165026321812,0.975356679636835
1580417111.85218,-0.412359807736324,-0.192629892423895,0.960219729915313
1580417111.85617,-0.410894941634242,-0.191653315022506,0.945571068894484
1580417111.86017,-0.405523765926604,-0.194094758525978,0.95191882200351
1580417111.86416,-0.396246280613413,-0.186770428015564,0.950942244602121
1580417111.86816,-0.38794537270161,-0.177492942702372,0.94166475928893
1580417111.87215,-0.383550774395362,-0.170168612191958,0.936781872281987
1580417111.87613,-0.367925535973145,-0.156496528572518,0.930434119172961
1580417111.88012,-0.357671473258565,-0.150148775463492,0.942641336690318
1580417111.88412,-0.345952544441902,-0.143801022354467,0.937758449683376
1580417111.88811,-0.343022812237736,-0.136964980544747,0.922133211261158
1580417111.8921,-0.34009308003357,-0.133058670939192,0.917250324254216
1580417111.8961,-0.337163347829405,-0.136964980544747,0.936781872281987
1580417111.90009,-0.34009308003357,-0.141847867551689,0.93824673838407
1580417111.90409,-0.337651636530099,-0.143801022354467,0.943617914091707
1580417111.90808,-0.334233615625239,-0.147707331960021,0.955825131609064
1580417111.91208,-0.327397573815519,-0.149172198062104,0.976821545738918
1580417111.91607,-0.32983901731899,-0.149660486762798,0.964126039520867
1580417111.92006,-0.335210193026628,-0.137941557946135,0.94508278019379
1580417111.92406,-0.347905699244679,-0.133058670939192,0.936781872281987
1580417111.92805,-0.362066071564813,-0.132082093537804,0.946059357595178
1580417111.93204,-0.378179598687725,-0.130617227435721,0.957289997711147
1580417111.93604,-0.392339971007859,-0.130617227435721,0.96217288471809
1580417111.94003,-0.406500343327993,-0.129640650034332,0.956801709010453
1580417111.94403,-0.414312962539102,-0.122804608224612,0.950453955901427
1580417111.94802,-0.421149004348822,-0.119874876020447,0.927016098268101
1580417111.95201,-0.417242694743267,-0.126222629129472,0.918715190356298
1580417111.95602,-0.407965209430076,-0.138918135347524,0.898695353627833
1580417111.96002,-0.39478141451133,-0.148683909361409,0.88355840390631
1580417111.96401,-0.386968795300222,-0.165774013885709,0.869398031586176
1580417111.96801,-0.370366979476616,-0.189700160219729,0.88014038300145
1580417111.972,-0.351323720149539,-0.220950637064163,0.901625085831999
1580417111.97599,-0.338628213931488,-0.253177691309988,0.912367437247273
1580417111.97999,-0.334233615625239,-0.278080415045396,0.909925993743801
1580417111.98398,-0.335210193026628,-0.289799343862059,0.90748455024033
1580417111.98798,-0.343022812237736,-0.294682230869002,0.926527809567407
1580417111.99197,-0.354741741054399,-0.294193942168308,0.966567483024338
1580417111.99596,-0.361577782864119,-0.280521858548868,0.983657587548638
1580417111.99996,-0.366460669871062,-0.257572289616236,0.980727855344472
1580417112.00395,-0.366948958571756,-0.224368657969023,0.964126039520867
1580417112.00795,-0.363042648966202,-0.196536202029449,0.95191882200351
1580417112.01194,-0.355718318455787,-0.179934386205844,0.961196307316701
1580417112.01593,-0.349858854047456,-0.179934386205844,0.969985503929198
1580417112.01993,-0.359136339360647,-0.188235294117646,0.969497215228504
1580417112.02392,-0.375249866483559,-0.187747005416952,0.952895399404898
1580417112.02792,-0.39136339360647,-0.177492942702372,0.947524223697261
1580417112.03191,-0.406988632028687,-0.157473105973907,0.942153047989624
1580417112.03589,-0.412848096437019,-0.138918135347524,0.931898985275044
1580417112.03988,-0.417242694743267,-0.122316319523918,0.91090257114519
1580417112.04388,-0.414801251239796,-0.108155947203784,0.885999847409781
1580417112.04787,-0.404547188525216,-0.10083161669337,0.891371023117419
1580417112.05186,-0.39478141451133,-0.113527122911421,0.891859311818113
1580417112.05586,-0.375249866483559,-0.12475776302739,0.895765621423667
1580417112.05985,-0.361089494163425,-0.134035248340581,0.905531395437553
1580417112.06385,-0.349858854047456,-0.141359578850995,0.909925993743801
1580417112.06784,-0.343022812237736,-0.150148775463492,0.928969253070878
1580417112.07183,-0.337163347829405,-0.161867704280155,0.96217288471809
1580417112.07583,-0.336186770428016,-0.181399252307926,0.973891813534753
1580417112.07982,-0.343022812237736,-0.187747005416952,0.974868390936141
1580417112.08382,-0.357671473258565,-0.190188448920424,0.954360265506981
1580417112.08781,-0.370366979476616,-0.176028076600289,0.956801709010453
1580417112.0918,-0.376714732585642,-0.168703746089875,0.956801709010453
1580417112.0958,-0.375738155184253,-0.162355992980849,0.959243152513924
1580417112.09979,-0.36743724727245,-0.154543373769741,0.954360265506981
1580417112.10379,-0.356694895857176,-0.151613641565575,0.945571068894484
1580417112.10778,-0.348393987945373,-0.144777599755855,0.923109788662547
1580417112.11177,-0.34692912184329,-0.134035248340581,0.916273746852827
1580417112.11578,-0.348393987945373,-0.127199206530861,0.933363851377127
1580417112.11978,-0.347417410543985,-0.119386587319752,0.93824673838407
1580417112.12377,-0.358159761959259,-0.10424963759823,0.918715190356298
1580417112.12776,-0.369878690775922,-0.0856946669718468,0.907972838941024
1580417112.13176,-0.381597619592585,-0.0725108720531011,0.930434119172961
1580417112.13575,-0.385503929198139,-0.0817883573662925,0.94850080109865
1580417112.13975,-0.393804837109942,-0.0959487296864268,0.950942244602121
1580417112.14374,-0.402594033722439,-0.10766765850309,0.959243152513924
1580417112.14773,-0.40845349813077,-0.119386587319752,0.960708018616007
1580417112.15173,-0.417242694743267,-0.129152361333638,0.964614328221561
1580417112.15572,-0.416754406042573,-0.146242465857938,0.981216144045167
1580417112.15972,-0.417242694743267,-0.161867704280155,0.993911650263218
1580417112.16371,-0.413824673838407,-0.182864118410009,0.989028763256275
1580417112.1677,-0.407965209430076,-0.200930800335698,0.96900892652781
1580417112.1717,-0.40845349813077,-0.216556038757915,0.94850080109865
1580417112.17569,-0.403082322423133,-0.225345235370412,0.935805294880598
1580417112.17969,-0.396734569314107,-0.226321812771801,0.930434119172961
1580417112.18368,-0.38794537270161,-0.214114595254443,0.918715190356298
1580417112.18767,-0.378667887388419,-0.194094758525978,0.906996261539636
1580417112.19167,-0.366948958571756,-0.179446097505149,0.904554818036164
1580417112.19565,-0.358159761959259,-0.171633478294041,0.908949416342413
1580417112.19964,-0.356206607156482,-0.167238879987792,0.903578240634776
1580417112.20364,-0.358648050659953,-0.166750591287098,0.916762035553521
1580417112.20763,-0.358159761959259,-0.169680323491264,0.921644922560464
1580417112.21162,-0.356694895857176,-0.179934386205844,0.946547646295873
1580417112.21562,-0.365484092469673,-0.202883955138475,0.971450370031281
1580417112.21961,-0.369878690775922,-0.226810101472495,0.983169298847944
1580417112.22361,-0.372320134279393,-0.239017318989852,1.00123598077363
1580417112.2276,-0.384039063096056,-0.23315785458152,0.998794537270161
1580417112.23159,-0.390875104905776,-0.217532616159303,0.977798123140307
1580417112.23559,-0.406988632028687,-0.191653315022506,0.949965667200733
1580417112.23958,-0.415777828641184,-0.156496528572518,0.933852140077821
1580417112.24358,-0.429449912260624,-0.127687495231555,0.954360265506981
1580417112.24757,-0.437262531471733,-0.108155947203784,0.96559090562295
1580417112.25156,-0.44605172808423,-0.0969253070878153,0.94850080109865
1580417112.25556,-0.443121995880064,-0.0900892652780954,0.913832303349356
1580417112.25955,-0.438727397573816,-0.0817883573662925,0.876234073395896
1580417112.26355,-0.423590447852293,-0.0700694285496297,0.845471885252156
1580417112.26754,-0.404058899824522,-0.0612802319371326,0.843030441748684
1580417112.27153,-0.385503929198139,-0.0690928511482412,0.870862897688259
1580417112.27554,-0.368413824673839,-0.0954604409857325,0.899183642328527
1580417112.27954,-0.365972381170367,-0.128664072632944,0.895277332722973
1580417112.28353,-0.368902113374533,-0.170168612191958,0.882093537804227
1580417112.28752,-0.365972381170367,-0.208743419546806,0.886488136110476
1580417112.29152,-0.361089494163425,-0.233646143282215,0.916762035553521
1580417112.29551,-0.354741741054399,-0.264896620126651,0.944106202792401
1580417112.29951,-0.362554360265507,-0.288822766460671,0.967544060425727
1580417112.3035,-0.376714732585642,-0.299076829175251,0.98268101014725
1580417112.30749,-0.390386816205082,-0.284916456855116,0.99293507286183
1580417112.31149,-0.399664301518273,-0.250247959105822,1.00318913557641
1580417112.31548,-0.410894941634242,-0.193606469825284,1.01344319829099
1580417112.31948,-0.413336385137713,-0.130617227435721,0.990493629358358
1580417112.32347,-0.421637293049516,-0.0632333867399097,0.95191882200351
1580417112.32746,-0.426031891355764,-0.0144045166704814,0.913344014648661
1580417112.33146,-0.420660715648127,0.0134279392690928,0.909925993743801
1580417112.33545,-0.410894941634242,0.0153810940718699,0.926527809567407
1580417112.33945,-0.404547188525216,-0.00708018616006711,0.927504386968796
1580417112.34344,-0.399664301518273,-0.0319829098954756,0.917250324254216
1580417112.34743,-0.404547188525216,-0.0607919432364383,0.900160219729916
1580417112.35143,-0.403082322423133,-0.10424963759823,0.90406652933547
1580417112.35541,-0.393316548409247,-0.151125352864881,0.916762035553521
1580417112.3594,-0.392339971007859,-0.202395666437781,0.932387273975738
1580417112.36339,-0.39478141451133,-0.249759670405126,0.956313420309758
1580417112.36739,-0.397222858014802,-0.267826352330816,0.971938658731975
1580417112.37138,-0.397711146715496,-0.262455176623179,0.983657587548638
1580417112.37538,-0.395269703212024,-0.249271381704432,0.987075608453498
1580417112.37937,-0.395269703212024,-0.233646143282215,0.967544060425727
1580417112.38336,-0.397711146715496,-0.214602883955138,0.946547646295873
1580417112.38736,-0.400152590218967,-0.210696574349583,0.94850080109865
1580417112.39135,-0.406500343327993,-0.218509193560692,0.929945830472267
1580417112.39535,-0.414801251239796,-0.221438925764858,0.934340428778516
1580417112.39934,-0.425055313954376,-0.219974059662775,0.946547646295873
1580417112.40333,-0.441657129777981,-0.229739833676661,0.964126039520867
1580417112.40733,-0.447028305485619,-0.244388494697489,0.97584496833753
1580417112.41132,-0.454352635996033,-0.240482185091935,0.959243152513924
1580417112.41532,-0.457282368200199,-0.202395666437781,0.947524223697261
1580417112.41931,-0.454840924696727,-0.156496528572518,0.943617914091707
1580417112.42331,-0.448493171587701,-0.105226214999618,0.94508278019379
1580417112.4273,-0.426031891355764,-0.0681162737468526,0.948012512397955
1580417112.43129,-0.412359807736324,-0.0437018387121384,0.937758449683376
1580417112.4353,-0.404547188525216,-0.0256351567864499,0.931898985275044
1580417112.4393,-0.39819943541619,-0.0173342488746471,0.922133211261158
1580417112.44329,-0.38794537270161,-0.0202639810788128,0.900160219729916
1580417112.44728,-0.379156176089113,-0.0393072404058898,0.892347600518807
1580417112.45128,-0.37427328908217,-0.0788586251621268,0.881605249103533
1580417112.45527,-0.364507515068285,-0.117433432516975,0.88014038300145
1580417112.45927,-0.360112916762036,-0.146242465857938,0.890882734416724
1580417112.46326,-0.358648050659953,-0.174563210498206,0.899183642328527
1580417112.46725,-0.359136339360647,-0.198489356832226,0.920668345159076
1580417112.47125,-0.358648050659953,-0.212649729152361,0.954360265506981
1580417112.47524,-0.358648050659953,-0.216067750057221,0.962661173418784
1580417112.47924,-0.364995803768979,-0.225833524071106,0.94850080109865
1580417112.48323,-0.37085526817731,-0.222903791866941,0.928969253070878
1580417112.48722,-0.37085526817731,-0.208743419546806,0.902601663233387
1580417112.49122,-0.36401922636759,-0.198977645532921,0.913832303349356
1580417112.49521,-0.36401922636759,-0.198977645532921,0.929945830472267
1580417112.49921,-0.364995803768979,-0.214114595254443,0.92799267566949
1580417112.5032,-0.37769130998703,-0.213626306553749,0.901136797131304
1580417112.50719,-0.398687724116884,-0.195071335927366,0.903089951934081
1580417112.51119,-0.413824673838407,-0.173586633096818,0.928969253070878
1580417112.51517,-0.427008468757153,-0.155031662470435,0.942641336690318
1580417112.51916,-0.441657129777981,-0.135011825741969,0.933852140077821
1580417112.52315,-0.450934615091173,-0.110597390707255,0.926527809567407
1580417112.52715,-0.469001297016861,-0.0764171816586554,0.912367437247273
1580417112.53114,-0.480720225833524,-0.0422369726100555,0.915785458152133
1580417112.53514,-0.477790493629358,-0.0305180437933927,0.925062943465324
1580417112.53913,-0.461676966506447,-0.0363775082017241,0.924086366063936
1580417112.54312,-0.440680552376593,-0.0661631189440754,0.911879148546578
1580417112.54712,-0.423590447852293,-0.0949721522850382,0.899183642328527
1580417112.55111,-0.409918364232853,-0.12475776302739,0.903578240634776
1580417112.55511,-0.396246280613413,-0.173098344396124,0.929457541771573
1580417112.5591,-0.388921950102999,-0.228763256275272,0.940688181887541
1580417112.56309,-0.387457084000916,-0.276127260242619,0.944594491493095
1580417112.56709,-0.393804837109942,-0.309819180590525,0.951430533302815
1580417112.57108,-0.406500343327993,-0.31958495460441,0.950942244602121
1580417112.57508,-0.419684138246739,-0.315190356298162,0.957289997711147
1580417112.57907,-0.432867933165484,-0.293705653467613,0.960708018616007
1580417112.58307,-0.43579766536965,-0.265873197528039,0.959243152513924
1580417112.58706,-0.435309376668956,-0.242923628595406,0.957289997711147
1580417112.59105,-0.433844510566873,-0.219485770962081,0.952895399404898
1580417112.59506,-0.429938200961319,-0.199465934233615,0.944594491493095
1580417112.59906,-0.429449912260624,-0.181887541008621,0.942153047989624
1580417112.60305,-0.430914778362707,-0.163332570382238,0.940199893186847
1580417112.60704,-0.429938200961319,-0.148195620660715,0.926527809567407
1580417112.61104,-0.427985046158541,-0.135011825741969,0.894789044022279
1580417112.61503,-0.427496757457847,-0.11792172121767,0.880628671702144
1580417112.61903,-0.423102159151599,-0.108644235904478,0.904554818036164
1580417112.62302,-0.412359807736324,-0.109132524605172,0.916762035553521
1580417112.62701,-0.390386816205082,-0.124269474326695,0.91090257114519
1580417112.63101,-0.380132753490502,-0.144289311055161,0.910414282444496
1580417112.635,-0.376226443884947,-0.160402838178072,0.90748455024033
1580417112.639,-0.37427328908217,-0.168703746089875,0.920180056458381
1580417112.64299,-0.366948958571756,-0.183352407110704,0.94166475928893
1580417112.64698,-0.365484092469673,-0.192629892423895,0.956313420309758
1580417112.65098,-0.364995803768979,-0.199954222934309,0.956313420309758
1580417112.65497,-0.376714732585642,-0.198489356832226,0.953871976806287
1580417112.65897,-0.39478141451133,-0.194094758525978,0.942153047989624
1580417112.66296,-0.40845349813077,-0.180422674906538,0.947035934996567
1580417112.66695,-0.41528953994049,-0.163332570382238,0.949965667200733
1580417112.67095,-0.416266117341879,-0.144289311055161,0.937270160982681
1580417112.67493,-0.414312962539102,-0.122804608224612,0.920668345159076
1580417112.67892,-0.406988632028687,-0.101808194094758,0.905531395437553
1580417112.68291,-0.401129167620356,-0.0891126878767068,0.912855725947967
1580417112.68691,-0.38452735179675,-0.0852063782711525,0.906019684138247
1580417112.6909,-0.37427328908217,-0.0837415121690697,0.896742198825056
1580417112.6949,-0.36401922636759,-0.0910658426794839,0.898207064927139
1580417112.69889,-0.355718318455787,-0.112550545510032,0.909437705043107
1580417112.70288,-0.35376516365301,-0.144289311055161,0.932875562676433
1580417112.70688,-0.349858854047456,-0.197512779430838,0.946547646295873
1580417112.71087,-0.355718318455787,-0.251224536507211,0.949477378500038
1580417112.71487,-0.365484092469673,-0.283939879453728,0.964614328221561
1580417112.71886,-0.379644464789807,-0.295658808270391,0.969497215228504
1580417112.72285,-0.385992217898833,-0.280521858548868,0.973403524834058
1580417112.72685,-0.389410238803693,-0.257084000915542,0.964614328221561
1580417112.73084,-0.388921950102999,-0.231692988479438,0.940688181887541
1580417112.73484,-0.392339971007859,-0.201907377737086,0.91773861295491
1580417112.73883,-0.39819943541619,-0.171145189593346,0.885511558709087
1580417112.74282,-0.407965209430076,-0.140871290150301,0.878187228198673
1580417112.74682,-0.413336385137713,-0.113527122911421,0.894789044022279
1580417112.75081,-0.427985046158541,-0.0881361104753182,0.896742198825056
1580417112.75482,-0.438727397573816,-0.0656748302433812,0.901136797131304
1580417112.75881,-0.450934615091173,-0.0339360646982527,0.913344014648661
1580417112.76281,-0.445075150682841,-0.0124513618677042,0.918715190356298
1580417112.7668,-0.436774242771039,0.00122072175173571,0.919691767757687
1580417112.7708,-0.423102159151599,-0.00659189745937283,0.907972838941024
1580417112.77479,-0.409918364232853,-0.0329594872968642,0.912855725947967
1580417112.77878,-0.405523765926604,-0.0690928511482412,0.91773861295491
1580417112.78278,-0.402105745021744,-0.112550545510032,0.925062943465324
1580417112.78677,-0.401129167620356,-0.156008239871824,0.939711604486153
1580417112.79077,-0.400152590218967,-0.212161440451666,0.957778286411841
1580417112.79476,-0.393804837109942,-0.260013733119708,0.970473792629893
1580417112.79875,-0.378667887388419,-0.295170519569696,0.974380102235447
1580417112.80275,-0.375249866483559,-0.320561532005799,0.990493629358358
1580417112.80674,-0.375738155184253,-0.334233615625239,0.984145876249332
1580417112.81074,-0.383550774395362,-0.325444419012742,0.978774700541695
1580417112.81473,-0.389898527504387,-0.297611963073168,0.959243152513924
1580417112.81872,-0.392828259708553,-0.257084000915542,0.943617914091707
1580417112.82272,-0.385015640497445,-0.223392080567635,0.940688181887541
1580417112.82671,-0.379156176089113,-0.201419089036392,0.936293583581293
1580417112.83071,-0.377203021286336,-0.195071335927366,0.913344014648661
1580417112.83469,-0.382574196993973,-0.194583047226672,0.908461127641718
1580417112.83868,-0.39136339360647,-0.177981231403066,0.904554818036164
1580417112.84267,-0.402594033722439,-0.148683909361409,0.889417868314641
1580417112.84667,-0.406500343327993,-0.105714503700312,0.892835889219501
1580417112.85066,-0.405523765926604,-0.0661631189440754,0.894789044022279
1580417112.85466,-0.403082322423133,-0.0427252613107498,0.898207064927139
1580417112.85865,-0.393804837109942,-0.0354009308003356,0.909437705043107
1580417112.86264,-0.38794537270161,-0.0490730144197755,0.919691767757687
1580417112.86664,-0.37769130998703,-0.0720225833524069,0.918226901655604
1580417112.87063,-0.372320134279393,-0.0930189974822611,0.92799267566949
1580417112.87463,-0.368413824673839,-0.118898298619058,0.956313420309758
1580417112.87862,-0.366948958571756,-0.154055085069047,0.973891813534753
1580417112.88261,-0.374761577782865,-0.188235294117646,0.962661173418784
1580417112.88661,-0.381597619592585,-0.213138017853055,0.946547646295873
1580417112.8906,-0.379644464789807,-0.221438925764858,0.946547646295873
1580417112.8946,-0.373296711680782,-0.241947051194018,0.956313420309758
1580417112.89859,-0.373785000381476,-0.260502021820402,0.95875486381323
1580417112.90258,-0.38794537270161,-0.259525444419014,0.942641336690318
1580417112.90658,-0.409918364232853,-0.231204699778743,0.939223315785458
1580417112.91057,-0.427985046158541,-0.190676737621118,0.928480964370184
1580417112.91458,-0.43579766536965,-0.162355992980849,0.913832303349356
1580417112.91857,-0.448493171587701,-0.140871290150301,0.898695353627833
1580417112.92257,-0.454840924696727,-0.11450370031281,0.889906157015336
1580417112.92656,-0.451911192492561,-0.0822766460669868,0.891859311818113
1580417112.93056,-0.441657129777981,-0.0759288929579611,1.02662699320974
1580417112.93455,-0.430914778362707,-0.0373540856031127,0.814709697108416
1580417112.93854,-0.440680552376593,0.00122072175173571,0.88014038300145
1580417112.94254,-0.402594033722439,-0.0183108262760356,0.907972838941024
1580417112.94653,-0.38452735179675,-0.0544441901274126,0.889417868314641
1580417112.95053,-0.374761577782865,-0.0832532234683754,0.936781872281987
1580417112.95452,-0.370366979476616,-0.125734340428778,0.949965667200733
1580417112.95851,-0.372808422980087,-0.172610055695429,0.974380102235447
1580417112.96251,-0.385992217898833,-0.196536202029449,0.977798123140307
1580417112.9665,-0.396246280613413,-0.185305561913481,0.961196307316701
1580417112.9705,-0.401129167620356,-0.177492942702372,0.944594491493095
1580417112.97449,-0.404058899824522,-0.173586633096818,0.945571068894484
1580417112.97848,-0.410406652933547,-0.170656900892652,0.937270160982681
1580417112.98248,-0.429938200961319,-0.160891126878766,0.915297169451438
1580417112.98647,-0.449958037689784,-0.152101930266269,0.915297169451438
1580417112.99047,-0.467536430914778,-0.153566796368352,0.935805294880598
1580417112.99444,-0.473884184023804,-0.155519951171129,0.939711604486153
1580417112.99844,-0.483161669336996,-0.154543373769741,0.93141069657435
1580417113.00243,-0.486091401541161,-0.138918135347524,0.92457465476463
1580417113.00643,-0.48706797894255,-0.12133974212253,0.92457465476463
1580417113.01042,-0.475837338826581,-0.111573968108644,0.929457541771573
1580417113.01442,-0.465094987411307,-0.109620813305867,0.932387273975738
1580417113.01841,-0.45630579079881,-0.110597390707255,0.920668345159076
1580417113.0224,-0.447028305485619,-0.109132524605172,0.910414282444496
1580417113.0264,-0.43921568627451,-0.105714503700312,0.917250324254216
1580417113.03039,-0.429938200961319,-0.115968566414892,0.909437705043107
1580417113.03438,-0.416266117341879,-0.128664072632944,0.913832303349356
1580417113.03838,-0.412848096437019,-0.150637064164187,0.937270160982681
1580417113.04237,-0.406012054627299,-0.171145189593346,0.946059357595178
1580417113.04637,-0.391851682307164,-0.182864118410009,0.954848554207675
1580417113.05036,-0.377203021286336,-0.192629892423895,0.95191882200351
1580417113.05435,-0.37427328908217,-0.199465934233615,0.939711604486153
1580417113.05835,-0.383062485694667,-0.204348821240558,0.94166475928893
1580417113.06234,-0.395757991912719,-0.219485770962081,0.956313420309758
1580417113.06634,-0.40845349813077,-0.232181277180132,0.956801709010453
1580417113.07033,-0.423590447852293,-0.237552452887769,0.940199893186847
1580417113.07434,-0.442145418478676,-0.237552452887769,0.932387273975738
1580417113.07833,-0.452399481193256,-0.225345235370412,0.918226901655604
1580417113.08233,-0.455329213397421,-0.200442511635003,0.909437705043107
1580417113.08632,-0.453864347295339,-0.173586633096818,0.89723048752575
1580417113.09032,-0.448004882887007,-0.152590218966964,0.895765621423667
1580417113.09431,-0.438239108873121,-0.135988403143358,0.905531395437553
1580417113.0983,-0.429449912260624,-0.120363164721141,0.910414282444496
1580417113.1023,-0.410894941634242,-0.112550545510032,0.910414282444496
1580417113.10629,-0.386968795300222,-0.107179369802395,0.915297169451438
1580417113.11029,-0.36401922636759,-0.118898298619058,0.915785458152133
1580417113.11428,-0.342534523537042,-0.134523537041275,0.917250324254216
1580417113.11827,-0.338139925230793,-0.156496528572518,0.937758449683376
1580417113.12227,-0.346440833142596,-0.180422674906538,0.964126039520867
1580417113.12626,-0.358159761959259,-0.201419089036392,0.96900892652781
1580417113.13026,-0.371343556878005,-0.204348821240558,0.964126039520867
1580417113.13425,-0.378179598687725,-0.205325398641946,0.94166475928893
1580417113.13824,-0.388433661402305,-0.194094758525978,0.917250324254216
1580417113.14224,-0.39819943541619,-0.185305561913481,0.912367437247273
1580417113.14623,-0.404058899824522,-0.184328984512092,0.913832303349356
1580417113.15023,-0.402594033722439,-0.187747005416952,0.909925993743801
1580417113.1542,-0.397711146715496,-0.193606469825284,0.90748455024033
1580417113.1582,-0.393316548409247,-0.200930800335698,0.903578240634776
1580417113.16219,-0.395757991912719,-0.212161440451666,0.906996261539636
1580417113.16619,-0.405523765926604,-0.228274967574578,0.909925993743801
1580417113.17018,-0.417242694743267,-0.225345235370412,0.894789044022279
1580417113.17418,-0.419195849546044,-0.200930800335698,0.902601663233387
1580417113.17817,-0.418219272144656,-0.167727168688486,0.90748455024033
1580417113.18216,-0.413824673838407,-0.143312733653772,0.92799267566949
1580417113.18616,-0.406012054627299,-0.134523537041275,0.953871976806287
1580417113.19015,-0.403570611123827,-0.132082093537804,0.94508278019379
1580417113.19414,-0.401129167620356,-0.0988784618905925,0.926527809567407
1580417113.19814,-0.390875104905776,-0.044678416113527,0.919691767757687
1580417113.20213,-0.390875104905776,-0.000244144350347142,0.908461127641718
1580417113.20613,-0.389898527504387,0.0295414663920042,0.90748455024033
1580417113.21012,-0.395757991912719,0.0427252613107498,0.928480964370184
1580417113.21411,-0.400640878919662,0.0295414663920042,0.920668345159076
1580417113.21811,-0.410406652933547,-0.00952162966353853,0.915785458152133
1580417113.2221,-0.421149004348822,-0.0661631189440754,0.919691767757687
1580417113.2261,-0.434821087968261,-0.117433432516975,0.920668345159076
1580417113.23009,-0.440192263675899,-0.152590218966964,0.930922407873656
1580417113.2341,-0.433844510566873,-0.174563210498206,0.946547646295873
1580417113.23809,-0.426520180056459,-0.200930800335698,0.961684596017395
1580417113.24209,-0.427008468757153,-0.210208285648889,0.965102616922255
1580417113.24608,-0.444098573281453,-0.217044327458609,0.976333257038224
1580417113.25008,-0.460212100404364,-0.222903791866941,0.984634164950027
1580417113.25407,-0.471442740520333,-0.223880369268329,0.973403524834058
1580417113.25806,-0.47339589532311,-0.221438925764858,0.949965667200733
1580417113.26206,-0.466071564812696,-0.219974059662775,0.93482871747921
1580417113.26605,-0.460700389105059,-0.215579461356526,0.928480964370184
1580417113.27005,-0.456794079499504,-0.211673151750972,0.92799267566949
1580417113.27404,-0.456794079499504,-0.212161440451666,0.927016098268101
1580417113.27803,-0.462165255207141,-0.208743419546806,0.922133211261158
1580417113.28203,-0.45972381170367,-0.179446097505149,0.928969253070878
1580417113.28602,-0.44946974898909,-0.138918135347524,0.93141069657435
1580417113.29002,-0.431403067063401,-0.10424963759823,0.92799267566949
1580417113.29401,-0.409430075532159,-0.0842298008697639,0.929457541771573
1580417113.298,-0.398687724116884,-0.0788586251621268,0.939223315785458
1580417113.302,-0.392828259708553,-0.0905775539787896,0.953383688105593
1580417113.30599,-0.394293125810636,-0.10424963759823,0.954360265506981
1580417113.30999,-0.389898527504387,-0.117433432516975,0.939711604486153
1580417113.31396,-0.392828259708553,-0.123781185626001,0.928480964370184
1580417113.31796,-0.385503929198139,-0.135011825741969,0.929457541771573
1580417113.32195,-0.379156176089113,-0.153078507667658,0.935317006179904
1580417113.32595,-0.369390402075227,-0.183352407110704,0.923598077363241
1580417113.32994,-0.36743724727245,-0.203372243839169,0.905531395437553
1580417113.33393,-0.36401922636759,-0.194094758525978,0.896253910124361
1580417113.33793,-0.35376516365301,-0.177004654001678,0.909437705043107
1580417113.34192,-0.344487678339819,-0.167238879987792,0.91090257114519
1580417113.34592,-0.337163347829405,-0.155519951171129,0.910414282444496
1580417113.34991,-0.343999389639125,-0.147219043259327,0.915297169451438
1580417113.3539,-0.359136339360647,-0.135011825741969,0.920668345159076
1580417113.3579,-0.374761577782865,-0.120363164721141,0.928969253070878
1580417113.36189,-0.382085908293279,-0.110597390707255,0.937270160982681
1580417113.36589,-0.390386816205082,-0.0983901731898982,0.939223315785458
1580417113.36988,-0.391851682307164,-0.0881361104753182,0.929457541771573
1580417113.37387,-0.398687724116884,-0.0769054703593497,0.905531395437553
1580417113.37787,-0.400640878919662,-0.0769054703593497,0.91432059205005
1580417113.38186,-0.396734569314107,-0.0974135957885096,0.929945830472267
1580417113.38586,-0.398687724116884,-0.131593804837109,0.940199893186847
1580417113.38985,-0.41187151903563,-0.157473105973907,0.949477378500038
1580417113.39386,-0.42896162355993,-0.172610055695429,0.964614328221561
1580417113.39785,-0.442145418478676,-0.164797436484321,0.962661173418784
1580417113.40185,-0.439703974975204,-0.139406424048218,0.946547646295873
1580417113.40584,-0.431403067063401,-0.115480277714198,0.936781872281987
1580417113.40983,-0.41870756084535,-0.0979018844892039,0.921644922560464
1580417113.41383,-0.408941786831464,-0.0861829556725411,0.90064850843061
1580417113.41782,-0.41187151903563,-0.0871595330739297,0.899183642328527
1580417113.42182,-0.419195849546044,-0.110597390707255,0.891371023117419
1580417113.42581,-0.427496757457847,-0.144777599755855,0.884046692607004
1580417113.42981,-0.429938200961319,-0.188235294117646,0.892835889219501
1580417113.4338,-0.429938200961319,-0.226810101472495,0.905043106736859
1580417113.43779,-0.425055313954376,-0.261478599221791,0.92799267566949
1580417113.44179,-0.42212558175021,-0.289311055161365,0.945571068894484
1580417113.44578,-0.427496757457847,-0.308354314488442,0.953871976806287
1580417113.44977,-0.433844510566873,-0.301029983978028,0.959243152513924
1580417113.45377,-0.450446326390479,-0.284916456855116,0.978286411841001
1580417113.45776,-0.46314183260853,-0.258548867017625,0.963637750820173
1580417113.46176,-0.476325627527276,-0.230228122377355,0.954360265506981
1580417113.46575,-0.486579690241856,-0.207766842145418,0.947524223697261
1580417113.46974,-0.488532845044633,-0.180422674906538,0.932875562676433
1580417113.47372,-0.482673380636301,-0.156008239871824,0.924086366063936
1580417113.47772,-0.466071564812696,-0.134035248340581,0.899671931029221
1580417113.48171,-0.44946974898909,-0.128664072632944,0.885511558709087
1580417113.48571,-0.435309376668956,-0.135011825741969,0.884046692607004
1580417113.4897,-0.426520180056459,-0.135011825741969,0.885023270008393
1580417113.49369,-0.407476920729382,-0.138918135347524,0.90064850843061
1580417113.49769,-0.388433661402305,-0.154543373769741,0.909437705043107
1580417113.50168,-0.372320134279393,-0.176028076600289,0.897718776226444
1580417113.50568,-0.376714732585642,-0.192141603723201,0.89723048752575
1580417113.50967,-0.392828259708553,-0.198001068131532,0.91090257114519
1580417113.51366,-0.403082322423133,-0.180910963607232,0.929945830472267
1580417113.51766,-0.406988632028687,-0.164309147783626,0.940688181887541
1580417113.52165,-0.406988632028687,-0.156008239871824,0.933852140077821
1580417113.52565,-0.400640878919662,-0.144289311055161,0.929457541771573
1580417113.52964,-0.385992217898833,-0.133546959639887,0.928969253070878
1580417113.53363,-0.375738155184253,-0.117433432516975,0.920668345159076
1580417113.53763,-0.358159761959259,-0.105226214999618,0.918715190356298
1580417113.54162,-0.34692912184329,-0.0920424200808725,0.923598077363241
1580417113.54562,-0.349370565346762,-0.0871595330739297,0.92799267566949
1580417113.54961,-0.35718318455787,-0.0817883573662925,0.935317006179904
1580417113.55362,-0.366460669871062,-0.0729991607537954,0.943617914091707
1580417113.55761,-0.364995803768979,-0.0642099641412983,0.944106202792401
1580417113.56161,-0.357671473258565,-0.0651865415426869,0.93482871747921
1580417113.5656,-0.35376516365301,-0.0866712443732354,0.92457465476463
1580417113.56959,-0.355230029755093,-0.120363164721141,0.915785458152133
1580417113.57359,-0.369878690775922,-0.152590218966964,0.915785458152133
1580417113.57758,-0.37769130998703,-0.187747005416952,0.933363851377127
1580417113.58158,-0.385015640497445,-0.216556038757915,0.957289997711147
1580417113.58557,-0.387457084000916,-0.242923628595406,0.979751277943084
1580417113.58957,-0.392339971007859,-0.256107423514154,0.96559090562295
1580417113.59356,-0.40845349813077,-0.24682993820096,0.946547646295873
1580417113.59755,-0.426031891355764,-0.221927214465552,0.935805294880598
1580417113.60155,-0.444098573281453,-0.195071335927366,0.935317006179904
1580417113.60554,-0.457770656900893,-0.164309147783626,0.936781872281987
1580417113.60953,-0.467536430914778,-0.131593804837109,0.927016098268101
1580417113.61353,-0.476325627527276,-0.0988784618905925,0.91090257114519
1580417113.61752,-0.476325627527276,-0.0710460059510183,0.90748455024033
1580417113.62152,-0.473884184023804,-0.060303654535744,0.894300755321584
1580417113.62551,-0.461188677805753,-0.0593270771343555,0.881605249103533
1580417113.6295,-0.438239108873121,-0.0690928511482412,0.891859311818113
1580417113.63348,-0.423590447852293,-0.0935072861829553,0.905043106736859
1580417113.63748,-0.427496757457847,-0.116945143816281,0.922621499961853
1580417113.64147,-0.444098573281453,-0.125246051728084,0.942641336690318
1580417113.64546,-0.454352635996033,-0.126222629129472,0.968032349126421
1580417113.64946,-0.454840924696727,-0.115968566414892,0.974380102235447
1580417113.65345,-0.44263370717937,-0.108644235904478,0.959731441214618
1580417113.65745,-0.431891355764096,-0.115968566414892,0.957289997711147
1580417113.66144,-0.428473334859236,-0.129640650034332,0.948012512397955
1580417113.66543,-0.42554360265507,-0.134523537041275,0.935805294880598
1580417113.66943,-0.42212558175021,-0.134523537041275,0.945571068894484
1580417113.67342,-0.407476920729382,-0.141359578850995,0.94508278019379
1580417113.67742,-0.399664301518273,-0.140383001449607,0.935805294880598
1580417113.68141,-0.400152590218967,-0.136476691844052,0.929945830472267
1580417113.68541,-0.395269703212024,-0.140383001449607,0.929945830472267
1580417113.6894,-0.385503929198139,-0.148683909361409,0.925062943465324
1580417113.69339,-0.380621042191196,-0.162355992980849,0.925551232166018
1580417113.69739,-0.378667887388419,-0.174074921797512,0.92799267566949
1580417113.70138,-0.385015640497445,-0.175539787899595,0.921644922560464
1580417113.70537,-0.385503929198139,-0.168703746089875,0.920668345159076
1580417113.70937,-0.385015640497445,-0.161379415579461,0.93141069657435
1580417113.71335,-0.389410238803693,-0.150148775463492,0.928969253070878
1580417113.71734,-0.397222858014802,-0.140871290150301,0.909925993743801
1580417113.72134,-0.406012054627299,-0.129640650034332,0.878187228198673
1580417113.72533,-0.416266117341879,-0.131105516136415,0.882093537804227
1580417113.72932,-0.427496757457847,-0.141847867551689,0.915785458152133
1580417113.73332,-0.427496757457847,-0.157473105973907,0.925062943465324
1580417113.73731,-0.414312962539102,-0.171633478294041,0.92115663385977
1580417113.74131,-0.405523765926604,-0.189211871519035,0.92457465476463
1580417113.7453,-0.404058899824522,-0.200930800335698,0.909925993743801
1580417113.74929,-0.41187151903563,-0.205813687342641,0.916762035553521
1580417113.75329,-0.419684138246739,-0.198489356832226,0.935805294880598
1580417113.75728,-0.42212558175021,-0.177981231403066,0.954848554207675
1580417113.76128,-0.421149004348822,-0.148195620660715,0.948989089799344
1580417113.76527,-0.420172426947433,-0.118410009918364,0.931898985275044
1580417113.76926,-0.417730983443962,-0.0896009765774011,0.925062943465324
1580417113.77326,-0.412359807736324,-0.0666514076447697,0.905531395437553
1580417113.77725,-0.408941786831464,-0.0588387884336612,0.888441290913253
1580417113.78125,-0.406012054627299,-0.0632333867399097,0.89381246662089
1580417113.78524,-0.416266117341879,-0.0695811398489354,0.906996261539636
1580417113.78923,-0.421149004348822,-0.0905775539787896,0.913344014648661
1580417113.79324,-0.42896162355993,-0.116945143816281,0.924086366063936
1580417113.79724,-0.434821087968261,-0.153078507667658,0.920668345159076
1580417113.80123,-0.437262531471733,-0.188723582818341,0.91432059205005
1580417113.80522,-0.440680552376593,-0.224368657969023,0.927504386968796
1580417113.80922,-0.433844510566873,-0.256107423514154,0.939223315785458
1580417113.81321,-0.428473334859236,-0.294682230869002,0.944594491493095
1580417113.81721,-0.431891355764096,-0.316166933699551,0.939711604486153
1580417113.8212,-0.442145418478676,-0.307866025787748,0.936781872281987
1580417113.82519,-0.446540016784924,-0.269779507133594,0.93482871747921
1580417113.82919,-0.445075150682841,-0.223880369268329,0.92457465476463
1580417113.83318,-0.436285954070344,-0.179934386205844,0.91432059205005
1580417113.83718,-0.428473334859236,-0.140871290150301,0.903089951934081
1580417113.84117,-0.424078736552987,-0.108155947203784,0.897718776226444
1580417113.84517,-0.413336385137713,-0.0905775539787896,0.90064850843061
1580417113.84916,-0.407965209430076,-0.0866712443732354,0.91432059205005
1580417113.85315,-0.397711146715496,-0.0866712443732354,0.907972838941024
1580417113.85715,-0.396734569314107,-0.0920424200808725,0.916273746852827
1580417113.86114,-0.398687724116884,-0.0920424200808725,0.92115663385977
1580417113.86513,-0.397222858014802,-0.0988784618905925,0.937758449683376
1580417113.86913,-0.40161745632105,-0.115968566414892,0.953383688105593
1580417113.87311,-0.404058899824522,-0.141847867551689,0.953383688105593
1580417113.8771,-0.412359807736324,-0.168703746089875,0.949477378500038
1580417113.8811,-0.42212558175021,-0.193118181124589,0.952407110704204
1580417113.88509,-0.434332799267567,-0.208743419546806,0.964126039520867
1580417113.88908,-0.44263370717937,-0.213138017853055,0.95533684290837
1580417113.89308,-0.447516594186313,-0.209231708247501,0.939711604486153
1580417113.89707,-0.45288776989395,-0.198489356832226,0.915785458152133
1580417113.90106,-0.449958037689784,-0.184817273212786,0.918226901655604
1580417113.90506,-0.445563439383536,-0.174563210498206,0.915297169451438
1580417113.90905,-0.436285954070344,-0.161867704280155,0.905531395437553
1580417113.91305,-0.429449912260624,-0.140871290150301,0.906019684138247
1580417113.91704,-0.423102159151599,-0.114991989013504,0.907972838941024
1580417113.92103,-0.412848096437019,-0.0896009765774011,0.918715190356298
1580417113.92503,-0.401129167620356,-0.0813000686655982,0.90748455024033
1580417113.92902,-0.386480506599527,-0.0847180895704582,0.899671931029221
1580417113.93302,-0.372320134279393,-0.0930189974822611,0.901625085831999
1580417113.93701,-0.362066071564813,-0.11792172121767,0.923109788662547
1580417113.941,-0.358648050659953,-0.153078507667658,0.936293583581293
1580417113.945,-0.363042648966202,-0.182375829709315,0.943129625391013
1580417113.94899,-0.37769130998703,-0.193606469825284,0.948989089799344
1580417113.953,-0.393804837109942,-0.197024490730143,0.949477378500038
1580417113.957,-0.406012054627299,-0.182864118410009,0.948989089799344
1580417113.96099,-0.415777828641184,-0.163332570382238,0.949477378500038
1580417113.96498,-0.424567025253682,-0.131593804837109,0.943617914091707
1580417113.96898,-0.427496757457847,-0.101319905394064,0.935317006179904
1580417113.97297,-0.428473334859236,-0.0793469138628211,0.93141069657435
1580417113.97697,-0.427496757457847,-0.0754406042572668,0.928480964370184
1580417113.98096,-0.431403067063401,-0.0793469138628211,0.937758449683376
1580417113.98495,-0.436285954070344,-0.0920424200808725,0.943617914091707
1580417113.98895,-0.438239108873121,-0.103761348897535,0.93482871747921
1580417113.99294,-0.440192263675899,-0.136476691844052,0.929457541771573
1580417113.99694,-0.435309376668956,-0.165774013885709,0.925551232166018
1580417114.00093,-0.436774242771039,-0.191165026321812,0.934340428778516
1580417114.00492,-0.43921568627451,-0.201907377737086,0.941176470588236
1580417114.00892,-0.433356221866179,-0.209719996948195,0.922133211261158
1580417114.01291,-0.427496757457847,-0.209719996948195,0.899183642328527
1580417114.01691,-0.427985046158541,-0.198489356832226,0.89381246662089
1580417114.0209,-0.427496757457847,-0.180910963607232,0.900160219729916
1580417114.02489,-0.421637293049516,-0.173586633096818,0.906507972838941
1580417114.02889,-0.416266117341879,-0.174563210498206,0.90064850843061
1580417114.03287,-0.41187151903563,-0.157961394674601,0.889906157015336
1580417114.03686,-0.41187151903563,-0.126222629129472,0.88697642481117
1580417114.04085,-0.406012054627299,-0.0935072861829553,0.897718776226444
1580417114.04485,-0.408941786831464,-0.0793469138628211,0.920180056458381
1580417114.04884,-0.419195849546044,-0.0749523155565726,0.929945830472267
1580417114.05284,-0.42896162355993,-0.073975738155184,0.927016098268101
1580417114.05683,-0.441168841077287,-0.0827649347676811,0.925062943465324
1580417114.06082,-0.44605172808423,-0.102784771496147,0.920180056458381
1580417114.06482,-0.441168841077287,-0.133546959639887,0.938735027084764
1580417114.06881,-0.438239108873121,-0.154055085069047,0.965102616922255
1580417114.07281,-0.431891355764096,-0.177492942702372,0.977798123140307
1580417114.0768,-0.421149004348822,-0.192141603723201,0.971450370031281
1580417114.08079,-0.420172426947433,-0.194094758525978,0.949477378500038
1580417114.08479,-0.425055313954376,-0.177981231403066,0.919203479056993
1580417114.08878,-0.426031891355764,-0.156984817273212,0.91090257114519
1580417114.09278,-0.42554360265507,-0.142824444953078,0.915297169451438
1580417114.09677,-0.427985046158541,-0.138429846646829,0.892347600518807
1580417114.10076,-0.436285954070344,-0.137941557946135,0.887953002212559
1580417114.10476,-0.446540016784924,-0.139406424048218,0.895277332722973
1580417114.10875,-0.450446326390479,-0.135988403143358,0.89723048752575
1580417114.11276,-0.446540016784924,-0.134523537041275,0.905531395437553
1580417114.11676,-0.43579766536965,-0.135500114442664,0.91090257114519
1580417114.12075,-0.42896162355993,-0.147219043259327,0.909925993743801
1580417114.12474,-0.43579766536965,-0.156984817273212,0.900160219729916
1580417114.12874,-0.44263370717937,-0.168703746089875,0.911879148546578
1580417114.13273,-0.44605172808423,-0.183352407110704,0.948989089799344
1580417114.13673,-0.448493171587701,-0.203860532539863,0.963637750820173
1580417114.14072,-0.445563439383536,-0.217532616159303,0.951430533302815
1580417114.14471,-0.443610284580759,-0.218020904859998,0.956313420309758
1580417114.14871,-0.43579766536965,-0.216067750057221,0.959243152513924
1580417114.1527,-0.433844510566873,-0.209719996948195,0.946059357595178
1580417114.1567,-0.427008468757153,-0.197512779430838,0.930434119172961
1580417114.16069,-0.42212558175021,-0.181399252307926,0.913344014648661
1580417114.16468,-0.419195849546044,-0.167238879987792,0.900160219729916
1580417114.16868,-0.414312962539102,-0.160891126878766,0.90064850843061
1580417114.17267,-0.40845349813077,-0.173098344396124,0.89039444571603
1580417114.17667,-0.406500343327993,-0.184817273212786,0.891371023117419
1580417114.18066,-0.402105745021744,-0.194094758525978,0.890882734416724
1580417114.18465,-0.399176012817579,-0.194583047226672,0.89381246662089
1580417114.18865,-0.396246280613413,-0.182375829709315,0.899183642328527
1580417114.19263,-0.392828259708553,-0.162844281681544,0.908461127641718
1580417114.19662,-0.398687724116884,-0.146242465857938,0.920180056458381
1580417114.20061,-0.402594033722439,-0.135500114442664,0.913832303349356
1580417114.20461,-0.414312962539102,-0.123781185626001,0.89723048752575
1580417114.2086,-0.431891355764096,-0.115480277714198,0.916762035553521
1580417114.2126,-0.442145418478676,-0.112062256809338,0.928969253070878
1580417114.21659,-0.442145418478676,-0.113527122911421,0.933363851377127
1580417114.22058,-0.437750820172427,-0.110109102006561,0.937270160982681
1580417114.22458,-0.42212558175021,-0.103273060196841,0.940199893186847
1580417114.22857,-0.410406652933547,-0.102296482795452,0.933363851377127
1580417114.23257,-0.396734569314107,-0.111573968108644,0.920668345159076
1580417114.23656,-0.383062485694667,-0.132082093537804,0.919203479056993
1580417114.24055,-0.376226443884947,-0.154055085069047,0.937270160982681
1580417114.24455,-0.378667887388419,-0.167238879987792,0.935805294880598
1580417114.24854,-0.382085908293279,-0.175051499198901,0.93482871747921
1580417114.25254,-0.382085908293279,-0.174563210498206,0.937758449683376
1580417114.25653,-0.39478141451133,-0.170168612191958,0.937758449683376
1580417114.26052,-0.407965209430076,-0.148195620660715,0.930434119172961
1580417114.26452,-0.415777828641184,-0.119874876020447,0.925062943465324
1580417114.26851,-0.420660715648127,-0.110109102006561,0.927504386968796
1580417114.27252,-0.427985046158541,-0.100343327992675,0.930922407873656
1580417114.27652,-0.43579766536965,-0.0983901731898982,0.939223315785458
