Timestamp_seconds,Accel_X_g,Accel_Y_g,Accel_Z_g
1580421072.38032,-0.973891813534753,-0.0617685206378269,-0.216067750057221
1580421072.38432,-0.971938658731975,-0.0617685206378269,-0.217532616159303
1580421072.38831,-0.973891813534753,-0.0622568093385212,-0.216556038757915
1580421072.3923,-0.975356679636835,-0.063721675440604,-0.219974059662775
1580421072.3963,-0.972915236133364,-0.0578622110322726,-0.219974059662775
1580421072.40029,-0.976333257038224,-0.0607919432364383,-0.223880369268329
1580421072.40428,-0.977309834439613,-0.060303654535744,-0.218997482261386
1580421072.40828,-0.974380102235447,-0.0622568093385212,-0.220462348363469
1580421072.41227,-0.973403524834058,-0.0588387884336612,-0.218509193560692
1580421072.41627,-0.977309834439613,-0.0583504997329669,-0.225345235370412
1580421072.42026,-0.976333257038224,-0.0563973449301898,-0.220950637064163
1580421072.42425,-0.978286411841001,-0.0583504997329669,-0.221927214465552
1580421072.42825,-0.977798123140307,-0.0573739223315783,-0.225345235370412
1580421072.43224,-0.977309834439613,-0.0563973449301898,-0.223392080567635
1580421072.43624,-0.978286411841001,-0.0544441901274126,-0.224856946669718
1580421072.44025,-0.977798123140307,-0.0578622110322726,-0.226321812771801
1580421072.44424,-0.977798123140307,-0.0598153658350498,-0.224856946669718
1580421072.44823,-0.976821545738918,-0.0593270771343555,-0.221927214465552
1580421072.45223,-0.977798123140307,-0.0583504997329669,-0.219974059662775
1580421072.45622,-0.978286411841001,-0.0568856336308841,-0.218997482261386
1580421072.46022,-0.978286411841001,-0.0583504997329669,-0.218997482261386
1580421072.46421,-0.97926298924239,-0.0554207675288012,-0.218020904859998
1580421072.4682,-0.981704432745861,-0.0544441901274126,-0.214602883955138
1580421072.4722,-0.979751277943084,-0.0534676127260241,-0.219485770962081
1580421072.47619,-0.978774700541695,-0.0534676127260241,-0.213626306553749
1580421072.48019,-0.981704432745861,-0.0544441901274126,-0.212649729152361
1580421072.48418,-0.978774700541695,-0.0534676127260241,-0.211673151750972
1580421072.48817,-0.978774700541695,-0.0554207675288012,-0.215579461356526
1580421072.49217,-0.98268101014725,-0.0539559014267184,-0.214602883955138
1580421072.49616,-0.978774700541695,-0.0563973449301898,-0.213626306553749
1580421072.50016,-0.980239566643778,-0.0563973449301898,-0.215579461356526
1580421072.50415,-0.980239566643778,-0.0568856336308841,-0.219485770962081
1580421072.50814,-0.978774700541695,-0.0583504997329669,-0.222415503166246
1580421072.51214,-0.980239566643778,-0.0598153658350498,-0.217044327458609
1580421072.51613,-0.980239566643778,-0.0588387884336612,-0.217532616159303
1580421072.52011,-0.97584496833753,-0.060303654535744,-0.218997482261386
1580421072.5241,-0.979751277943084,-0.0593270771343555,-0.220950637064163
1580421072.5281,-0.983169298847944,-0.063721675440604,-0.219485770962081
1580421072.53209,-0.981216144045167,-0.0554207675288012,-0.226321812771801
1580421072.53609,-0.983169298847944,-0.0578622110322726,-0.222415503166246
1580421072.54008,-0.980239566643778,-0.0573739223315783,-0.219974059662775
1580421072.54408,-0.983657587548638,-0.0573739223315783,-0.220462348363469
1580421072.54807,-0.979751277943084,-0.0573739223315783,-0.220462348363469
1580421072.55206,-0.98268101014725,-0.0568856336308841,-0.217532616159303
1580421072.55606,-0.980727855344472,-0.0554207675288012,-0.215579461356526
1580421072.56005,-0.98268101014725,-0.0539559014267184,-0.216556038757915
1580421072.56404,-0.981704432745861,-0.0539559014267184,-0.221438925764858
1580421072.56804,-0.98268101014725,-0.0520027466239412,-0.218020904859998
1580421072.57203,-0.98268101014725,-0.0495613031204698,-0.218509193560692
1580421072.57603,-0.979751277943084,-0.0515144579232469,-0.216067750057221
1580421072.58002,-0.97926298924239,-0.0539559014267184,-0.217532616159303
1580421072.58401,-0.978774700541695,-0.0544441901274126,-0.220462348363469
1580421072.58801,-0.97926298924239,-0.0554207675288012,-0.219974059662775
1580421072.592,-0.976821545738918,-0.0559090562294955,-0.219974059662775
1580421072.596,-0.976333257038224,-0.0578622110322726,-0.216067750057221
1580421072.60001,-0.976333257038224,-0.0607919432364383,-0.220462348363469
1580421072.604,-0.975356679636835,-0.0588387884336612,-0.220950637064163
1580421072.60799,-0.974380102235447,-0.0598153658350498,-0.222903791866941
1580421072.61199,-0.971938658731975,-0.0607919432364383,-0.225345235370412
1580421072.61598,-0.973403524834058,-0.063721675440604,-0.226321812771801
1580421072.61998,-0.970473792629893,-0.063721675440604,-0.224856946669718
1580421072.62397,-0.975356679636835,-0.0617685206378269,-0.224368657969023
1580421072.62796,-0.974380102235447,-0.0627450980392155,-0.225345235370412
1580421072.63196,-0.971938658731975,-0.0622568093385212,-0.233646143282215
1580421072.63595,-0.973891813534753,-0.0627450980392155,-0.23315785458152
1580421072.63995,-0.97242694743267,-0.0622568093385212,-0.23657587548638
1580421072.64394,-0.972915236133364,-0.0617685206378269,-0.235599298084992
1580421072.64793,-0.973891813534753,-0.0593270771343555,-0.234622720683603
1580421072.65193,-0.975356679636835,-0.0598153658350498,-0.234622720683603
1580421072.65592,-0.973403524834058,-0.0578622110322726,-0.241458762493323
1580421072.65992,-0.97584496833753,-0.0563973449301898,-0.236087586785686
1580421072.66391,-0.977309834439613,-0.0529793240253298,-0.230716411078049
1580421072.6679,-0.978774700541695,-0.0524910353246355,-0.234134431982909
1580421072.6719,-0.978774700541695,-0.0510261692225527,-0.235599298084992
1580421072.67589,-0.977309834439613,-0.0495613031204698,-0.235599298084992
1580421072.67987,-0.979751277943084,-0.0495613031204698,-0.23657587548638
1580421072.68386,-0.977309834439613,-0.0490730144197755,-0.237064164187075
1580421072.68786,-0.976821545738918,-0.0495613031204698,-0.231204699778743
1580421072.69185,-0.974380102235447,-0.0515144579232469,-0.231692988479438
1580421072.69585,-0.975356679636835,-0.0490730144197755,-0.230228122377355
1580421072.69984,-0.977309834439613,-0.0500495918211641,-0.229739833676661
1580421072.70383,-0.978286411841001,-0.0500495918211641,-0.228763256275272
1580421072.70783,-0.975356679636835,-0.0485847257190812,-0.229739833676661
1580421072.71182,-0.977309834439613,-0.0510261692225527,-0.227786678873883
1580421072.71582,-0.977309834439613,-0.0524910353246355,-0.229251544975966
1580421072.71981,-0.97926298924239,-0.0544441901274126,-0.222903791866941
1580421072.7238,-0.97584496833753,-0.0510261692225527,-0.225833524071106
1580421072.7278,-0.977798123140307,-0.0529793240253298,-0.225833524071106
1580421072.73179,-0.975356679636835,-0.0534676127260241,-0.227786678873883
1580421072.73579,-0.977309834439613,-0.0583504997329669,-0.227786678873883
1580421072.73978,-0.977309834439613,-0.0554207675288012,-0.225345235370412
1580421072.74377,-0.980727855344472,-0.0554207675288012,-0.229251544975966
1580421072.74777,-0.976333257038224,-0.0549324788281069,-0.231204699778743
1580421072.75176,-0.974868390936141,-0.0583504997329669,-0.231692988479438
1580421072.75576,-0.977309834439613,-0.0559090562294955,-0.233646143282215
1580421072.75976,-0.978774700541695,-0.0568856336308841,-0.237064164187075
1580421072.76376,-0.97584496833753,-0.0593270771343555,-0.235111009384298
1580421072.76775,-0.977798123140307,-0.0612802319371326,-0.236087586785686
1580421072.77175,-0.97926298924239,-0.0617685206378269,-0.233646143282215
1580421072.77574,-0.974868390936141,-0.0612802319371326,-0.238040741588463
1580421072.77973,-0.974380102235447,-0.0632333867399097,-0.23315785458152
1580421072.78373,-0.973891813534753,-0.063721675440604,-0.23657587548638
1580421072.78772,-0.97242694743267,-0.0642099641412983,-0.237064164187075
1580421072.79172,-0.974380102235447,-0.0656748302433812,-0.239505607690546
1580421072.79571,-0.978286411841001,-0.0695811398489354,-0.23657587548638
1580421072.79971,-0.975356679636835,-0.0676279850461583,-0.23315785458152
1580421072.8037,-0.974380102235447,-0.0686045624475469,-0.239505607690546
1580421072.80769,-0.971450370031281,-0.0686045624475469,-0.239505607690546
1580421072.81169,-0.974380102235447,-0.067139696345464,-0.241458762493323
1580421072.81568,-0.974380102235447,-0.067139696345464,-0.240970473792629
1580421072.81967,-0.968032349126421,-0.0686045624475469,-0.234134431982909
1580421072.82367,-0.970962081330587,-0.0656748302433812,-0.236087586785686
1580421072.82766,-0.971450370031281,-0.063721675440604,-0.238040741588463
1580421072.83166,-0.972915236133364,-0.0661631189440754,-0.237552452887769
1580421072.83565,-0.969497215228504,-0.0642099641412983,-0.240970473792629
1580421072.83963,-0.971450370031281,-0.063721675440604,-0.240970473792629
1580421072.84362,-0.974868390936141,-0.0642099641412983,-0.239017318989852
1580421072.84762,-0.973891813534753,-0.0617685206378269,-0.23999389639124
1580421072.85161,-0.974380102235447,-0.0627450980392155,-0.240482185091935
1580421072.85561,-0.974380102235447,-0.0612802319371326,-0.2434119172961
1580421072.8596,-0.972915236133364,-0.0612802319371326,-0.242435339894712
1580421072.86359,-0.974868390936141,-0.0632333867399097,-0.241947051194018
1580421072.86759,-0.973403524834058,-0.0661631189440754,-0.240482185091935
1580421072.87158,-0.972915236133364,-0.0612802319371326,-0.245365072098878
1580421072.87558,-0.973891813534753,-0.0627450980392155,-0.242923628595406
1580421072.87957,-0.972915236133364,-0.0646982528419926,-0.244388494697489
1580421072.88356,-0.969497215228504,-0.063721675440604,-0.240482185091935
1580421072.88756,-0.970962081330587,-0.0646982528419926,-0.241458762493323
1580421072.89155,-0.970962081330587,-0.0656748302433812,-0.241947051194018
1580421072.89555,-0.968520637827115,-0.0651865415426869,-0.246341649500266
1580421072.89954,-0.967544060425727,-0.0676279850461583,-0.239017318989852
1580421072.90353,-0.965102616922255,-0.0686045624475469,-0.241458762493323
1580421072.90753,-0.967055771725033,-0.0690928511482412,-0.240970473792629
1580421072.91152,-0.968032349126421,-0.0681162737468526,-0.243900205996795
1580421072.91552,-0.966567483024338,-0.0700694285496297,-0.240970473792629
1580421072.91952,-0.968520637827115,-0.0695811398489354,-0.241947051194018
1580421072.92352,-0.96900892652781,-0.067139696345464,-0.247318226901655
1580421072.92751,-0.966567483024338,-0.0710460059510183,-0.240970473792629
1580421072.93151,-0.967544060425727,-0.0715342946517126,-0.244388494697489
1580421072.9355,-0.968520637827115,-0.0700694285496297,-0.2434119172961
1580421072.93949,-0.97242694743267,-0.0676279850461583,-0.244388494697489
1580421072.94349,-0.968032349126421,-0.0681162737468526,-0.240970473792629
1580421072.94748,-0.968032349126421,-0.067139696345464,-0.242435339894712
1580421072.95148,-0.968520637827115,-0.0661631189440754,-0.241458762493323
1580421072.95547,-0.968032349126421,-0.0695811398489354,-0.239505607690546
1580421072.95947,-0.967055771725033,-0.0666514076447697,-0.239505607690546
1580421072.96346,-0.967544060425727,-0.0676279850461583,-0.239017318989852
1580421072.96745,-0.970473792629893,-0.0598153658350498,-0.241947051194018
1580421072.97145,-0.968520637827115,-0.0651865415426869,-0.239505607690546
1580421072.97544,-0.971450370031281,-0.0651865415426869,-0.23999389639124
1580421072.97943,-0.968032349126421,-0.0617685206378269,-0.238529030289158
1580421072.98343,-0.96900892652781,-0.0612802319371326,-0.241947051194018
1580421072.98742,-0.969497215228504,-0.0612802319371326,-0.239505607690546
1580421072.99142,-0.969497215228504,-0.0607919432364383,-0.241947051194018
1580421072.99541,-0.973891813534753,-0.0568856336308841,-0.239017318989852
1580421072.99939,-0.974380102235447,-0.0583504997329669,-0.242923628595406
1580421073.00338,-0.974868390936141,-0.0583504997329669,-0.242435339894712
1580421073.00738,-0.97584496833753,-0.0573739223315783,-0.242923628595406
1580421073.01137,-0.97584496833753,-0.0539559014267184,-0.237064164187075
1580421073.01536,-0.976333257038224,-0.0520027466239412,-0.242923628595406
1580421073.01936,-0.973891813534753,-0.0534676127260241,-0.239505607690546
1580421073.02335,-0.977309834439613,-0.0490730144197755,-0.238529030289158
1580421073.02735,-0.971450370031281,-0.0476081483176927,-0.239017318989852
1580421073.03134,-0.973891813534753,-0.0510261692225527,-0.240970473792629
1580421073.03533,-0.973891813534753,-0.0471198596169984,-0.235599298084992
1580421073.03933,-0.97584496833753,-0.0485847257190812,-0.239017318989852
1580421073.04332,-0.978286411841001,-0.0476081483176927,-0.23999389639124
1580421073.04732,-0.976821545738918,-0.048096437018387,-0.237552452887769
1580421073.05131,-0.980239566643778,-0.0490730144197755,-0.237064164187075
1580421073.05531,-0.97926298924239,-0.0515144579232469,-0.241458762493323
1580421073.0593,-0.977309834439613,-0.0500495918211641,-0.235599298084992
1580421073.06329,-0.97584496833753,-0.0524910353246355,-0.236087586785686
1580421073.06729,-0.97926298924239,-0.0549324788281069,-0.23999389639124
1580421073.07128,-0.980239566643778,-0.0524910353246355,-0.230228122377355
1580421073.07527,-0.977798123140307,-0.0520027466239412,-0.234134431982909
1580421073.07928,-0.979751277943084,-0.0515144579232469,-0.234134431982909
1580421073.08328,-0.977798123140307,-0.0534676127260241,-0.239505607690546
1580421073.08727,-0.981216144045167,-0.0524910353246355,-0.234622720683603
1580421073.09127,-0.97926298924239,-0.0549324788281069,-0.234622720683603
1580421073.09526,-0.980239566643778,-0.0549324788281069,-0.23315785458152
1580421073.09925,-0.977798123140307,-0.0559090562294955,-0.237064164187075
1580421073.10325,-0.98268101014725,-0.0583504997329669,-0.231204699778743
1580421073.10724,-0.978286411841001,-0.0578622110322726,-0.229251544975966
1580421073.11124,-0.979751277943084,-0.0593270771343555,-0.23315785458152
1580421073.11523,-0.977309834439613,-0.0568856336308841,-0.230228122377355
1580421073.11922,-0.978286411841001,-0.0583504997329669,-0.232181277180132
1580421073.12322,-0.978286411841001,-0.060303654535744,-0.235599298084992
1580421073.12721,-0.97584496833753,-0.060303654535744,-0.234134431982909
1580421073.13121,-0.981216144045167,-0.0612802319371326,-0.233646143282215
1580421073.1352,-0.977798123140307,-0.0593270771343555,-0.238529030289158
1580421073.13919,-0.97926298924239,-0.0622568093385212,-0.237552452887769
1580421073.14319,-0.977798123140307,-0.063721675440604,-0.236087586785686
1580421073.14718,-0.978286411841001,-0.0661631189440754,-0.238040741588463
1580421073.15118,-0.976821545738918,-0.0661631189440754,-0.23657587548638
1580421073.15517,-0.976821545738918,-0.0666514076447697,-0.239505607690546
1580421073.15915,-0.978774700541695,-0.063721675440604,-0.235599298084992
1580421073.16314,-0.978286411841001,-0.0690928511482412,-0.239505607690546
1580421073.16714,-0.97584496833753,-0.0676279850461583,-0.235599298084992
1580421073.17113,-0.975356679636835,-0.0651865415426869,-0.234134431982909
1580421073.17512,-0.977309834439613,-0.0700694285496297,-0.241947051194018
1580421073.17912,-0.976333257038224,-0.0690928511482412,-0.238040741588463
1580421073.18311,-0.972915236133364,-0.0656748302433812,-0.240482185091935
1580421073.18711,-0.972915236133364,-0.0661631189440754,-0.239505607690546
1580421073.1911,-0.970962081330587,-0.067139696345464,-0.242923628595406
1580421073.19509,-0.974380102235447,-0.0651865415426869,-0.240970473792629
1580421073.19909,-0.974380102235447,-0.0632333867399097,-0.2434119172961
1580421073.20308,-0.973891813534753,-0.0656748302433812,-0.238529030289158
1580421073.20708,-0.977309834439613,-0.063721675440604,-0.241947051194018
1580421073.21107,-0.978286411841001,-0.0612802319371326,-0.243900205996795
1580421073.21507,-0.980239566643778,-0.0583504997329669,-0.239505607690546
1580421073.21906,-0.977309834439613,-0.0549324788281069,-0.23999389639124
1580421073.22305,-0.97926298924239,-0.0529793240253298,-0.238040741588463
1580421073.22705,-0.97926298924239,-0.0524910353246355,-0.237552452887769
1580421073.23104,-0.977309834439613,-0.0520027466239412,-0.235111009384298
1580421073.23503,-0.976821545738918,-0.0563973449301898,-0.235111009384298
1580421073.23901,-0.976333257038224,-0.0554207675288012,-0.234622720683603
1580421073.24301,-0.973403524834058,-0.0534676127260241,-0.23315785458152
1580421073.247,-0.974868390936141,-0.0563973449301898,-0.230716411078049
1580421073.25099,-0.974868390936141,-0.0578622110322726,-0.23657587548638
1580421073.25499,-0.971938658731975,-0.0563973449301898,-0.239017318989852
1580421073.25898,-0.971938658731975,-0.0529793240253298,-0.242923628595406
1580421073.26298,-0.975356679636835,-0.0544441901274126,-0.247318226901655
1580421073.26697,-0.972915236133364,-0.0515144579232469,-0.250736247806516
1580421073.27096,-0.971450370031281,-0.0529793240253298,-0.247318226901655
1580421073.27496,-0.970962081330587,-0.0549324788281069,-0.250736247806516
1580421073.27895,-0.970473792629893,-0.0534676127260241,-0.250247959105822
1580421073.28295,-0.971938658731975,-0.0549324788281069,-0.244876783398183
1580421073.28694,-0.968032349126421,-0.0563973449301898,-0.248294804303043
1580421073.29094,-0.96217288471809,-0.0573739223315783,-0.247806515602349
1580421073.29493,-0.965102616922255,-0.0573739223315783,-0.2434119172961
1580421073.29892,-0.959731441214618,-0.060303654535744,-0.244876783398183
1580421073.30292,-0.960708018616007,-0.0563973449301898,-0.24682993820096
1580421073.30691,-0.963149462119478,-0.0612802319371326,-0.249271381704432
1580421073.3109,-0.96217288471809,-0.0607919432364383,-0.251224536507211
1580421073.3149,-0.963149462119478,-0.0622568093385212,-0.250247959105822
1580421073.31891,-0.96217288471809,-0.060303654535744,-0.253665980010682
1580421073.3229,-0.963149462119478,-0.0632333867399097,-0.253665980010682
1580421073.3269,-0.962661173418784,-0.0622568093385212,-0.252689402609294
1580421073.33089,-0.966079194323644,-0.0646982528419926,-0.256107423514154
1580421073.33488,-0.963637750820173,-0.0617685206378269,-0.256107423514154
1580421073.33888,-0.965102616922255,-0.063721675440604,-0.253665980010682
1580421073.34287,-0.96559090562295,-0.0646982528419926,-0.257084000915542
1580421073.34687,-0.966079194323644,-0.0646982528419926,-0.252689402609294
1580421073.35086,-0.96559090562295,-0.0646982528419926,-0.254642557412071
1580421073.35485,-0.963637750820173,-0.063721675440604,-0.255619134813459
1580421073.35885,-0.965102616922255,-0.063721675440604,-0.253177691309988
1580421073.36284,-0.969497215228504,-0.0617685206378269,-0.249271381704432
1580421073.36684,-0.968520637827115,-0.0583504997329669,-0.251712825207905
1580421073.37083,-0.968032349126421,-0.0607919432364383,-0.248783093003738
1580421073.37482,-0.969985503929198,-0.060303654535744,-0.244388494697489
1580421073.37882,-0.969497215228504,-0.0573739223315783,-0.246341649500266
1580421073.38281,-0.969985503929198,-0.0554207675288012,-0.24682993820096
1580421073.38681,-0.969497215228504,-0.0515144579232469,-0.246341649500266
1580421073.3908,-0.967544060425727,-0.0510261692225527,-0.241947051194018
1580421073.39479,-0.971938658731975,-0.0510261692225527,-0.240482185091935
1580421073.39877,-0.974868390936141,-0.0466315709163041,-0.240482185091935
1580421073.40277,-0.973403524834058,-0.0451667048142212,-0.241458762493323
1580421073.40676,-0.973891813534753,-0.0461432822156098,-0.235599298084992
1580421073.41075,-0.973403524834058,-0.0451667048142212,-0.240970473792629
1580421073.41475,-0.974380102235447,-0.048096437018387,-0.237064164187075
1580421073.41874,-0.974380102235447,-0.0427252613107498,-0.241458762493323
1580421073.42274,-0.974868390936141,-0.0490730144197755,-0.239505607690546
1580421073.42673,-0.97242694743267,-0.0490730144197755,-0.240482185091935
1580421073.43072,-0.971938658731975,-0.0495613031204698,-0.240482185091935
1580421073.43472,-0.972915236133364,-0.048096437018387,-0.244388494697489
1580421073.43871,-0.974868390936141,-0.0520027466239412,-0.247806515602349
1580421073.44271,-0.976333257038224,-0.0515144579232469,-0.251712825207905
1580421073.4467,-0.974380102235447,-0.0500495918211641,-0.252201113908599
1580421073.4507,-0.970962081330587,-0.048096437018387,-0.251712825207905
1580421073.45469,-0.973403524834058,-0.048096437018387,-0.251712825207905
1580421073.45868,-0.971450370031281,-0.0500495918211641,-0.248294804303043
1580421073.46268,-0.969985503929198,-0.0471198596169984,-0.253665980010682
1580421073.46667,-0.975356679636835,-0.0466315709163041,-0.254154268711376
1580421073.47066,-0.971938658731975,-0.048096437018387,-0.250736247806516
1580421073.47466,-0.969497215228504,-0.0495613031204698,-0.247318226901655
1580421073.47867,-0.967055771725033,-0.0490730144197755,-0.2434119172961
1580421073.48266,-0.970473792629893,-0.0471198596169984,-0.248783093003738
1580421073.48666,-0.968520637827115,-0.0510261692225527,-0.246341649500266
1580421073.49065,-0.968520637827115,-0.0490730144197755,-0.245365072098878
1580421073.49464,-0.96559090562295,-0.0510261692225527,-0.245365072098878
1580421073.49864,-0.966567483024338,-0.0539559014267184,-0.24682993820096
1580421073.50263,-0.967055771725033,-0.0544441901274126,-0.24682993820096
1580421073.50663,-0.965102616922255,-0.0529793240253298,-0.250247959105822
1580421073.51062,-0.96559090562295,-0.0529793240253298,-0.257084000915542
1580421073.51461,-0.967544060425727,-0.0544441901274126,-0.251712825207905
1580421073.51861,-0.96900892652781,-0.0529793240253298,-0.259525444419014
1580421073.5226,-0.968032349126421,-0.0524910353246355,-0.258060578316931
1580421073.5266,-0.96900892652781,-0.0539559014267184,-0.259037155718319
1580421073.53059,-0.96900892652781,-0.0544441901274126,-0.256595712214848
1580421073.53458,-0.969497215228504,-0.0534676127260241,-0.260013733119708
1580421073.53858,-0.967544060425727,-0.0515144579232469,-0.264408331425956
1580421073.54257,-0.968520637827115,-0.0524910353246355,-0.257084000915542
1580421073.54657,-0.966079194323644,-0.0539559014267184,-0.261478599221791
1580421073.55056,-0.96900892652781,-0.0568856336308841,-0.261966887922485
1580421073.55455,-0.963149462119478,-0.0554207675288012,-0.259525444419014
1580421073.55853,-0.967055771725033,-0.0554207675288012,-0.258548867017625
1580421073.56253,-0.964126039520867,-0.0549324788281069,-0.260013733119708
1580421073.56652,-0.966079194323644,-0.0559090562294955,-0.257572289616236
1580421073.57051,-0.96900892652781,-0.0554207675288012,-0.258548867017625
1580421073.57451,-0.968032349126421,-0.0544441901274126,-0.252201113908599
1580421073.5785,-0.967055771725033,-0.0534676127260241,-0.250736247806516
1580421073.5825,-0.972915236133364,-0.0534676127260241,-0.251224536507211
1580421073.58649,-0.970473792629893,-0.0520027466239412,-0.246341649500266
1580421073.59048,-0.96900892652781,-0.0524910353246355,-0.242923628595406
1580421073.59448,-0.969985503929198,-0.0505378805218584,-0.249271381704432
1580421073.59847,-0.970473792629893,-0.0490730144197755,-0.252689402609294
1580421073.60247,-0.970473792629893,-0.0495613031204698,-0.250247959105822
1580421073.60646,-0.969497215228504,-0.0495613031204698,-0.256595712214848
1580421073.61045,-0.969497215228504,-0.0490730144197755,-0.252689402609294
1580421073.61445,-0.968520637827115,-0.0485847257190812,-0.252689402609294
1580421073.61844,-0.971938658731975,-0.0495613031204698,-0.251224536507211
1580421073.62244,-0.967544060425727,-0.0500495918211641,-0.257084000915542
1580421073.62643,-0.969497215228504,-0.0515144579232469,-0.252201113908599
1580421073.63042,-0.970473792629893,-0.0510261692225527,-0.256595712214848
1580421073.63442,-0.972915236133364,-0.0500495918211641,-0.257572289616236
1580421073.63843,-0.97242694743267,-0.0515144579232469,-0.251712825207905
1580421073.64242,-0.968520637827115,-0.0529793240253298,-0.255619134813459
1580421073.64641,-0.970473792629893,-0.0554207675288012,-0.255619134813459
1580421073.65041,-0.97242694743267,-0.0534676127260241,-0.254642557412071
1580421073.6544,-0.97242694743267,-0.0534676127260241,-0.257572289616236
1580421073.6584,-0.973403524834058,-0.0534676127260241,-0.252201113908599
1580421073.66239,-0.970473792629893,-0.0529793240253298,-0.257084000915542
1580421073.66638,-0.970473792629893,-0.0554207675288012,-0.257084000915542
1580421073.67038,-0.968032349126421,-0.0529793240253298,-0.257084000915542
1580421073.67437,-0.969497215228504,-0.0524910353246355,-0.260502021820402
1580421073.67837,-0.970473792629893,-0.0534676127260241,-0.258548867017625
1580421073.68236,-0.968032349126421,-0.0549324788281069,-0.255619134813459
1580421073.68635,-0.967055771725033,-0.0534676127260241,-0.257084000915542
1580421073.69035,-0.968032349126421,-0.0563973449301898,-0.258548867017625
1580421073.69434,-0.968032349126421,-0.0554207675288012,-0.257572289616236
1580421073.69834,-0.965102616922255,-0.0563973449301898,-0.256595712214848
1580421073.70233,-0.96900892652781,-0.0559090562294955,-0.259037155718319
1580421073.70632,-0.967544060425727,-0.0578622110322726,-0.258060578316931
1580421073.71032,-0.966567483024338,-0.0563973449301898,-0.259037155718319
1580421073.71431,-0.966567483024338,-0.0593270771343555,-0.256107423514154
1580421073.71829,-0.966567483024338,-0.0563973449301898,-0.261478599221791
1580421073.72229,-0.96559090562295,-0.0568856336308841,-0.258060578316931
1580421073.72628,-0.964126039520867,-0.0549324788281069,-0.260013733119708
1580421073.73027,-0.966079194323644,-0.0539559014267184,-0.258060578316931
1580421073.73427,-0.963637750820173,-0.0573739223315783,-0.260990310521096
1580421073.73826,-0.962661173418784,-0.0588387884336612,-0.263431754024568
1580421073.74226,-0.961684596017395,-0.0563973449301898,-0.256107423514154
1580421073.74625,-0.961684596017395,-0.0554207675288012,-0.262455176623179
1580421073.75024,-0.96217288471809,-0.0524910353246355,-0.263431754024568
1580421073.75424,-0.961196307316701,-0.0544441901274126,-0.260502021820402
1580421073.75823,-0.961684596017395,-0.0549324788281069,-0.261478599221791
1580421073.76223,-0.964126039520867,-0.0549324788281069,-0.262943465323874
1580421073.76622,-0.964614328221561,-0.0524910353246355,-0.260502021820402
1580421073.77021,-0.964126039520867,-0.0539559014267184,-0.260502021820402
1580421073.77421,-0.963149462119478,-0.0524910353246355,-0.259525444419014
1580421073.7782,-0.965102616922255,-0.0549324788281069,-0.258060578316931
1580421073.7822,-0.967055771725033,-0.0510261692225527,-0.258060578316931
1580421073.78619,-0.96559090562295,-0.0534676127260241,-0.261478599221791
1580421073.79018,-0.969985503929198,-0.0544441901274126,-0.261966887922485
1580421073.79418,-0.968032349126421,-0.0529793240253298,-0.258060578316931
1580421073.79819,-0.968032349126421,-0.0534676127260241,-0.255130846112765
1580421073.80218,-0.96559090562295,-0.0524910353246355,-0.258060578316931
1580421073.80617,-0.968520637827115,-0.0495613031204698,-0.254642557412071
1580421073.81017,-0.969985503929198,-0.0539559014267184,-0.250247959105822
1580421073.81416,-0.968032349126421,-0.0544441901274126,-0.248294804303043
1580421073.81816,-0.967055771725033,-0.0539559014267184,-0.251712825207905
1580421073.82215,-0.96900892652781,-0.0544441901274126,-0.251224536507211
1580421073.82614,-0.966567483024338,-0.0549324788281069,-0.252201113908599
1580421073.83014,-0.966079194323644,-0.0515144579232469,-0.250736247806516
1580421073.83413,-0.967055771725033,-0.0520027466239412,-0.245853360799572
1580421073.83813,-0.96900892652781,-0.0534676127260241,-0.249271381704432
1580421073.84212,-0.968032349126421,-0.0529793240253298,-0.249271381704432
1580421073.84611,-0.970962081330587,-0.0515144579232469,-0.251224536507211
1580421073.85011,-0.968032349126421,-0.0510261692225527,-0.246341649500266
1580421073.8541,-0.969985503929198,-0.0500495918211641,-0.247318226901655
1580421073.8581,-0.968520637827115,-0.0520027466239412,-0.247318226901655
1580421073.86209,-0.971450370031281,-0.0524910353246355,-0.248783093003738
1580421073.86608,-0.971450370031281,-0.0524910353246355,-0.245365072098878
1580421073.87008,-0.971938658731975,-0.0544441901274126,-0.249271381704432
1580421073.87407,-0.973403524834058,-0.0578622110322726,-0.251712825207905
1580421073.87805,-0.968032349126421,-0.0554207675288012,-0.24682993820096
1580421073.88205,-0.97242694743267,-0.0544441901274126,-0.244876783398183
1580421073.88604,-0.975356679636835,-0.0563973449301898,-0.248783093003738
1580421073.89003,-0.977309834439613,-0.0524910353246355,-0.245853360799572
1580421073.89403,-0.97584496833753,-0.0524910353246355,-0.244876783398183
1580421073.89802,-0.976821545738918,-0.0510261692225527,-0.243900205996795
1580421073.90201,-0.975356679636835,-0.0510261692225527,-0.240970473792629
1580421073.90601,-0.975356679636835,-0.0529793240253298,-0.242435339894712
1580421073.91,-0.976821545738918,-0.0534676127260241,-0.235111009384298
1580421073.914,-0.973403524834058,-0.0529793240253298,-0.230716411078049
1580421073.91799,-0.974380102235447,-0.0534676127260241,-0.231692988479438
1580421073.92198,-0.977798123140307,-0.0524910353246355,-0.23315785458152
1580421073.92598,-0.97584496833753,-0.0515144579232469,-0.231204699778743
1580421073.92997,-0.974868390936141,-0.0529793240253298,-0.231692988479438
1580421073.93397,-0.972915236133364,-0.0544441901274126,-0.235111009384298
1580421073.93796,-0.975356679636835,-0.0554207675288012,-0.234622720683603
1580421073.94195,-0.971450370031281,-0.0563973449301898,-0.234134431982909
1580421073.94595,-0.971938658731975,-0.0559090562294955,-0.235111009384298
1580421073.94994,-0.973891813534753,-0.0529793240253298,-0.241947051194018
1580421073.95394,-0.96900892652781,-0.0515144579232469,-0.241947051194018
1580421073.95795,-0.972915236133364,-0.0500495918211641,-0.245853360799572
1580421073.96194,-0.96900892652781,-0.0466315709163041,-0.2434119172961
1580421073.96593,-0.974380102235447,-0.0461432822156098,-0.241947051194018
1580421073.96993,-0.972915236133364,-0.0466315709163041,-0.242435339894712
1580421073.97392,-0.97584496833753,-0.0461432822156098,-0.23999389639124
1580421073.97792,-0.976333257038224,-0.0461432822156098,-0.240970473792629
1580421073.98191,-0.977798123140307,-0.0471198596169984,-0.236087586785686
1580421073.9859,-0.978286411841001,-0.0476081483176927,-0.236087586785686
1580421073.9899,-0.976821545738918,-0.0495613031204698,-0.236087586785686
1580421073.99389,-0.975356679636835,-0.0505378805218584,-0.237552452887769
1580421073.99789,-0.97926298924239,-0.0466315709163041,-0.23315785458152
1580421074.00188,-0.97926298924239,-0.0510261692225527,-0.234134431982909
1580421074.00587,-0.978774700541695,-0.0490730144197755,-0.235599298084992
1580421074.00987,-0.980239566643778,-0.0510261692225527,-0.232181277180132
1580421074.01386,-0.981704432745861,-0.0490730144197755,-0.23315785458152
1580421074.01786,-0.980727855344472,-0.0505378805218584,-0.230716411078049
1580421074.02185,-0.977309834439613,-0.0534676127260241,-0.234134431982909
1580421074.02584,-0.976333257038224,-0.0539559014267184,-0.231692988479438
1580421074.02984,-0.976333257038224,-0.0563973449301898,-0.230228122377355
1580421074.03383,-0.97584496833753,-0.0563973449301898,-0.234622720683603
1580421074.03781,-0.976821545738918,-0.0568856336308841,-0.236087586785686
1580421074.04181,-0.976821545738918,-0.0563973449301898,-0.23315785458152
1580421074.0458,-0.97584496833753,-0.0607919432364383,-0.234134431982909
1580421074.04979,-0.972915236133364,-0.0588387884336612,-0.242435339894712
1580421074.05379,-0.971450370031281,-0.060303654535744,-0.241947051194018
1580421074.05778,-0.975356679636835,-0.0612802319371326,-0.248294804303043
1580421074.06177,-0.973403524834058,-0.060303654535744,-0.24682993820096
1580421074.06577,-0.976821545738918,-0.0622568093385212,-0.245365072098878
1580421074.06976,-0.976333257038224,-0.0607919432364383,-0.252689402609294
1580421074.07376,-0.977798123140307,-0.0598153658350498,-0.247806515602349
1580421074.07775,-0.981216144045167,-0.0588387884336612,-0.250247959105822
1580421074.08174,-0.984145876249332,-0.0593270771343555,-0.249759670405126
1580421074.08574,-0.984145876249332,-0.0559090562294955,-0.253665980010682
1580421074.08973,-0.983169298847944,-0.0568856336308841,-0.250736247806516
1580421074.09373,-0.984634164950027,-0.0539559014267184,-0.254154268711376
1580421074.09772,-0.984145876249332,-0.0515144579232469,-0.253177691309988
1580421074.10171,-0.987075608453498,-0.0544441901274126,-0.247318226901655
1580421074.10571,-0.990005340657664,-0.0515144579232469,-0.248294804303043
1580421074.1097,-0.988540474555581,-0.0544441901274126,-0.241947051194018
1580421074.1137,-0.989028763256275,-0.0529793240253298,-0.249271381704432
1580421074.11771,-0.990981918059052,-0.0568856336308841,-0.24682993820096
1580421074.1217,-0.99293507286183,-0.0568856336308841,-0.250247959105822
1580421074.12569,-0.997817959868772,-0.0593270771343555,-0.251712825207905
1580421074.12969,-1.00025940337224,-0.0666514076447697,-0.254642557412071
1580421074.13368,-1.00025940337224,-0.0656748302433812,-0.253665980010682
1580421074.13768,-1.00074769207294,-0.0690928511482412,-0.254154268711376
1580421074.14167,-1.00074769207294,-0.067139696345464,-0.254642557412071
1580421074.14566,-0.99977111467155,-0.0656748302433812,-0.261478599221791
1580421074.14966,-0.999282825970855,-0.0646982528419926,-0.266849774929428
1580421074.15365,-0.999282825970855,-0.0607919432364383,-0.269291218432899
1580421074.15765,-1.00025940337224,-0.0554207675288012,-0.269291218432899
1580421074.16164,-0.994888227664607,-0.0520027466239412,-0.273197528038454
1580421074.16563,-0.990981918059052,-0.0515144579232469,-0.270267795834288
1580421074.16963,-0.988052185854887,-0.0505378805218584,-0.267826352330816
1580421074.17362,-0.988052185854887,-0.0524910353246355,-0.274662394140536
1580421074.17762,-0.985610742351415,-0.0539559014267184,-0.280033569848174
1580421074.18161,-0.988052185854887,-0.0534676127260241,-0.283451590753033
1580421074.1856,-0.992446784161135,-0.0559090562294955,-0.295170519569696
1580421074.1896,-0.992446784161135,-0.0559090562294955,-0.300541695277333
1580421074.19359,-0.991470206759747,-0.0573739223315783,-0.311772335393302
1580421074.19757,-0.996841382467384,-0.0568856336308841,-0.322026398107882
1580421074.20156,-0.998306248569467,-0.0549324788281069,-0.331792172121768
1580421074.20556,-0.998306248569467,-0.0549324788281069,-0.337651636530099
1580421074.20955,-1.00074769207294,-0.0549324788281069,-0.348393987945373
1580421074.21355,-1.00025940337224,-0.0549324788281069,-0.347905699244679
1580421074.21754,-0.999282825970855,-0.0563973449301898,-0.341069657434959
1580421074.22153,-0.999282825970855,-0.0559090562294955,-0.33325703822385
1580421074.22553,-0.994399938963912,-0.0578622110322726,-0.331792172121768
1580421074.22952,-0.990493629358358,-0.0544441901274126,-0.332280460822462
1580421074.23352,-0.99293507286183,-0.0529793240253298,-0.329350728618296
1580421074.23751,-0.99635309376669,-0.0524910353246355,-0.334233615625239
1580421074.2415,-1.00856031128405,-0.0510261692225527,-0.33667505912871
1580421074.2455,-1.01734950789654,-0.0534676127260241,-0.345952544441902
1580421074.24949,-1.02418554970626,-0.0568856336308841,-0.350835431448845
1580421074.25349,-1.03150988021668,-0.0622568093385212,-0.358648050659953
1580421074.25748,-1.03297474631876,-0.0700694285496297,-0.367925535973145
1580421074.26147,-1.02711528191043,-0.0720225833524069,-0.366460669871062
1580421074.26547,-1.0207675288014,-0.073975738155184,-0.371831845578699
1580421074.26946,-1.01979095140002,-0.0715342946517126,-0.375738155184253
1580421074.27346,-1.01832608529793,-0.0676279850461583,-0.373296711680782
1580421074.27746,-1.02027924010071,-0.0617685206378269,-0.35718318455787
1580421074.28146,-1.02418554970626,-0.0593270771343555,-0.34351110093843
1580421074.28545,-1.02272068360418,-0.0598153658350498,-0.335698481727322
1580421074.28945,-1.01979095140002,-0.0646982528419926,-0.321049820706493
1580421074.29344,-1.01490806439307,-0.070557717250324,-0.313725490196079
1580421074.29744,-1.01344319829099,-0.080811779964904,-0.298100251773862
1580421074.30143,-1.0124666208896,-0.0930189974822611,-0.284428168154422
1580421074.30542,-1.00856031128405,-0.0959487296864268,-0.273197528038454
1580421074.30942,-1.01637293049516,-0.0983901731898982,-0.265384908827345
1580421074.31341,-1.02272068360418,-0.105714503700312,-0.265384908827345
1580421074.3174,-1.03150988021668,-0.107179369802395,-0.274174105439842
1580421074.3214,-1.0383459220264,-0.11450370031281,-0.277592126344702
1580421074.32539,-1.04078736552987,-0.122804608224612,-0.290287632562753
1580421074.32939,-1.03688105592432,-0.126710917830167,-0.306401159685665
1580421074.33338,-1.03981078812848,-0.134523537041275,-0.317631799801633
1580421074.33737,-1.04518196383612,-0.126710917830167,-0.32300297550927
1580421074.34137,-1.05397116044862,-0.113527122911421,-0.323979552910659
1580421074.34536,-1.0637369344625,-0.101808194094758,-0.333745326924545
1580421074.34936,-1.06959639887083,-0.0871595330739297,-0.334721904325933
1580421074.35335,-1.07057297627222,-0.0783703364614325,-0.343999389639125
1580421074.35736,-1.06861982146944,-0.0666514076447697,-0.341069657434959
1580421074.36135,-1.06569008926528,-0.0568856336308841,-0.341557946135653
1580421074.36535,-1.06471351186389,-0.0383306630045013,-0.344487678339819
1580421074.36934,-1.05934233615625,-0.0227054245822842,-0.351812008850233
1580421074.37334,-1.0554360265507,-0.0104982070649271,-0.354253452353705
1580421074.37733,-1.05348287174792,0.000244144350347142,-0.355230029755093
1580421074.38132,-1.0471351186389,0.00317387655451284,-0.347905699244679
1580421074.38532,-1.04615854123751,0.00512703135728998,-0.343999389639125
1580421074.38931,-1.0378576333257,0.01196307316701,-0.335698481727322
1580421074.39331,-1.02809185931182,0.01196307316701,-0.332768749523156
1580421074.3973,-1.01100175478752,0.01196307316701,-0.323491264209965
1580421074.40129,-0.995864805065995,0.0109864957656214,-0.31958495460441
1580421074.40529,-0.981704432745861,0.00708018616006711,-0.311772335393302
1580421074.40928,-0.970962081330587,0.0075684748607614,-0.307866025787748
1580421074.41328,-0.959243152513924,0.00659189745937283,-0.307866025787748
1580421074.41727,-0.952407110704204,0.00317387655451284,-0.320561532005799
1580421074.42126,-0.944106202792401,-0.00366216525520713,-0.332280460822462
1580421074.42526,-0.934340428778516,-0.0075684748607614,-0.336186770428016
1580421074.42925,-0.927504386968796,-0.0139162279697871,-0.335210193026628
1580421074.43325,-0.924086366063936,-0.0231937132829785,-0.340581368734265
1580421074.43722,-0.925062943465324,-0.0324711985961699,-0.34009308003357
1580421074.44122,-0.932387273975738,-0.037842374303807,-0.32642099641413
1580421074.44521,-0.941176470588236,-0.0456549935149155,-0.330815594720379
1580421074.44921,-0.936781872281987,-0.0505378805218584,-0.338628213931488
1580421074.4532,-0.937758449683376,-0.0563973449301898,-0.348882276646068
1580421074.4572,-0.93482871747921,-0.0598153658350498,-0.358648050659953
1580421074.46119,-0.930434119172961,-0.0622568093385212,-0.369390402075227
1580421074.46518,-0.924086366063936,-0.0612802319371326,-0.376226443884947
1580421074.46918,-0.922133211261158,-0.0563973449301898,-0.381597619592585
1580421074.47317,-0.91432059205005,-0.0461432822156098,-0.371343556878005
1580421074.47716,-0.90748455024033,-0.0354009308003356,-0.368902113374533
1580421074.48116,-0.905531395437553,-0.0256351567864499,-0.356694895857176
1580421074.48515,-0.89723048752575,-0.0256351567864499,-0.348393987945373
1580421074.48915,-0.89381246662089,-0.0231937132829785,-0.338628213931488
1580421074.49314,-0.894300755321584,-0.0251468680857556,-0.329350728618296
1580421074.49713,-0.891859311818113,-0.0256351567864499,-0.322026398107882
1580421074.50113,-0.89039444571603,-0.0266117341878385,-0.317143511100939
1580421074.50512,-0.88355840390631,-0.0300297550926985,-0.318608377203022
1580421074.50912,-0.874769207293813,-0.0271000228885327,-0.319096665903716
1580421074.51311,-0.861585412375067,-0.024170290684367,-0.32983901731899
1580421074.51712,-0.851331349660487,-0.0183108262760356,-0.325932707713436
1580421074.52111,-0.843518730449379,-0.00805676356145568,-0.325444419012742
1580421074.52511,-0.838635843442436,-0.00268558785381856,-0.31958495460441
1580421074.5291,-0.840100709544519,0.000244144350347142,-0.31958495460441
1580421074.5331,-0.845471885252156,-0.00512703135728998,-0.316166933699551
1580421074.53709,-0.850843060959793,-0.0148928053711757,-0.318608377203022
1580421074.54108,-0.858655680170902,-0.0285648889906156,-0.314213778896773
1580421074.54508,-0.862073701075762,-0.0427252613107498,-0.296635385671779
1580421074.54907,-0.863538567177844,-0.0524910353246355,-0.290287632562753
1580421074.55307,-0.867933165484093,-0.0607919432364383,-0.279056992446785
1580421074.55706,-0.874280918593119,-0.0617685206378269,-0.277592126344702
1580421074.56105,-0.87672236209659,-0.0534676127260241,-0.281498435950256
1580421074.56505,-0.884046692607004,-0.0437018387121384,-0.279545281147479
1580421074.56904,-0.894789044022279,-0.0285648889906156,-0.268314641031511
1580421074.57304,-0.902113374532693,-0.0148928053711757,-0.261966887922485
1580421074.57703,-0.910414282444496,-0.00805676356145568,-0.256107423514154
1580421074.58102,-0.909925993743801,0.00170901045242999,-0.252201113908599
1580421074.58502,-0.907972838941024,-0.00170901045242999,-0.253177691309988
1580421074.58901,-0.906996261539636,-0.00659189745937283,-0.257572289616236
1580421074.59301,-0.911879148546578,-0.0129396505683985,-0.247318226901655
1580421074.59701,-0.915785458152133,-0.0183108262760356,-0.245853360799572
1580421074.60101,-0.909925993743801,-0.0227054245822842,-0.240970473792629
1580421074.605,-0.906019684138247,-0.0358892195010299,-0.237552452887769
1580421074.609,-0.898695353627833,-0.0461432822156098,-0.237552452887769
1580421074.61299,-0.896253910124361,-0.0534676127260241,-0.230716411078049
1580421074.61698,-0.893324177920196,-0.0568856336308841,-0.233646143282215
1580421074.62098,-0.897718776226444,-0.060303654535744,-0.237552452887769
1580421074.62497,-0.89723048752575,-0.0598153658350498,-0.242923628595406
1580421074.62897,-0.897718776226444,-0.0656748302433812,-0.240482185091935
1580421074.63296,-0.90064850843061,-0.073975738155184,-0.240482185091935
1580421074.63696,-0.899671931029221,-0.0827649347676811,-0.248294804303043
1580421074.64095,-0.905531395437553,-0.0852063782711525,-0.257084000915542
1580421074.64494,-0.914808880750744,-0.0842298008697639,-0.254154268711376
1580421074.64894,-0.920180056458381,-0.0822766460669868,-0.261478599221791
1580421074.65293,-0.923109788662547,-0.0783703364614325,-0.269291218432899
1580421074.65692,-0.92799267566949,-0.0749523155565726,-0.274662394140536
1580421074.66092,-0.92799267566949,-0.0695811398489354,-0.288822766460671
1580421074.66491,-0.929945830472267,-0.0632333867399097,-0.299565117875945
1580421074.66891,-0.936293583581293,-0.0539559014267184,-0.298588540474556
1580421074.6729,-0.934340428778516,-0.041260395208667,-0.301518272678722
1580421074.67688,-0.931898985275044,-0.0217288471808956,-0.301518272678722
1580421074.68087,-0.932387273975738,-0.00805676356145568,-0.299565117875945
1580421074.68487,-0.938735027084764,0.00415045395590141,-0.294682230869002
1580421074.68886,-0.942641336690318,0.01196307316701,-0.291752498664836
1580421074.69285,-0.946059357595178,0.0178225375753414,-0.290287632562753
1580421074.69685,-0.948989089799344,0.0187991149767299,-0.284428168154422
1580421074.70084,-0.948989089799344,0.0129396505683985,-0.276615548943314
1580421074.70484,-0.94508278019379,0.00415045395590141,-0.268314641031511
1580421074.70883,-0.942641336690318,-0.0104982070649271,-0.266849774929428
1580421074.71282,-0.939223315785458,-0.0187991149767299,-0.262943465323874
1580421074.71682,-0.933852140077821,-0.024170290684367,-0.260990310521096
1580421074.72081,-0.934340428778516,-0.0197756923781185,-0.267826352330816
1580421074.72481,-0.933852140077821,-0.0114747844663157,-0.266849774929428
1580421074.7288,-0.93482871747921,-0.00561532005798426,-0.266849774929428
1580421074.7328,-0.935317006179904,-0.0046387426565957,-0.262943465323874
1580421074.73679,-0.932875562676433,-0.00219729915312428,-0.261478599221791
1580421074.74078,-0.93141069657435,-0.0109864957656214,-0.263920042725262
1580421074.74478,-0.936781872281987,-0.0173342488746471,-0.260013733119708
1580421074.74877,-0.943617914091707,-0.0158693827725642,-0.256595712214848
1580421074.75276,-0.950453955901427,-0.0139162279697871,-0.260502021820402
1580421074.75677,-0.959731441214618,-0.0153810940718699,-0.258548867017625
1580421074.76077,-0.967055771725033,-0.0153810940718699,-0.260990310521096
1580421074.76476,-0.966567483024338,-0.0202639810788128,-0.255619134813459
1580421074.76876,-0.974380102235447,-0.0261234454871442,-0.259525444419014
1580421074.77275,-0.974868390936141,-0.031006332494087,-0.265384908827345
1580421074.77674,-0.980727855344472,-0.0324711985961699,-0.257084000915542
1580421074.78074,-0.981216144045167,-0.0334477759975584,-0.254642557412071
1580421074.78473,-0.976821545738918,-0.031006332494087,-0.249759670405126
1580421074.78873,-0.96900892652781,-0.0334477759975584,-0.241947051194018
1580421074.79272,-0.96217288471809,-0.0349126420996413,-0.240970473792629
1580421074.79671,-0.953383688105593,-0.034424353398947,-0.241458762493323
1580421074.80071,-0.949477378500038,-0.0319829098954756,-0.234622720683603
1580421074.8047,-0.944106202792401,-0.0295414663920042,-0.228763256275272
1580421074.8087,-0.94166475928893,-0.0280766002899213,-0.229739833676661
1580421074.81269,-0.943129625391013,-0.024170290684367,-0.227786678873883
1580421074.81668,-0.947035934996567,-0.0212405584802013,-0.235111009384298
1580421074.82068,-0.948989089799344,-0.0202639810788128,-0.237064164187075
1580421074.82467,-0.950453955901427,-0.0271000228885327,-0.239505607690546
1580421074.82867,-0.948012512397955,-0.0349126420996413,-0.239505607690546
1580421074.83266,-0.949965667200733,-0.0427252613107498,-0.235599298084992
1580421074.83664,-0.950453955901427,-0.0461432822156098,-0.23657587548638
1580421074.84063,-0.954848554207675,-0.0549324788281069,-0.234622720683603
1580421074.84463,-0.953871976806287,-0.0554207675288012,-0.237552452887769
1580421074.84862,-0.952895399404898,-0.0559090562294955,-0.245365072098878
1580421074.85261,-0.949965667200733,-0.0544441901274126,-0.249271381704432
1580421074.85661,-0.94850080109865,-0.0544441901274126,-0.245365072098878
1580421074.8606,-0.944106202792401,-0.0544441901274126,-0.23999389639124
1580421074.8646,-0.943617914091707,-0.0461432822156098,-0.230716411078049
1580421074.86859,-0.94166475928893,-0.0437018387121384,-0.226321812771801
1580421074.87258,-0.940688181887541,-0.0432135500114441,-0.223880369268329
1580421074.87658,-0.939711604486153,-0.0432135500114441,-0.214602883955138
1580421074.88057,-0.936293583581293,-0.044678416113527,-0.204837109941252
1580421074.88457,-0.935317006179904,-0.041260395208667,-0.193606469825284
1580421074.88856,-0.93482871747921,-0.0402838178072784,-0.184328984512092
1580421074.89255,-0.936293583581293,-0.0417486839093613,-0.176516365300984
1580421074.89655,-0.938735027084764,-0.0466315709163041,-0.177492942702372
1580421074.90054,-0.940199893186847,-0.0515144579232469,-0.184328984512092
1580421074.90454,-0.934340428778516,-0.0632333867399097,-0.192141603723201
1580421074.90853,-0.931898985275044,-0.0754406042572668,-0.196536202029449
1580421074.91252,-0.92799267566949,-0.0871595330739297,-0.201419089036392
1580421074.91653,-0.927504386968796,-0.0832532234683754,-0.207278553444723
1580421074.92053,-0.933363851377127,-0.0769054703593497,-0.211184863050278
1580421074.92452,-0.939711604486153,-0.0651865415426869,-0.218509193560692
1580421074.92852,-0.94850080109865,-0.0476081483176927,-0.214602883955138
1580421074.93251,-0.957289997711147,-0.0285648889906156,-0.217532616159303
1580421074.9365,-0.964126039520867,-0.0114747844663157,-0.224856946669718
1580421074.9405,-0.968032349126421,0.000244144350347142,-0.235111009384298
1580421074.94449,-0.969985503929198,0.00610360875867855,-0.241458762493323
1580421074.94849,-0.976333257038224,0.00952162966353853,-0.249759670405126
1580421074.95248,-0.98268101014725,0.00854505226214997,-0.262455176623179
1580421074.95647,-0.985610742351415,0.0100099183642328,-0.277592126344702
1580421074.96047,-0.990493629358358,-0.000244144350347142,-0.285893034256505
1580421074.96446,-0.996841382467384,-0.0100099183642328,-0.287357900358588
1580421074.96846,-0.997817959868772,-0.0183108262760356,-0.288334477759976
1580421074.97245,-0.999282825970855,-0.0246585793850613,-0.290775921263448
1580421074.97644,-1.00221255817502,-0.027588311589227,-0.293705653467613
1580421074.98044,-1.00172426947433,-0.0334477759975584,-0.299565117875945
1580421074.98443,-0.99635309376669,-0.031006332494087,-0.301029983978028
1580421074.98843,-0.997817959868772,-0.0290531776913099,-0.300053406576639
1580421074.99242,-0.996841382467384,-0.0246585793850613,-0.297611963073168
1580421074.9964,-0.990005340657664,-0.0207522697795071,-0.286381322957199
1580421075.00039,-0.989028763256275,-0.0251468680857556,-0.283451590753033
1580421075.00439,-0.983657587548638,-0.0305180437933927,-0.284916456855116
1580421075.00838,-0.981216144045167,-0.0373540856031127,-0.283939879453728
1580421075.01237,-0.981216144045167,-0.0471198596169984,-0.281986724650951
1580421075.01637,-0.98268101014725,-0.0568856336308841,-0.287357900358588
1580421075.02036,-0.983657587548638,-0.0617685206378269,-0.287357900358588
1580421075.02436,-0.98609903105211,-0.0715342946517126,-0.286869611657893
1580421075.02835,-0.990493629358358,-0.0769054703593497,-0.285893034256505
1580421075.03234,-0.993911650263218,-0.0852063782711525,-0.288334477759976
1580421075.03634,-0.998306248569467,-0.0852063782711525,-0.282963302052339
1580421075.04033,-0.99635309376669,-0.0793469138628211,-0.274662394140536
1580421075.04433,-1.00123598077363,-0.0700694285496297,-0.269291218432899
1580421075.04832,-1.0036774242771,-0.0573739223315783,-0.265384908827345
1580421075.05231,-1.0036774242771,-0.044678416113527,-0.265873197528039
1580421075.05631,-1.00807202258335,-0.0285648889906156,-0.256107423514154
1580421075.0603,-1.01197833218891,-0.0163576714732585,-0.258548867017625
1580421075.0643,-1.01637293049516,-0.00610360875867855,-0.260013733119708
1580421075.06829,-1.0129549095903,0.000732433051041426,-0.251224536507211
1580421075.07228,-1.01832608529793,0.00122072175173571,-0.257572289616236
1580421075.07629,-1.0207675288014,0.000244144350347142,-0.253177691309988
1580421075.08029,-1.02027924010071,-0.00366216525520713,-0.258548867017625
1580421075.08428,-1.01393148699168,-0.00561532005798426,-0.256595712214848
1580421075.08828,-1.01686121919585,-0.00903334096284425,-0.251712825207905
1580421075.09227,-1.01149004348821,-0.0144045166704814,-0.250247959105822
1580421075.09626,-1.00953688868544,-0.0173342488746471,-0.254154268711376
1580421075.10026,-1.00758373388266,-0.0187991149767299,-0.245365072098878
1580421075.10425,-1.00123598077363,-0.0192874036774242,-0.239505607690546
1580421075.10824,-0.994888227664607,-0.0139162279697871,-0.233646143282215
1580421075.11224,-0.988540474555581,-0.0109864957656214,-0.223880369268329
1580421075.11623,-0.98609903105211,-0.0129396505683985,-0.222903791866941
1580421075.12023,-0.97926298924239,-0.0114747844663157,-0.224368657969023
1580421075.12422,-0.976333257038224,-0.0124513618677042,-0.225345235370412
1580421075.12821,-0.973403524834058,-0.0173342488746471,-0.227298390173189
1580421075.13221,-0.966079194323644,-0.0261234454871442,-0.225833524071106
1580421075.1362,-0.96217288471809,-0.0295414663920042,-0.232181277180132
1580421075.1402,-0.964614328221561,-0.0329594872968642,-0.229739833676661
1580421075.14419,-0.96217288471809,-0.0290531776913099,-0.230228122377355
1580421075.14819,-0.960219729915313,-0.0231937132829785,-0.231204699778743
1580421075.15218,-0.956801709010453,-0.0134279392690928,-0.228763256275272
1580421075.15616,-0.951430533302815,-0.00952162966353853,-0.227298390173189
1580421075.16015,-0.948989089799344,-0.0075684748607614,-0.224856946669718
1580421075.16415,-0.947524223697261,-0.00366216525520713,-0.226321812771801
1580421075.16814,-0.949477378500038,-0.000732433051041426,-0.232181277180132
1580421075.17213,-0.947524223697261,0.00512703135728998,-0.230716411078049
1580421075.17613,-0.947035934996567,0.00415045395590141,-0.234622720683603
1580421075.18012,-0.942153047989624,0.000732433051041426,-0.237064164187075
1580421075.18412,-0.937270160982681,-0.00122072175173571,-0.242435339894712
1580421075.18811,-0.936781872281987,-0.00366216525520713,-0.243900205996795
1580421075.1921,-0.933363851377127,-0.00952162966353853,-0.245365072098878
1580421075.1961,-0.930922407873656,-0.0100099183642328,-0.244388494697489
1580421075.20009,-0.929945830472267,-0.0100099183642328,-0.245365072098878
1580421075.20409,-0.932387273975738,-0.0129396505683985,-0.242435339894712
1580421075.20808,-0.93141069657435,-0.0134279392690928,-0.244388494697489
1580421075.21207,-0.929945830472267,-0.0144045166704814,-0.235111009384298
1580421075.21607,-0.926039520866713,-0.0246585793850613,-0.23657587548638
1580421075.22006,-0.917250324254216,-0.0271000228885327,-0.235599298084992
1580421075.22406,-0.914808880750744,-0.0319829098954756,-0.23315785458152
1580421075.22805,-0.906996261539636,-0.0388189517051956,-0.226810101472495
1580421075.23204,-0.901625085831999,-0.0373540856031127,-0.231204699778743
1580421075.23605,-0.894300755321584,-0.0407721065079727,-0.238529030289158
1580421075.24005,-0.886488136110476,-0.0363775082017241,-0.23315785458152
1580421075.24404,-0.88014038300145,-0.0329594872968642,-0.239017318989852
1580421075.24803,-0.871839475089647,-0.0319829098954756,-0.238529030289158
1580421075.25203,-0.868909742885482,-0.0271000228885327,-0.242923628595406
1580421075.25602,-0.867933165484093,-0.0231937132829785,-0.256595712214848
1580421075.26002,-0.867933165484093,-0.0222171358815899,-0.268802929732205
1580421075.26401,-0.867933165484093,-0.0192874036774242,-0.271244373235676
1580421075.268,-0.871351186388953,-0.0183108262760356,-0.276615548943314
1580421075.272,-0.874280918593119,-0.0129396505683985,-0.282963302052339
1580421075.27599,-0.884534981307699,-0.0114747844663157,-0.286381322957199
1580421075.27999,-0.896253910124361,-0.0114747844663157,-0.294193942168308
1580421075.28398,-0.908461127641718,-0.0163576714732585,-0.295658808270391
1580421075.28797,-0.919203479056993,-0.0187991149767299,-0.295170519569696
1580421075.29197,-0.928969253070878,-0.0222171358815899,-0.295658808270391
1580421075.29596,-0.937270160982681,-0.0227054245822842,-0.294682230869002
1580421075.29996,-0.939223315785458,-0.0217288471808956,-0.292240787365531
1580421075.30395,-0.948012512397955,-0.0202639810788128,-0.284428168154422
1580421075.30795,-0.952895399404898,-0.0163576714732585,-0.290287632562753
1580421075.31194,-0.961196307316701,-0.0046387426565957,-0.284916456855116
1580421075.31592,-0.966567483024338,0.0100099183642328,-0.284428168154422
1580421075.31991,-0.968032349126421,0.0231937132829785,-0.282963302052339
1580421075.32391,-0.971938658731975,0.0314946211947813,-0.284916456855116
1580421075.3279,-0.974380102235447,0.0349126420996413,-0.279545281147479
1580421075.33189,-0.968032349126421,0.0349126420996413,-0.280033569848174
1580421075.33589,-0.969497215228504,0.0324711985961699,-0.280033569848174
1580421075.33988,-0.970473792629893,0.0368657969024184,-0.278080415045396
1580421075.34388,-0.971938658731975,0.0388189517051956,-0.276127260242619
1580421075.34787,-0.977798123140307,0.0363775082017241,-0.270267795834288
1580421075.35186,-0.987075608453498,0.0324711985961699,-0.270756084534982
1580421075.35586,-0.990493629358358,0.0329594872968642,-0.266849774929428
1580421075.35985,-0.996841382467384,0.027588311589227,-0.263431754024568
1580421075.36384,-1.0041657129778,0.0231937132829785,-0.261966887922485
1580421075.36784,-1.01441977569238,0.024170290684367,-0.261478599221791
1580421075.37183,-1.0212558175021,0.0178225375753414,-0.252689402609294
1580421075.37583,-1.02613870450904,0.0163576714732585,-0.249271381704432
1580421075.37982,-1.0295567254139,0.00952162966353853,-0.250736247806516
1580421075.38381,-1.0295567254139,0.0075684748607614,-0.247318226901655
1580421075.38781,-1.02809185931182,0.00317387655451284,-0.249271381704432
1580421075.3918,-1.02858014801251,-0.00268558785381856,-0.24682993820096
1580421075.39581,-1.03297474631876,-0.00512703135728998,-0.248294804303043
1580421075.39981,-1.03395132372015,-0.0104982070649271,-0.2434119172961
1580421075.4038,-1.0300450141146,-0.0139162279697871,-0.248294804303043
1580421075.40779,-1.02760357061112,-0.0236820019836728,-0.260013733119708
1580421075.41179,-1.02906843671321,-0.0354009308003356,-0.261478599221791
1580421075.41578,-1.02858014801251,-0.0490730144197755,-0.268314641031511
1580421075.41978,-1.02467383840696,-0.0573739223315783,-0.266361486228734
1580421075.42377,-1.02760357061112,-0.0642099641412983,-0.255130846112765
1580421075.42776,-1.02711528191043,-0.0744640268558783,-0.251712825207905
1580421075.43176,-1.02662699320974,-0.0881361104753182,-0.257572289616236
1580421075.43575,-1.01881437399863,-0.102784771496147,-0.249759670405126
1580421075.43975,-1.01637293049516,-0.119874876020447,-0.244388494697489
1580421075.44374,-1.01197833218891,-0.132082093537804,-0.245365072098878
1580421075.44773,-1.00709544518196,-0.139406424048218,-0.243900205996795
1580421075.45173,-1.00074769207294,-0.141847867551689,-0.247806515602349
1580421075.45572,-0.99635309376669,-0.143312733653772,-0.243900205996795
1580421075.45972,-0.993911650263218,-0.135500114442664,-0.249759670405126
1580421075.46371,-0.990981918059052,-0.130128938735027,-0.254154268711376
1580421075.4677,-0.989028763256275,-0.120851453421835,-0.256107423514154
1580421075.4717,-0.998306248569467,-0.109132524605172,-0.264408331425956
1580421075.47568,-1.00172426947433,-0.0925307087815668,-0.269779507133594
1580421075.47967,-1.01002517738613,-0.0764171816586554,-0.275638971541925
1580421075.48366,-1.01393148699168,-0.0598153658350498,-0.281498435950256
1580421075.48766,-1.0124666208896,-0.0422369726100555,-0.279056992446785
1580421075.49165,-1.01197833218891,-0.0295414663920042,-0.279056992446785
1580421075.49565,-1.01149004348821,-0.0158693827725642,-0.282963302052339
1580421075.49964,-1.01100175478752,-0.00317387655451284,-0.274662394140536
1580421075.50363,-1.01051346608682,0.00659189745937283,-0.276127260242619
1580421075.50763,-1.00514229037919,0.0202639810788128,-0.274174105439842
1580421075.51162,-1.00074769207294,0.0295414663920042,-0.275638971541925
1580421075.51562,-0.994399938963912,0.037842374303807,-0.274662394140536
1580421075.51961,-0.985610742351415,0.0471198596169984,-0.275150682841231
1580421075.5236,-0.975356679636835,0.0544441901274126,-0.272709239337759
1580421075.5276,-0.971938658731975,0.0539559014267184,-0.275150682841231
1580421075.53159,-0.968520637827115,0.0539559014267184,-0.281010147249562
1580421075.53559,-0.963149462119478,0.0495613031204698,-0.282963302052339
1580421075.53958,-0.95875486381323,0.048096437018387,-0.287357900358588
1580421075.54357,-0.955825131609064,0.0456549935149155,-0.289311055161365
1580421075.54757,-0.952895399404898,0.0461432822156098,-0.283939879453728
1580421075.55156,-0.946547646295873,0.0461432822156098,-0.276615548943314
1580421075.55554,-0.946059357595178,0.0417486839093613,-0.272709239337759
1580421075.55954,-0.946547646295873,0.0388189517051956,-0.266849774929428
1580421075.56353,-0.950453955901427,0.0329594872968642,-0.270267795834288
1580421075.56752,-0.951430533302815,0.027588311589227,-0.273685816739148
1580421075.57152,-0.954360265506981,0.0173342488746471,-0.269291218432899
1580421075.57551,-0.956313420309758,0.0109864957656214,-0.261478599221791
1580421075.57951,-0.956313420309758,0.000732433051041426,-0.259037155718319
1580421075.5835,-0.954848554207675,-0.0075684748607614,-0.260502021820402
1580421075.58749,-0.957778286411841,-0.0178225375753414,-0.264408331425956
1580421075.59149,-0.960708018616007,-0.0300297550926985,-0.267826352330816
1580421075.59548,-0.963149462119478,-0.0393072404058898,-0.266849774929428
1580421075.59947,-0.962661173418784,-0.0466315709163041,-0.264408331425956
1580421075.60347,-0.964126039520867,-0.0578622110322726,-0.260990310521096
1580421075.60746,-0.964614328221561,-0.070557717250324,-0.257084000915542
1580421075.61146,-0.960708018616007,-0.0793469138628211,-0.253177691309988
1580421075.61545,-0.961684596017395,-0.0871595330739297,-0.256107423514154
1580421075.61944,-0.96217288471809,-0.0925307087815668,-0.254154268711376
1580421075.62344,-0.962661173418784,-0.0974135957885096,-0.250247959105822
1580421075.62743,-0.960219729915313,-0.0993667505912867,-0.242923628595406
1580421075.63143,-0.959243152513924,-0.102784771496147,-0.241458762493323
1580421075.63544,-0.961196307316701,-0.10424963759823,-0.23999389639124
1580421075.63943,-0.959243152513924,-0.102296482795452,-0.242435339894712
1580421075.64342,-0.958266575112535,-0.0949721522850382,-0.2434119172961
1580421075.64742,-0.954848554207675,-0.0881361104753182,-0.242435339894712
1580421075.65141,-0.952895399404898,-0.0832532234683754,-0.240482185091935
1580421075.65541,-0.952407110704204,-0.0676279850461583,-0.2434119172961
1580421075.6594,-0.95191882200351,-0.0573739223315783,-0.239017318989852
1580421075.66339,-0.954360265506981,-0.0466315709163041,-0.237552452887769
1580421075.66739,-0.954360265506981,-0.0349126420996413,-0.238529030289158
1580421075.67138,-0.956801709010453,-0.0271000228885327,-0.239505607690546
1580421075.67538,-0.952407110704204,-0.0217288471808956,-0.238040741588463
1580421075.67937,-0.948989089799344,-0.0197756923781185,-0.238040741588463
1580421075.68336,-0.94508278019379,-0.0187991149767299,-0.23999389639124
1580421075.68736,-0.947524223697261,-0.0183108262760356,-0.244388494697489
1580421075.69135,-0.943129625391013,-0.0139162279697871,-0.246341649500266
1580421075.69535,-0.946547646295873,-0.00708018616006711,-0.244388494697489
1580421075.69934,-0.946059357595178,-0.00317387655451284,-0.253665980010682
1580421075.70333,-0.941176470588236,0.00512703135728998,-0.253665980010682
1580421075.70733,-0.939223315785458,0.0075684748607614,-0.252201113908599
1580421075.71132,-0.935805294880598,0.0153810940718699,-0.259525444419014
1580421075.7153,-0.93141069657435,0.0197756923781185,-0.265873197528039
1580421075.7193,-0.929945830472267,0.0222171358815899,-0.266849774929428
1580421075.72329,-0.928480964370184,0.0202639810788128,-0.273685816739148
1580421075.72728,-0.926039520866713,0.0168459601739528,-0.272709239337759
1580421075.73128,-0.923109788662547,0.0124513618677042,-0.278080415045396
1580421075.73527,-0.920668345159076,0.0100099183642328,-0.280521858548868
1580421075.73926,-0.923109788662547,0.00952162966353853,-0.282475013351645
1580421075.74326,-0.921644922560464,0.00268558785381856,-0.283451590753033
1580421075.74725,-0.923109788662547,-0.00708018616006711,-0.283451590753033
1580421075.75125,-0.919203479056993,-0.0163576714732585,-0.280521858548868
1580421075.75524,-0.918226901655604,-0.0227054245822842,-0.280521858548868
1580421075.75923,-0.915297169451438,-0.0300297550926985,-0.281010147249562
1580421075.76323,-0.916762035553521,-0.0388189517051956,-0.277103837644008
1580421075.76722,-0.913344014648661,-0.0451667048142212,-0.276127260242619
1580421075.77122,-0.915785458152133,-0.0520027466239412,-0.273197528038454
1580421075.77521,-0.91432059205005,-0.0495613031204698,-0.273685816739148
1580421075.7792,-0.916273746852827,-0.044678416113527,-0.271244373235676
1580421075.7832,-0.917250324254216,-0.0437018387121384,-0.273685816739148
1580421075.78719,-0.926039520866713,-0.0432135500114441,-0.271244373235676
1580421075.79119,-0.932387273975738,-0.0407721065079727,-0.267826352330816
1580421075.7952,-0.935805294880598,-0.0393072404058898,-0.262455176623179
1580421075.79919,-0.937758449683376,-0.0422369726100555,-0.263431754024568
1580421075.80318,-0.940688181887541,-0.0407721065079727,-0.259037155718319
1580421075.80718,-0.946547646295873,-0.0437018387121384,-0.260013733119708
1580421075.81117,-0.945571068894484,-0.0451667048142212,-0.258548867017625
1580421075.81517,-0.952895399404898,-0.0451667048142212,-0.255619134813459
1580421075.81916,-0.957778286411841,-0.0441901274128327,-0.259525444419014
1580421075.82315,-0.964126039520867,-0.0417486839093613,-0.261478599221791
1580421075.82715,-0.96559090562295,-0.0349126420996413,-0.265384908827345
1580421075.83114,-0.966567483024338,-0.0339360646982527,-0.265384908827345
1580421075.83514,-0.966079194323644,-0.0319829098954756,-0.261966887922485
1580421075.83913,-0.962661173418784,-0.0339360646982527,-0.257572289616236
1580421075.84312,-0.963149462119478,-0.0388189517051956,-0.260013733119708
1580421075.84712,-0.957289997711147,-0.0476081483176927,-0.256107423514154
1580421075.85111,-0.952895399404898,-0.0544441901274126,-0.251224536507211
1580421075.85511,-0.947035934996567,-0.0573739223315783,-0.246341649500266
1580421075.8591,-0.94166475928893,-0.0617685206378269,-0.237064164187075
1580421075.86309,-0.939711604486153,-0.0646982528419926,-0.233646143282215
1580421075.86709,-0.935317006179904,-0.060303654535744,-0.23315785458152
1580421075.87108,-0.932875562676433,-0.0524910353246355,-0.231692988479438
1580421075.87506,-0.926039520866713,-0.0461432822156098,-0.232181277180132
1580421075.87906,-0.922621499961853,-0.0393072404058898,-0.233646143282215
1580421075.88305,-0.916273746852827,-0.0314946211947813,-0.231204699778743
1580421075.88704,-0.914808880750744,-0.0271000228885327,-0.230716411078049
1580421075.89104,-0.91773861295491,-0.0236820019836728,-0.237064164187075
1580421075.89503,-0.923598077363241,-0.0202639810788128,-0.240482185091935
1580421075.89902,-0.934340428778516,-0.0236820019836728,-0.2434119172961
1580421075.90302,-0.946547646295873,-0.0212405584802013,-0.252689402609294
1580421075.90701,-0.95875486381323,-0.0207522697795071,-0.254642557412071
1580421075.91101,-0.968032349126421,-0.0192874036774242,-0.258060578316931
1580421075.915,-0.972915236133364,-0.0202639810788128,-0.254154268711376
1580421075.91899,-0.978774700541695,-0.0158693827725642,-0.247806515602349
1580421075.92299,-0.980727855344472,-0.0144045166704814,-0.253177691309988
1580421075.92698,-0.976821545738918,-0.0163576714732585,-0.254154268711376
1580421075.93098,-0.973891813534753,-0.0144045166704814,-0.257084000915542
1580421075.93497,-0.961196307316701,-0.0173342488746471,-0.254154268711376
1580421075.93896,-0.953871976806287,-0.0183108262760356,-0.260502021820402
1580421075.94296,-0.94166475928893,-0.0212405584802013,-0.269779507133594
1580421075.94695,-0.93824673838407,-0.0192874036774242,-0.269291218432899
1580421075.95095,-0.940199893186847,-0.0207522697795071,-0.269779507133594
1580421075.95496,-0.944594491493095,-0.0212405584802013,-0.276615548943314
1580421075.95895,-0.946547646295873,-0.0256351567864499,-0.279545281147479
1580421075.96294,-0.947035934996567,-0.0285648889906156,-0.278568703746091
1580421075.96694,-0.946547646295873,-0.0358892195010299,-0.274662394140536
1580421075.97093,-0.947035934996567,-0.0417486839093613,-0.267338063630122
1580421075.97493,-0.951430533302815,-0.0515144579232469,-0.254154268711376
1580421075.97892,-0.953383688105593,-0.0627450980392155,-0.241458762493323
1580421075.98291,-0.957778286411841,-0.0656748302433812,-0.231692988479438
1580421075.98691,-0.956313420309758,-0.0754406042572668,-0.229251544975966
1580421075.9909,-0.954360265506981,-0.0754406042572668,-0.237064164187075
1580421075.9949,-0.957778286411841,-0.073975738155184,-0.235599298084992
1580421075.99889,-0.966567483024338,-0.0642099641412983,-0.242923628595406
1580421076.00288,-0.974380102235447,-0.0515144579232469,-0.256595712214848
1580421076.00688,-0.994399938963912,-0.0354009308003356,-0.278080415045396
1580421076.01087,-1.01051346608682,-0.0227054245822842,-0.287846189059282
1580421076.01487,-1.01832608529793,-0.0207522697795071,-0.297611963073168
1580421076.01886,-1.02223239490349,-0.0207522697795071,-0.297611963073168
1580421076.02285,-1.02565041580835,-0.0212405584802013,-0.290775921263448
1580421076.02685,-1.0212558175021,-0.0266117341878385,-0.278080415045396
1580421076.03084,-1.01539635309377,-0.0334477759975584,-0.259037155718319
1580421076.03482,-1.00904859998474,-0.0393072404058898,-0.245853360799572
1580421076.03881,-0.991470206759747,-0.0466315709163041,-0.239017318989852
1580421076.04281,-0.978286411841001,-0.0520027466239412,-0.234134431982909
1580421076.0468,-0.965102616922255,-0.0520027466239412,-0.223392080567635
1580421076.0508,-0.953871976806287,-0.0495613031204698,-0.220950637064163
1580421076.05479,-0.949477378500038,-0.0437018387121384,-0.224368657969023
1580421076.05878,-0.939223315785458,-0.0358892195010299,-0.233646143282215
1580421076.06278,-0.939223315785458,-0.0227054245822842,-0.240482185091935
1580421076.06677,-0.942153047989624,-0.0163576714732585,-0.248294804303043
1580421076.07077,-0.949965667200733,-0.0144045166704814,-0.250247959105822
1580421076.07476,-0.961684596017395,-0.0158693827725642,-0.254154268711376
1580421076.07875,-0.968032349126421,-0.0251468680857556,-0.257084000915542
1580421076.08275,-0.97242694743267,-0.031006332494087,-0.261966887922485
1580421076.08674,-0.976333257038224,-0.0339360646982527,-0.255130846112765
1580421076.09074,-0.986587319752804,-0.0368657969024184,-0.251712825207905
1580421076.09473,-1.00563057907988,-0.0319829098954756,-0.245853360799572
1580421076.09872,-1.02565041580835,-0.0290531776913099,-0.253665980010682
1580421076.10272,-1.0466468299382,-0.0256351567864499,-0.260990310521096
1580421076.10671,-1.06178377965972,-0.0271000228885327,-0.278568703746091
1580421076.11071,-1.07496757457847,-0.0222171358815899,-0.280521858548868
1580421076.11471,-1.07887388418402,-0.0178225375753414,-0.282475013351645
1580421076.11871,-1.08619821469444,-0.0144045166704814,-0.289311055161365
1580421076.1227,-1.08229190508888,-0.0207522697795071,-0.287846189059282
1580421076.1267,-1.07936217288472,-0.0314946211947813,-0.282963302052339
1580421076.13069,-1.07057297627222,-0.0490730144197755,-0.277103837644008
1580421076.13469,-1.05787747005417,-0.0656748302433812,-0.272220950637065
1580421076.13868,-1.04322880903334,-0.0783703364614325,-0.261966887922485
1580421076.14267,-1.02906843671321,-0.0842298008697639,-0.262455176623179
1580421076.14667,-1.01441977569238,-0.0847180895704582,-0.249271381704432
1580421076.15066,-1.00660715648127,-0.0866712443732354,-0.24682993820096
1580421076.15465,-0.994888227664607,-0.0871595330739297,-0.243900205996795
1580421076.15865,-0.981704432745861,-0.0910658426794839,-0.242923628595406
1580421076.16264,-0.972915236133364,-0.10083161669337,-0.237552452887769
1580421076.16664,-0.970473792629893,-0.107179369802395,-0.245365072098878
1580421076.17063,-0.966567483024338,-0.114991989013504,-0.237064164187075
1580421076.17462,-0.964614328221561,-0.11450370031281,-0.234622720683603
1580421076.17862,-0.963637750820173,-0.112062256809338,-0.234134431982909
1580421076.18261,-0.967055771725033,-0.105714503700312,-0.232669565880826
1580421076.18661,-0.963149462119478,-0.0949721522850382,-0.224368657969023
1580421076.1906,-0.971938658731975,-0.0793469138628211,-0.231692988479438
1580421076.19458,-0.981216144045167,-0.0598153658350498,-0.237552452887769
1580421076.19857,-0.98951705195697,-0.0383306630045013,-0.239017318989852
1580421076.20257,-0.998794537270161,-0.0144045166704814,-0.236087586785686
1580421076.20656,-1.00611886778058,0.00415045395590141,-0.241947051194018
1580421076.21056,-1.01344319829099,0.0227054245822842,-0.242923628595406
1580421076.21455,-1.01881437399863,0.0373540856031127,-0.242435339894712
1580421076.21854,-1.02565041580835,0.0437018387121384,-0.243900205996795
1580421076.22254,-1.03199816891737,0.0485847257190812,-0.248783093003738
1580421076.22653,-1.03590447852293,0.0407721065079727,-0.249759670405126
1580421076.23053,-1.03736934462501,0.0441901274128327,-0.253665980010682
1580421076.23452,-1.03590447852293,0.0319829098954756,-0.251712825207905
1580421076.23851,-1.0295567254139,0.024170290684367,-0.241458762493323
1580421076.24251,-1.01832608529793,0.0114747844663157,-0.237064164187075
1580421076.2465,-1.00904859998474,-0.00122072175173571,-0.227298390173189
1580421076.2505,-0.990005340657664,-0.00805676356145568,-0.219974059662775
1580421076.25449,-0.96900892652781,-0.0168459601739528,-0.218509193560692
1580421076.25848,-0.951430533302815,-0.024170290684367,-0.212649729152361
1580421076.26248,-0.942641336690318,-0.0295414663920042,-0.209231708247501
1580421076.26647,-0.944594491493095,-0.0354009308003356,-0.211184863050278
1580421076.27046,-0.94508278019379,-0.0417486839093613,-0.212649729152361
1580421076.27447,-0.950942244602121,-0.0529793240253298,-0.215091172655832
1580421076.27847,-0.958266575112535,-0.0646982528419926,-0.213138017853055
1580421076.28246,-0.96217288471809,-0.0764171816586554,-0.206790264744029
1580421076.28646,-0.961684596017395,-0.0891126878767068,-0.199954222934309
1580421076.29045,-0.957289997711147,-0.10424963759823,-0.191653315022506
1580421076.29445,-0.960708018616007,-0.109620813305867,-0.185305561913481
1580421076.29844,-0.959243152513924,-0.115968566414892,-0.180910963607232
1580421076.30243,-0.959243152513924,-0.111573968108644,-0.177492942702372
1580421076.30643,-0.957778286411841,-0.102296482795452,-0.176516365300984
1580421076.31042,-0.960219729915313,-0.0896009765774011,-0.174563210498206
1580421076.31441,-0.968032349126421,-0.0754406042572668,-0.175051499198901
1580421076.31841,-0.967544060425727,-0.0549324788281069,-0.173098344396124
1580421076.3224,-0.967544060425727,-0.0368657969024184,-0.167238879987792
1580421076.3264,-0.971450370031281,-0.0187991149767299,-0.166262302586404
1580421076.33039,-0.980239566643778,-0.0075684748607614,-0.180422674906538
1580421076.33438,-0.98268101014725,0.0046387426565957,-0.199465934233615
1580421076.33838,-0.980239566643778,0.00854505226214997,-0.201907377737086
1580421076.34237,-0.980727855344472,0.01196307316701,-0.204837109941252
1580421076.34637,-0.972915236133364,0.0100099183642328,-0.205813687342641
1580421076.35036,-0.968520637827115,0.0075684748607614,-0.199954222934309
1580421076.35434,-0.95875486381323,0.00805676356145568,-0.198489356832226
1580421076.35833,-0.953871976806287,-0.000244144350347142,-0.194094758525978
1580421076.36233,-0.955825131609064,-0.00170901045242999,-0.191165026321812
1580421076.36632,-0.96559090562295,-0.00170901045242999,-0.190188448920424
1580421076.37031,-0.988540474555581,-0.00366216525520713,-0.198001068131532
1580421076.37431,-1.01539635309377,-0.00952162966353853,-0.211673151750972
1580421076.3783,-1.04615854123751,-0.0183108262760356,-0.219974059662775
1580421076.3823,-1.06764324406805,-0.0388189517051956,-0.223880369268329
1580421076.38629,-1.08619821469444,-0.0642099641412983,-0.218020904859998
1580421076.39029,-1.09254596780346,-0.0935072861829553,-0.210696574349583
1580421076.39428,-1.09059281300069,-0.122804608224612,-0.197024490730143
1580421076.39827,-1.09010452429999,-0.151613641565575,-0.189211871519035
1580421076.40227,-1.08375677119097,-0.172610055695429,-0.183352407110704
1580421076.40626,-1.07399099717708,-0.185305561913481,-0.176028076600289
1580421076.41025,-1.0642252231632,-0.193118181124589,-0.168703746089875
1580421076.41425,-1.05592431525139,-0.189700160219729,-0.164797436484321
1580421076.41824,-1.04274052033265,-0.183352407110704,-0.158449683375295
1580421076.42224,-1.0300450141146,-0.178469520103761,-0.152590218966964
1580421076.42623,-1.02174410620279,-0.175539787899595,-0.151613641565575
1580421076.43022,-1.0129549095903,-0.173586633096818,-0.150148775463492
1580421076.43423,-1.00807202258335,-0.171633478294041,-0.146242465857938
1580421076.43823,-1.0041657129778,-0.160891126878766,-0.146242465857938
1580421076.44222,-0.998794537270161,-0.145265888456549,-0.145265888456549
1580421076.44622,-0.99977111467155,-0.125734340428778,-0.142824444953078
1580421076.45021,-0.998306248569467,-0.0979018844892039,-0.147707331960021
1580421076.4542,-1.00514229037919,-0.0681162737468526,-0.150148775463492
1580421076.4582,-1.00709544518196,-0.0383306630045013,-0.152590218966964
1580421076.46219,-1.00318913557641,-0.0153810940718699,-0.151125352864881
1580421076.46619,-1.00123598077363,0.00659189745937283,-0.145754177157244
1580421076.47018,-1.00025940337224,0.0266117341878385,-0.145754177157244
1580421076.47417,-1.00074769207294,0.0451667048142212,-0.143312733653772
1580421076.47817,-0.998794537270161,0.0549324788281069,-0.143801022354467
1580421076.48216,-0.99635309376669,0.0700694285496297,-0.157473105973907
1580421076.48616,-0.995376516365301,0.073975738155184,-0.160891126878766
1580421076.49015,-0.990981918059052,0.0817883573662925,-0.165774013885709
1580421076.49414,-0.98951705195697,0.0881361104753182,-0.172610055695429
1580421076.49814,-0.987563897154192,0.0876478217746239,-0.170168612191958
1580421076.50213,-0.983169298847944,0.0842298008697639,-0.171145189593346
1580421076.50613,-0.983169298847944,0.0837415121690697,-0.169680323491264
1580421076.51012,-0.980239566643778,0.0837415121690697,-0.169680323491264
1580421076.5141,-0.979751277943084,0.0754406042572668,-0.167238879987792
1580421076.51809,-0.976821545738918,0.0710460059510183,-0.165285725185015
1580421076.52209,-0.980239566643778,0.0651865415426869,-0.163332570382238
1580421076.52608,-0.97926298924239,0.0544441901274126,-0.162355992980849
1580421076.53007,-0.980727855344472,0.0417486839093613,-0.157961394674601
1580421076.53407,-0.97926298924239,0.0290531776913099,-0.156984817273212
1580421076.53806,-0.980239566643778,0.0124513618677042,-0.152590218966964
1580421076.54206,-0.98268101014725,-0.00268558785381856,-0.151125352864881
1580421076.54605,-0.984634164950027,-0.00952162966353853,-0.145754177157244
1580421076.55005,-0.987563897154192,-0.0222171358815899,-0.142824444953078
1580421076.55404,-0.992446784161135,-0.034424353398947,-0.140383001449607
1580421076.55803,-0.99293507286183,-0.0432135500114441,-0.140383001449607
1580421076.56203,-0.999282825970855,-0.0520027466239412,-0.133546959639887
1580421076.56602,-1.00318913557641,-0.0593270771343555,-0.126222629129472
1580421076.57001,-1.00514229037919,-0.0661631189440754,-0.120851453421835
1580421076.57401,-1.00758373388266,-0.0729991607537954,-0.125246051728084
1580421076.578,-1.00709544518196,-0.0769054703593497,-0.12475776302739
1580421076.582,-1.00904859998474,-0.0832532234683754,-0.128175783932249
1580421076.58599,-1.00953688868544,-0.0866712443732354,-0.133546959639887
1580421076.58998,-1.00904859998474,-0.0900892652780954,-0.135988403143358
1580421076.59399,-1.00709544518196,-0.0949721522850382,-0.143312733653772
1580421076.59799,-1.00270084687572,-0.0925307087815668,-0.139406424048218
1580421076.60198,-1.00318913557641,-0.0910658426794839,-0.140871290150301
1580421076.60598,-1.00172426947433,-0.0852063782711525,-0.141847867551689
1580421076.60997,-0.99293507286183,-0.0793469138628211,-0.145265888456549
1580421076.61396,-0.990981918059052,-0.073975738155184,-0.148683909361409
1580421076.61796,-0.991470206759747,-0.0700694285496297,-0.145265888456549
1580421076.62195,-0.987075608453498,-0.0632333867399097,-0.151613641565575
1580421076.62595,-0.986587319752804,-0.0510261692225527,-0.154543373769741
1580421076.62994,-0.989028763256275,-0.0388189517051956,-0.152101930266269
1580421076.63393,-0.987075608453498,-0.027588311589227,-0.152590218966964
1580421076.63793,-0.992446784161135,-0.0197756923781185,-0.156984817273212
1580421076.64192,-0.985610742351415,-0.00708018616006711,-0.160402838178072
1580421076.64592,-0.990005340657664,0.000244144350347142,-0.160891126878766
1580421076.64991,-0.990005340657664,0.00708018616006711,-0.166750591287098
1580421076.6539,-0.990981918059052,0.0100099183642328,-0.170168612191958
1580421076.6579,-0.990493629358358,0.0144045166704814,-0.180910963607232
1580421076.66189,-0.990493629358358,0.0187991149767299,-0.185305561913481
1580421076.66589,-0.990005340657664,0.0266117341878385,-0.194094758525978
1580421076.66988,-0.990493629358358,0.0319829098954756,-0.196047913328755
1580421076.67386,-0.990493629358358,0.0339360646982527,-0.198489356832226
1580421076.67785,-0.985610742351415,0.0295414663920042,-0.195559624628061
1580421076.68185,-0.982192721446555,0.0236820019836728,-0.191165026321812
1580421076.68584,-0.985610742351415,0.0173342488746471,-0.186770428015564
1580421076.68983,-0.987075608453498,0.01196307316701,-0.186770428015564
1580421076.69383,-0.988540474555581,0.00659189745937283,-0.185305561913481
1580421076.69782,-0.987563897154192,0.000732433051041426,-0.184328984512092
1580421076.70182,-0.985122453650721,-0.00512703135728998,-0.180422674906538
1580421076.70581,-0.983657587548638,-0.0114747844663157,-0.179446097505149
1580421076.7098,-0.97926298924239,-0.0212405584802013,-0.184328984512092
1580421076.7138,-0.97242694743267,-0.0349126420996413,-0.182375829709315
1580421076.71779,-0.967544060425727,-0.048096437018387,-0.187747005416952
1580421076.72179,-0.967544060425727,-0.0520027466239412,-0.184328984512092
1580421076.72578,-0.970962081330587,-0.0642099641412983,-0.189700160219729
1580421076.72977,-0.972915236133364,-0.0769054703593497,-0.183352407110704
1580421076.73377,-0.973891813534753,-0.0959487296864268,-0.182375829709315
1580421076.73776,-0.97584496833753,-0.108644235904478,-0.180910963607232
1580421076.74176,-0.981216144045167,-0.12133974212253,-0.183840695811398
1580421076.74575,-0.986587319752804,-0.122316319523918,-0.185793850614175
1580421076.74974,-0.98609903105211,-0.12133974212253,-0.184328984512092
1580421076.75375,-0.989028763256275,-0.115968566414892,-0.186770428015564
1580421076.75775,-0.989028763256275,-0.11108567940795,-0.190188448920424
1580421076.76174,-0.987563897154192,-0.106691081101701,-0.193118181124589
1580421076.76573,-0.98268101014725,-0.0988784618905925,-0.192141603723201
1580421076.76973,-0.983169298847944,-0.0905775539787896,-0.193606469825284
1580421076.77372,-0.981704432745861,-0.0876478217746239,-0.192141603723201
1580421076.77772,-0.981704432745861,-0.0764171816586554,-0.189211871519035
1580421076.78171,-0.97926298924239,-0.0710460059510183,-0.186770428015564
1580421076.7857,-0.979751277943084,-0.0588387884336612,-0.194094758525978
1580421076.7897,-0.974380102235447,-0.0485847257190812,-0.192141603723201
1580421076.79369,-0.977309834439613,-0.0427252613107498,-0.193118181124589
1580421076.79769,-0.974868390936141,-0.0349126420996413,-0.198001068131532
1580421076.80168,-0.968520637827115,-0.0300297550926985,-0.208255130846112
1580421076.80568,-0.963637750820173,-0.0261234454871442,-0.215091172655832
1580421076.80967,-0.957778286411841,-0.0251468680857556,-0.222415503166246
1580421076.81366,-0.957778286411841,-0.0207522697795071,-0.227298390173189
1580421076.81766,-0.957289997711147,-0.0139162279697871,-0.228274967574578
1580421076.82165,-0.958266575112535,-0.0163576714732585,-0.230716411078049
1580421076.82564,-0.961196307316701,-0.0163576714732585,-0.226321812771801
1580421076.82964,-0.966567483024338,-0.0192874036774242,-0.220950637064163
1580421076.83365,-0.964126039520867,-0.0197756923781185,-0.213626306553749
1580421076.83764,-0.968520637827115,-0.0202639810788128,-0.217532616159303
1580421076.84164,-0.968520637827115,-0.0192874036774242,-0.208743419546806
1580421076.84563,-0.973403524834058,-0.0158693827725642,-0.208743419546806
1580421076.84962,-0.975356679636835,-0.0139162279697871,-0.205813687342641
1580421076.85362,-0.976333257038224,-0.0148928053711757,-0.202883955138475
1580421076.85761,-0.983169298847944,-0.0178225375753414,-0.202883955138475
1580421076.86161,-0.979751277943084,-0.0207522697795071,-0.204348821240558
1580421076.8656,-0.980239566643778,-0.0212405584802013,-0.210208285648889
1580421076.86959,-0.980727855344472,-0.0290531776913099,-0.208255130846112
1580421076.87359,-0.984634164950027,-0.0300297550926985,-0.204837109941252
1580421076.87758,-0.983657587548638,-0.0349126420996413,-0.200930800335698
1580421076.88158,-0.988540474555581,-0.0397955291065841,-0.198977645532921
1580421076.88557,-0.990005340657664,-0.0441901274128327,-0.191165026321812
1580421076.88956,-0.98951705195697,-0.0544441901274126,-0.188723582818341
1580421076.89356,-0.991470206759747,-0.0593270771343555,-0.185793850614175
1580421076.89755,-0.994399938963912,-0.0676279850461583,-0.182864118410009
1580421076.90155,-0.997329671168078,-0.0681162737468526,-0.187747005416952
1580421076.90554,-0.996841382467384,-0.0744640268558783,-0.184328984512092
1580421076.90953,-0.998306248569467,-0.0725108720531011,-0.182375829709315
1580421076.91351,-0.998794537270161,-0.0690928511482412,-0.177981231403066
1580421076.91751,-1.00172426947433,-0.0700694285496297,-0.177981231403066
1580421076.9215,-0.997817959868772,-0.0676279850461583,-0.178957808804455
1580421076.92549,-0.995864805065995,-0.073975738155184,-0.179446097505149
1580421076.92949,-0.993423361562524,-0.0744640268558783,-0.186770428015564
1580421076.93348,-0.990005340657664,-0.0700694285496297,-0.181399252307926
1580421076.93748,-0.987563897154192,-0.0656748302433812,-0.185793850614175
1580421076.94147,-0.984634164950027,-0.063721675440604,-0.182864118410009
1580421076.94546,-0.98268101014725,-0.0573739223315783,-0.181887541008621
1580421076.94946,-0.980727855344472,-0.0573739223315783,-0.180422674906538
1580421076.95345,-0.980239566643778,-0.0563973449301898,-0.179934386205844
1580421076.95745,-0.983169298847944,-0.0510261692225527,-0.184328984512092
1580421076.96144,-0.983657587548638,-0.0520027466239412,-0.188235294117646
1580421076.96544,-0.984145876249332,-0.0515144579232469,-0.188723582818341
1580421076.96943,-0.98268101014725,-0.0500495918211641,-0.195071335927366
1580421076.97342,-0.981216144045167,-0.0485847257190812,-0.205325398641946
1580421076.97742,-0.985122453650721,-0.0451667048142212,-0.210208285648889
1580421076.98141,-0.987563897154192,-0.0388189517051956,-0.213626306553749
1580421076.9854,-0.989028763256275,-0.0397955291065841,-0.212649729152361
1580421076.9894,-0.98609903105211,-0.041260395208667,-0.205813687342641
1580421076.99341,-0.98609903105211,-0.0407721065079727,-0.210208285648889
1580421076.9974,-0.98609903105211,-0.0363775082017241,-0.210696574349583
1580421077.0014,-0.983657587548638,-0.0339360646982527,-0.206790264744029
1580421077.00539,-0.983169298847944,-0.0290531776913099,-0.203372243839169
1580421077.00938,-0.983657587548638,-0.0261234454871442,-0.202883955138475
1580421077.01338,-0.982192721446555,-0.0236820019836728,-0.203860532539863
1580421077.01737,-0.97926298924239,-0.0256351567864499,-0.204837109941252
1580421077.02137,-0.977798123140307,-0.0271000228885327,-0.200442511635003
1580421077.02536,-0.976333257038224,-0.0256351567864499,-0.204837109941252
1580421077.02935,-0.973403524834058,-0.0271000228885327,-0.204837109941252
1580421077.03335,-0.97584496833753,-0.027588311589227,-0.213138017853055
1580421077.03734,-0.97926298924239,-0.0246585793850613,-0.216556038757915
1580421077.04134,-0.984145876249332,-0.0231937132829785,-0.215091172655832
1580421077.04533,-0.986587319752804,-0.0236820019836728,-0.218020904859998
1580421077.04932,-0.987563897154192,-0.0251468680857556,-0.218020904859998
1580421077.05332,-0.988052185854887,-0.0295414663920042,-0.211184863050278
1580421077.05731,-0.985610742351415,-0.0339360646982527,-0.219485770962081
1580421077.06131,-0.98951705195697,-0.0354009308003356,-0.217044327458609
1580421077.0653,-0.991470206759747,-0.0397955291065841,-0.220462348363469
1580421077.06929,-0.992446784161135,-0.0397955291065841,-0.223392080567635
1580421077.07327,-0.993911650263218,-0.0432135500114441,-0.222415503166246
1580421077.07727,-0.99293507286183,-0.0461432822156098,-0.227298390173189
1580421077.08126,-0.987563897154192,-0.0500495918211641,-0.222903791866941
1580421077.08525,-0.980239566643778,-0.0534676127260241,-0.220950637064163
1580421077.08925,-0.975356679636835,-0.0573739223315783,-0.218509193560692
1580421077.09324,-0.977798123140307,-0.060303654535744,-0.217044327458609
1580421077.09724,-0.981704432745861,-0.0583504997329669,-0.214602883955138
1580421077.10123,-0.984634164950027,-0.0583504997329669,-0.216067750057221
1580421077.10522,-0.991958495460441,-0.0520027466239412,-0.214114595254443
1580421077.10922,-0.996841382467384,-0.0534676127260241,-0.218020904859998
1580421077.11321,-0.99293507286183,-0.0578622110322726,-0.213138017853055
1580421077.11721,-0.993423361562524,-0.063721675440604,-0.210696574349583
1580421077.1212,-0.994888227664607,-0.0710460059510183,-0.205325398641946
1580421077.12519,-0.998306248569467,-0.073975738155184,-0.205813687342641
1580421077.12919,-1.00563057907988,-0.0764171816586554,-0.208255130846112
1580421077.13318,-1.0124666208896,-0.0759288929579611,-0.205813687342641
1580421077.13718,-1.01930266269932,-0.0720225833524069,-0.206790264744029
1580421077.14117,-1.0207675288014,-0.0764171816586554,-0.200930800335698
1580421077.14516,-1.02320897230488,-0.0817883573662925,-0.188235294117646
1580421077.14916,-1.02320897230488,-0.0861829556725411,-0.181887541008621
1580421077.15317,-1.02369726100557,-0.0900892652780954,-0.174074921797512
1580421077.15716,-1.02467383840696,-0.0891126878767068,-0.174563210498206
1580421077.16115,-1.02809185931182,-0.0915541313801782,-0.180422674906538
1580421077.16515,-1.02662699320974,-0.0866712443732354,-0.183840695811398
1580421077.16914,-1.02809185931182,-0.0827649347676811,-0.192141603723201
1580421077.17314,-1.03590447852293,-0.0769054703593497,-0.196536202029449
1580421077.17713,-1.03981078812848,-0.073975738155184,-0.203860532539863
1580421077.18112,-1.03346303501946,-0.0700694285496297,-0.212649729152361
1580421077.18512,-1.02906843671321,-0.0715342946517126,-0.218020904859998
1580421077.18911,-1.01979095140002,-0.0754406042572668,-0.218509193560692
1580421077.19311,-1.01686121919585,-0.0793469138628211,-0.224856946669718
1580421077.1971,-1.01637293049516,-0.080811779964904,-0.233646143282215
1580421077.20109,-1.01637293049516,-0.0798352025635154,-0.240970473792629
1580421077.20509,-1.01344319829099,-0.0769054703593497,-0.245853360799572
1580421077.20908,-1.01490806439307,-0.0754406042572668,-0.246341649500266
1580421077.21308,-1.01783779659724,-0.0788586251621268,-0.249759670405126
1580421077.21707,-1.02809185931182,-0.0734874494544897,-0.249759670405126
1580421077.22107,-1.04029907682918,-0.0681162737468526,-0.260502021820402
1580421077.22506,-1.05201800564584,-0.0554207675288012,-0.274662394140536
1580421077.22905,-1.06715495536736,-0.0441901274128327,-0.279545281147479
1580421077.23303,-1.07887388418402,-0.0339360646982527,-0.291264209964142
1580421077.23703,-1.09694056610971,-0.0197756923781185,-0.301518272678722
1580421077.24102,-1.10865949492637,-0.0109864957656214,-0.305912870984971
1580421077.24501,-1.11256580453193,-0.00512703135728998,-0.304448004882888
1580421077.24901,-1.10524147402151,0.000732433051041426,-0.298588540474556
1580421077.253,-1.08424505989166,-0.00219729915312428,-0.293705653467613
1580421077.257,-1.06861982146944,-0.00268558785381856,-0.288334477759976
1580421077.26099,-1.05836575875486,-0.00317387655451284,-0.287357900358588
1580421077.26498,-1.05494773785,0.0046387426565957,-0.285893034256505
1580421077.26898,-1.05006485084306,0.00415045395590141,-0.291752498664836
1580421077.27297,-1.0378576333257,0.00659189745937283,-0.295170519569696
1580421077.27697,-1.02906843671321,0.00366216525520713,-0.297123674372473
1580421077.28096,-1.02613870450904,-0.00610360875867855,-0.303959716182193
1580421077.28495,-1.03688105592432,-0.0158693827725642,-0.303471427481499
1580421077.28895,-1.05348287174792,-0.0251468680857556,-0.306401159685665
1580421077.29294,-1.07350270847639,-0.0300297550926985,-0.312260624093996
1580421077.29694,-1.08766308079652,-0.0383306630045013,-0.313725490196079
1580421077.30093,-1.08863965819791,-0.0461432822156098,-0.321538109407188
1580421077.30492,-1.07692072938125,-0.0612802319371326,-0.321538109407188
1580421077.30892,-1.06471351186389,-0.0759288929579611,-0.315678644998856
1580421077.31293,-1.05494773785,-0.0915541313801782,-0.320073243305105
1580421077.31692,-1.05983062485695,-0.10083161669337,-0.305424582284276
1580421077.32091,-1.07496757457847,-0.0959487296864268,-0.290775921263448
1580421077.32491,-1.09449912260624,-0.0856946669718468,-0.276615548943314
1580421077.3289,-1.10914778362707,-0.0778820477607383,-0.262943465323874
1580421077.3329,-1.1233081559472,-0.0607919432364383,-0.257084000915542
1580421077.33689,-1.13160906385901,-0.0500495918211641,-0.250736247806516
1580421077.34088,-1.15016403448539,-0.0363775082017241,-0.253177691309988
1580421077.34488,-1.15895323109789,-0.027588311589227,-0.262943465323874
1580421077.34887,-1.15895323109789,-0.0134279392690928,-0.268314641031511
1580421077.35287,-1.15944151979858,-0.00561532005798426,-0.268802929732205
1580421077.35686,-1.14528114747845,-0.00854505226214997,-0.265384908827345
1580421077.36085,-1.12867933165484,-0.0153810940718699,-0.261478599221791
1580421077.36485,-1.1067063401236,-0.0261234454871442,-0.260502021820402
1580421077.36884,-1.08570992599374,-0.034424353398947,-0.259037155718319
1580421077.37284,-1.06520180056458,-0.041260395208667,-0.259525444419014
1580421077.37683,-1.05494773785,-0.0500495918211641,-0.261966887922485
1580421077.38083,-1.0466468299382,-0.0578622110322726,-0.257084000915542
1580421077.38482,-1.0378576333257,-0.0661631189440754,-0.253665980010682
1580421077.38881,-1.03443961242084,-0.0666514076447697,-0.23999389639124
1580421077.39279,-1.02272068360418,-0.0690928511482412,-0.230228122377355
1580421077.39679,-1.01539635309377,-0.0690928511482412,-0.219485770962081
1580421077.40078,-1.00514229037919,-0.0817883573662925,-0.217044327458609
1580421077.40477,-0.994888227664607,-0.0891126878767068,-0.220950637064163
1580421077.40877,-0.975356679636835,-0.0959487296864268,-0.222903791866941
1580421077.41276,-0.960708018616007,-0.0993667505912867,-0.230228122377355
1580421077.41675,-0.943617914091707,-0.106691081101701,-0.231692988479438
1580421077.42075,-0.929945830472267,-0.106202792401007,-0.232669565880826
1580421077.42474,-0.919691767757687,-0.111573968108644,-0.231692988479438
1580421077.42874,-0.91090257114519,-0.106202792401007,-0.23657587548638
1580421077.43273,-0.906019684138247,-0.096437018387121,-0.237552452887769
1580421077.43672,-0.90406652933547,-0.0861829556725411,-0.243900205996795
1580421077.44072,-0.898695353627833,-0.0754406042572668,-0.245853360799572
1580421077.44471,-0.892835889219501,-0.063721675440604,-0.241947051194018
1580421077.44871,-0.885999847409781,-0.0490730144197755,-0.239017318989852
1580421077.4527,-0.884046692607004,-0.0339360646982527,-0.236087586785686
1580421077.45669,-0.885023270008393,-0.0148928053711757,-0.234134431982909
1580421077.46069,-0.89381246662089,0.000732433051041426,-0.240482185091935
1580421077.46468,-0.900160219729916,0.0153810940718699,-0.244388494697489
1580421077.46868,-0.896742198825056,0.0300297550926985,-0.250736247806516
1580421077.47269,-0.89723048752575,0.0334477759975584,-0.250247959105822
1580421077.47668,-0.894300755321584,0.0407721065079727,-0.247318226901655
1580421077.48067,-0.89039444571603,0.0471198596169984,-0.237064164187075
1580421077.48467,-0.89039444571603,0.0441901274128327,-0.230716411078049
1580421077.48866,-0.881116960402839,0.0383306630045013,-0.225345235370412
1580421077.49266,-0.869398031586176,0.0305180437933927,-0.223392080567635
1580421077.49665,-0.843518730449379,0.0173342488746471,-0.221438925764858
1580421077.50064,-0.840588998245213,0.00561532005798426,-0.219485770962081
1580421077.50464,-0.839612420843824,-0.000244144350347142,-0.218509193560692
1580421077.50863,-0.833264667734799,0.000244144350347142,-0.218997482261386
1580421077.51263,-0.831311512932022,-0.00268558785381856,-0.226321812771801
1580421077.51662,-0.830823224231327,-0.0046387426565957,-0.229739833676661
1580421077.52061,-0.827893492027162,-0.00903334096284425,-0.230716411078049
1580421077.52461,-0.824963759822996,-0.0109864957656214,-0.235111009384298
1580421077.5286,-0.822522316319525,-0.0139162279697871,-0.225345235370412
1580421077.5326,-0.824963759822996,-0.00415045395590141,-0.232181277180132
1580421077.53659,-0.828381780727856,-0.000244144350347142,-0.234622720683603
1580421077.54058,-0.827893492027162,0.00122072175173571,-0.239017318989852
1580421077.54458,-0.826916914625773,0.00366216525520713,-0.240970473792629
1580421077.54857,-0.827893492027162,0.00366216525520713,-0.237552452887769
1580421077.55255,-0.830823224231327,0.0046387426565957,-0.237064164187075
1580421077.55655,-0.833752956435493,0.00415045395590141,-0.237552452887769
1580421077.56054,-0.839612420843824,0.000244144350347142,-0.249271381704432
1580421077.56453,-0.846448462653544,-0.00708018616006711,-0.249271381704432
1580421077.56853,-0.850843060959793,-0.0148928053711757,-0.244876783398183
1580421077.57252,-0.855237659266042,-0.0173342488746471,-0.241458762493323
1580421077.57651,-0.862073701075762,-0.0222171358815899,-0.237552452887769
1580421077.58051,-0.864515144579233,-0.0246585793850613,-0.237064164187075
1580421077.5845,-0.869398031586176,-0.0280766002899213,-0.235599298084992
1580421077.5885,-0.87330434119173,-0.0373540856031127,-0.238040741588463
1580421077.59249,-0.879652094300756,-0.0407721065079727,-0.240970473792629
1580421077.59648,-0.885511558709087,-0.0466315709163041,-0.232669565880826
1580421077.60048,-0.889417868314641,-0.0534676127260241,-0.230228122377355
1580421077.60447,-0.89723048752575,-0.0559090562294955,-0.228763256275272
1580421077.60847,-0.901136797131304,-0.0568856336308841,-0.228763256275272
1580421077.61246,-0.911390859845884,-0.0549324788281069,-0.226810101472495
1580421077.61645,-0.91773861295491,-0.0500495918211641,-0.224368657969023
1580421077.62045,-0.926039520866713,-0.0476081483176927,-0.220462348363469
1580421077.62444,-0.928969253070878,-0.0461432822156098,-0.216556038757915
1580421077.62844,-0.937758449683376,-0.0407721065079727,-0.217532616159303
1580421077.63245,-0.943617914091707,-0.0388189517051956,-0.210208285648889
1580421077.63644,-0.952895399404898,-0.0358892195010299,-0.206790264744029
1580421077.64043,-0.956313420309758,-0.041260395208667,-0.199954222934309
1580421077.64443,-0.95875486381323,-0.0407721065079727,-0.191653315022506
1580421077.64842,-0.959731441214618,-0.044678416113527,-0.192141603723201
1580421077.65242,-0.956313420309758,-0.0437018387121384,-0.186282139314869
1580421077.65641,-0.961196307316701,-0.0368657969024184,-0.183352407110704
1580421077.6604,-0.966079194323644,-0.0266117341878385,-0.179446097505149
1580421077.6644,-0.963149462119478,-0.0202639810788128,-0.174074921797512
1580421077.66839,-0.964126039520867,-0.0148928053711757,-0.172610055695429
1580421077.67239,-0.966567483024338,-0.00805676356145568,-0.157961394674601
1580421077.67638,-0.967544060425727,-0.00610360875867855,-0.153078507667658
1580421077.68037,-0.965102616922255,-0.00366216525520713,-0.147707331960021
1580421077.68437,-0.96217288471809,-0.0046387426565957,-0.142824444953078
1580421077.68836,-0.958266575112535,-0.00219729915312428,-0.138918135347524
1580421077.69236,-0.948989089799344,-0.00219729915312428,-0.138918135347524
1580421077.69635,-0.947524223697261,-0.00366216525520713,-0.138918135347524
1580421077.70034,-0.951430533302815,0.00268558785381856,-0.145265888456549
1580421077.70434,-0.950453955901427,0.000732433051041426,-0.149660486762798
1580421077.70833,-0.951430533302815,0.00170901045242999,-0.154543373769741
1580421077.71231,-0.952895399404898,0.0046387426565957,-0.160402838178072
1580421077.7163,-0.954848554207675,0.00561532005798426,-0.168215457389181
1580421077.7203,-0.961684596017395,0.00659189745937283,-0.177981231403066
1580421077.72429,-0.967544060425727,0.00317387655451284,-0.181887541008621
1580421077.72829,-0.968032349126421,0.000244144350347142,-0.190676737621118
1580421077.73228,-0.969497215228504,-0.00854505226214997,-0.195559624628061
1580421077.73627,-0.968520637827115,-0.0168459601739528,-0.201907377737086
1580421077.74027,-0.971450370031281,-0.027588311589227,-0.205325398641946
1580421077.74426,-0.969985503929198,-0.0407721065079727,-0.206301976043335
1580421077.74826,-0.96900892652781,-0.0466315709163041,-0.208743419546806
1580421077.75225,-0.971450370031281,-0.0520027466239412,-0.209719996948195
1580421077.75624,-0.96900892652781,-0.0568856336308841,-0.217532616159303
1580421077.76024,-0.973403524834058,-0.0563973449301898,-0.220462348363469
1580421077.76423,-0.976821545738918,-0.0534676127260241,-0.217044327458609
1580421077.76823,-0.978286411841001,-0.0544441901274126,-0.222903791866941
1580421077.77222,-0.97926298924239,-0.0559090562294955,-0.231204699778743
1580421077.77621,-0.978286411841001,-0.0588387884336612,-0.227298390173189
1580421077.78021,-0.974380102235447,-0.0656748302433812,-0.227786678873883
1580421077.7842,-0.979751277943084,-0.0681162737468526,-0.223392080567635
1580421077.7882,-0.976821545738918,-0.0700694285496297,-0.211673151750972
1580421077.7922,-0.981704432745861,-0.0656748302433812,-0.215091172655832
1580421077.7962,-0.98951705195697,-0.0642099641412983,-0.208743419546806
1580421077.80019,-0.993911650263218,-0.0578622110322726,-0.211673151750972
1580421077.80419,-0.999282825970855,-0.0539559014267184,-0.205813687342641
1580421077.80818,-0.997329671168078,-0.0500495918211641,-0.210208285648889
1580421077.81218,-1.00025940337224,-0.0563973449301898,-0.208255130846112
1580421077.81617,-0.99977111467155,-0.0593270771343555,-0.213138017853055
1580421077.82016,-0.998794537270161,-0.0632333867399097,-0.210696574349583
1580421077.82416,-0.99635309376669,-0.0700694285496297,-0.213626306553749
1580421077.82815,-0.995376516365301,-0.0803234912642097,-0.213626306553749
1580421077.83214,-0.995376516365301,-0.0915541313801782,-0.204348821240558
1580421077.83614,-0.991958495460441,-0.104737926298924,-0.204348821240558
1580421077.84013,-0.994888227664607,-0.11108567940795,-0.201419089036392
1580421077.84413,-1.00123598077363,-0.108155947203784,-0.203860532539863
1580421077.84812,-1.00611886778058,-0.104737926298924,-0.199465934233615
1580421077.85211,-1.01490806439307,-0.0925307087815668,-0.203372243839169
1580421077.85611,-1.02320897230488,-0.0813000686655982,-0.198977645532921
1580421077.8601,-1.02613870450904,-0.0681162737468526,-0.195559624628061
1580421077.8641,-1.03053330281529,-0.0598153658350498,-0.200442511635003
1580421077.86809,-1.03443961242084,-0.0529793240253298,-0.198489356832226
1580421077.87207,-1.03395132372015,-0.0461432822156098,-0.200930800335698
1580421077.87606,-1.04029907682918,-0.0324711985961699,-0.197512779430838
1580421077.88006,-1.04469367513542,-0.0251468680857556,-0.198001068131532
1580421077.88405,-1.0466468299382,-0.0158693827725642,-0.195071335927366
1580421077.88805,-1.04274052033265,-0.0114747844663157,-0.200442511635003
1580421077.89204,-1.03981078812848,-0.00805676356145568,-0.198489356832226
1580421077.89603,-1.03541618982223,-0.00854505226214997,-0.198001068131532
1580421077.90003,-1.03053330281529,-0.0134279392690928,-0.200930800335698
1580421077.90402,-1.0300450141146,-0.0202639810788128,-0.202883955138475
1580421077.90802,-1.02809185931182,-0.0251468680857556,-0.192141603723201
1580421077.91201,-1.02467383840696,-0.031006332494087,-0.198489356832226
1580421077.916,-1.01783779659724,-0.0402838178072784,-0.196536202029449
1580421077.92,-1.01393148699168,-0.0510261692225527,-0.196047913328755
1580421077.92399,-1.01344319829099,-0.0520027466239412,-0.199465934233615
1580421077.92799,-1.01002517738613,-0.0578622110322726,-0.196536202029449
1580421077.93198,-1.00758373388266,-0.0588387884336612,-0.198489356832226
1580421077.93597,-1.00660715648127,-0.0563973449301898,-0.202883955138475
1580421077.93997,-1.00318913557641,-0.0539559014267184,-0.204837109941252
1580421077.94396,-1.0036774242771,-0.044678416113527,-0.209719996948195
1580421077.94796,-1.00074769207294,-0.0397955291065841,-0.214602883955138
1580421077.95196,-0.997817959868772,-0.0427252613107498,-0.213138017853055
1580421077.95596,-0.99293507286183,-0.0393072404058898,-0.217044327458609
1580421077.95995,-0.986587319752804,-0.0402838178072784,-0.219974059662775
1580421077.96395,-0.987563897154192,-0.0461432822156098,-0.224368657969023
1580421077.96794,-0.981704432745861,-0.0490730144197755,-0.220462348363469
1580421077.97194,-0.973891813534753,-0.0549324788281069,-0.224368657969023
1580421077.97593,-0.96900892652781,-0.0598153658350498,-0.234622720683603
1580421077.97992,-0.96217288471809,-0.0617685206378269,-0.229739833676661
1580421077.98392,-0.959243152513924,-0.0695811398489354,-0.23657587548638
1580421077.98791,-0.95191882200351,-0.077393759060044,-0.23999389639124
1580421077.9919,-0.947035934996567,-0.0891126878767068,-0.23999389639124
1580421077.9959,-0.936293583581293,-0.099855039291981,-0.239017318989852
1580421077.99989,-0.927504386968796,-0.103761348897535,-0.235599298084992
1580421078.00389,-0.918226901655604,-0.112550545510032,-0.242923628595406
1580421078.00788,-0.913832303349356,-0.108644235904478,-0.242923628595406
1580421078.01187,-0.913344014648661,-0.102296482795452,-0.24682993820096
1580421078.01587,-0.911390859845884,-0.0910658426794839,-0.246341649500266
1580421078.01986,-0.914808880750744,-0.0788586251621268,-0.249759670405126
1580421078.02386,-0.918715190356298,-0.0642099641412983,-0.248783093003738
1580421078.02785,-0.926039520866713,-0.044678416113527,-0.250247959105822
1580421078.03183,-0.930434119172961,-0.0319829098954756,-0.251224536507211
1580421078.03582,-0.937270160982681,-0.0197756923781185,-0.250736247806516
1580421078.03982,-0.94166475928893,-0.0129396505683985,-0.246341649500266
1580421078.04381,-0.946059357595178,-0.00854505226214997,-0.24682993820096
1580421078.0478,-0.94508278019379,-0.000732433051041426,-0.244876783398183
1580421078.0518,-0.947035934996567,-0.000244144350347142,-0.248294804303043
1580421078.05579,-0.945571068894484,0.00366216525520713,-0.247318226901655
1580421078.05979,-0.947035934996567,0.00708018616006711,-0.247318226901655
1580421078.06378,-0.949965667200733,0.00903334096284425,-0.245365072098878
1580421078.06778,-0.950942244602121,0.0104982070649271,-0.239505607690546
1580421078.07177,-0.954360265506981,0.0129396505683985,-0.244876783398183
1580421078.07576,-0.960219729915313,0.0114747844663157,-0.245365072098878
1580421078.07976,-0.964614328221561,0.00708018616006711,-0.242435339894712
1580421078.08375,-0.963637750820173,0.00366216525520713,-0.24682993820096
1580421078.08774,-0.96559090562295,0.00219729915312428,-0.245365072098878
1580421078.09174,-0.96559090562295,0.00219729915312428,-0.231692988479438
1580421078.09573,-0.964126039520867,0.00170901045242999,-0.228763256275272
1580421078.09973,-0.960708018616007,0.000244144350347142,-0.222415503166246
1580421078.10372,-0.959731441214618,-0.00122072175173571,-0.218509193560692
1580421078.10771,-0.959731441214618,-0.00268558785381856,-0.213626306553749
1580421078.11172,-0.963637750820173,-0.00512703135728998,-0.212649729152361
1580421078.11572,-0.960708018616007,-0.00122072175173571,-0.212649729152361
1580421078.11971,-0.962661173418784,0.00170901045242999,-0.205813687342641
1580421078.12371,-0.960219729915313,0.00366216525520713,-0.204837109941252
1580421078.1277,-0.960708018616007,0.01196307316701,-0.200930800335698
1580421078.13169,-0.965102616922255,0.0187991149767299,-0.200442511635003
1580421078.13569,-0.966079194323644,0.0256351567864499,-0.199954222934309
1580421078.13968,-0.964614328221561,0.0305180437933927,-0.199465934233615
1580421078.14368,-0.969497215228504,0.0358892195010299,-0.199954222934309
1580421078.14767,-0.970473792629893,0.0393072404058898,-0.201907377737086
1580421078.15166,-0.97242694743267,0.0368657969024184,-0.201907377737086
1580421078.15566,-0.976333257038224,0.0334477759975584,-0.206301976043335
1580421078.15965,-0.98268101014725,0.0246585793850613,-0.210696574349583
1580421078.16365,-0.984634164950027,0.0144045166704814,-0.212161440451666
1580421078.16764,-0.988540474555581,0.00512703135728998,-0.213138017853055
1580421078.17163,-0.98609903105211,-0.0046387426565957,-0.212649729152361
1580421078.17563,-0.987075608453498,-0.0173342488746471,-0.215579461356526
1580421078.17962,-0.98268101014725,-0.0314946211947813,-0.208255130846112
1580421078.18362,-0.983657587548638,-0.0441901274128327,-0.209231708247501
1580421078.18761,-0.978774700541695,-0.0529793240253298,-0.210696574349583
1580421078.19159,-0.976333257038224,-0.0627450980392155,-0.211673151750972
1580421078.19558,-0.974868390936141,-0.0710460059510183,-0.209231708247501
1580421078.19958,-0.969497215228504,-0.0788586251621268,-0.208743419546806
1580421078.20357,-0.968032349126421,-0.0842298008697639,-0.209231708247501
1580421078.20756,-0.968520637827115,-0.0915541313801782,-0.209719996948195
1580421078.21156,-0.96900892652781,-0.0954604409857325,-0.204348821240558
1580421078.21555,-0.966567483024338,-0.0993667505912867,-0.209231708247501
1580421078.21955,-0.967055771725033,-0.0993667505912867,-0.206790264744029
1580421078.22354,-0.966567483024338,-0.099855039291981,-0.204348821240558
1580421078.22754,-0.960219729915313,-0.096437018387121,-0.202883955138475
1580421078.23153,-0.952895399404898,-0.0944838635843439,-0.203860532539863
1580421078.23552,-0.94508278019379,-0.0910658426794839,-0.210208285648889
1580421078.23952,-0.935317006179904,-0.0866712443732354,-0.207766842145418
1580421078.24351,-0.930434119172961,-0.0856946669718468,-0.216067750057221
1580421078.2475,-0.921644922560464,-0.077393759060044,-0.216556038757915
1580421078.2515,-0.912367437247273,-0.0676279850461583,-0.220950637064163
1580421078.25549,-0.898695353627833,-0.0554207675288012,-0.221927214465552
1580421078.25949,-0.89039444571603,-0.0393072404058898,-0.225833524071106
1580421078.26348,-0.886488136110476,-0.0231937132829785,-0.233646143282215
1580421078.26747,-0.886488136110476,-0.00219729915312428,-0.24682993820096
1580421078.27148,-0.883070115205616,0.0153810940718699,-0.254154268711376
1580421078.27548,-0.887464713511864,0.0285648889906156,-0.265873197528039
1580421078.27947,-0.891371023117419,0.0427252613107498,-0.274662394140536
1580421078.28347,-0.899183642328527,0.0539559014267184,-0.279545281147479
1580421078.28746,-0.911879148546578,0.0617685206378269,-0.287357900358588
1580421078.29145,-0.927504386968796,0.0734874494544897,-0.291264209964142
1580421078.29545,-0.946547646295873,0.0803234912642097,-0.292240787365531
1580421078.29944,-0.96217288471809,0.0861829556725411,-0.290775921263448
1580421078.30344,-0.96900892652781,0.0817883573662925,-0.285893034256505
1580421078.30743,-0.974868390936141,0.0788586251621268,-0.279056992446785
1580421078.31142,-0.971938658731975,0.0744640268558783,-0.271244373235676
1580421078.31542,-0.968032349126421,0.0666514076447697,-0.267826352330816
1580421078.31941,-0.962661173418784,0.0554207675288012,-0.261478599221791
1580421078.32341,-0.954360265506981,0.0437018387121384,-0.255130846112765
1580421078.3274,-0.940688181887541,0.0295414663920042,-0.249759670405126
1580421078.33139,-0.929457541771573,0.0144045166704814,-0.248294804303043
1580421078.33539,-0.916273746852827,0.00805676356145568,-0.250736247806516
1580421078.33938,-0.899671931029221,-0.000732433051041426,-0.250736247806516
1580421078.34338,-0.896253910124361,-0.0100099183642328,-0.250247959105822
1580421078.34737,-0.896742198825056,-0.0168459601739528,-0.251712825207905
1580421078.35135,-0.902113374532693,-0.0300297550926985,-0.259037155718319
1580421078.35534,-0.901136797131304,-0.0451667048142212,-0.266361486228734
1580421078.35934,-0.90406652933547,-0.0588387884336612,-0.261966887922485
1580421078.36333,-0.905531395437553,-0.0769054703593497,-0.259037155718319
1580421078.36732,-0.902113374532693,-0.0891126878767068,-0.249759670405126
1580421078.37132,-0.899671931029221,-0.0969253070878153,-0.241458762493323
1580421078.37531,-0.90064850843061,-0.100343327992675,-0.23315785458152
1580421078.37931,-0.895765621423667,-0.106691081101701,-0.221438925764858
1580421078.3833,-0.888929579613947,-0.108644235904478,-0.212649729152361
1580421078.38729,-0.888929579613947,-0.108155947203784,-0.207766842145418
1580421078.39129,-0.877698939497979,-0.0988784618905925,-0.202395666437781
1580421078.39528,-0.85963225757229,-0.0881361104753182,-0.203860532539863
1580421078.39928,-0.841077286945907,-0.0759288929579611,-0.217532616159303
1580421078.40327,-0.828381780727856,-0.0598153658350498,-0.225833524071106
1580421078.40726,-0.826428625925079,-0.0417486839093613,-0.242435339894712
1580421078.41126,-0.840588998245213,-0.0236820019836728,-0.259037155718319
1580421078.41525,-0.864026855878539,-0.0046387426565957,-0.282475013351645
1580421078.41925,-0.886488136110476,0.01196307316701,-0.304448004882888
1580421078.42324,-0.930434119172961,0.0187991149767299,-0.324956130312048
1580421078.42723,-0.945571068894484,0.0109864957656214,-0.33325703822385
1580421078.43124,-0.995376516365301,0.0109864957656214,-0.324467841611353
1580421078.43524,-1.00465400167849,0.00219729915312428,-0.306401159685665
1580421078.43923,-1.02369726100557,-0.0075684748607614,-0.278080415045396
1580421078.44322,-1.05494773785,-0.00708018616006711,-0.257084000915542
1580421078.44722,-1.05885404745556,-0.0202639810788128,-0.222415503166246
1580421078.45121,-1.05250629434653,-0.037842374303807,-0.195071335927366
1580421078.45521,-1.03492790112154,-0.0588387884336612,-0.170656900892652
1580421078.4592,-1.01783779659724,-0.0715342946517126,-0.160891126878766
1580421078.46319,-1.00514229037919,-0.0803234912642097,-0.155031662470435
1580421078.46719,-0.99635309376669,-0.0803234912642097,-0.158449683375295
1580421078.47118,-0.990981918059052,-0.0764171816586554,-0.174074921797512
1580421078.47518,-0.981216144045167,-0.0744640268558783,-0.181399252307926
1580421078.47917,-0.968032349126421,-0.080811779964904,-0.189700160219729
1580421078.48317,-0.959243152513924,-0.0861829556725411,-0.191165026321812
1580421078.48716,-0.950942244602121,-0.101808194094758,-0.193118181124589
1580421078.49115,-0.944106202792401,-0.113038834210727,-0.186282139314869
1580421078.49515,-0.945571068894484,-0.12133974212253,-0.181399252307926
1580421078.49914,-0.953383688105593,-0.131593804837109,-0.171145189593346
1580421078.50313,-0.963637750820173,-0.142824444953078,-0.165774013885709
1580421078.50713,-0.973403524834058,-0.146242465857938,-0.157473105973907
1580421078.51111,-0.975356679636835,-0.145754177157244,-0.156496528572518
1580421078.5151,-0.984145876249332,-0.143312733653772,-0.155031662470435
1580421078.5191,-1.00758373388266,-0.139406424048218,-0.175051499198901
1580421078.52309,-1.03395132372015,-0.126710917830167,-0.189211871519035
1580421078.52708,-1.05397116044862,-0.113527122911421,-0.215091172655832
1580421078.53108,-1.07008468757153,-0.0988784618905925,-0.241947051194018
1580421078.53507,-1.07008468757153,-0.0871595330739297,-0.272220950637065
1580421078.53907,-1.05104142824445,-0.0749523155565726,-0.294193942168308
1580421078.54306,-1.02418554970626,-0.0651865415426869,-0.312748912794691
1580421078.54705,-1.00758373388266,-0.0524910353246355,-0.318120088502328
1580421078.55105,-0.995864805065995,-0.037842374303807,-0.327397573815519
1580421078.55504,-0.993911650263218,-0.0231937132829785,-0.335698481727322
1580421078.55904,-0.991470206759747,-0.00708018616006711,-0.33325703822385
1580421078.56303,-0.99293507286183,0.0100099183642328,-0.33325703822385
1580421078.56702,-0.994399938963912,0.0256351567864499,-0.318608377203022
1580421078.57102,-1.00563057907988,0.0388189517051956,-0.302983138780805
1580421078.57501,-1.02809185931182,0.0529793240253298,-0.286869611657893
1580421078.57901,-1.0554360265507,0.0607919432364383,-0.278080415045396
1580421078.583,-1.07740901808194,0.0573739223315783,-0.262943465323874
1580421078.58699,-1.09205767910277,0.0485847257190812,-0.269291218432899
1580421078.591,-1.09449912260624,0.0354009308003356,-0.269779507133594
1580421078.595,-1.0808270389868,0.0192874036774242,-0.271244373235676
1580421078.59899,-1.06617837796597,0.00561532005798426,-0.277592126344702
1580421078.60298,-1.04859998474098,-0.00122072175173571,-0.283451590753033
1580421078.60698,-1.03346303501946,-0.00366216525520713,-0.287357900358588
1580421078.61097,-1.0207675288014,-0.00805676356145568,-0.298100251773862
1580421078.61497,-1.01197833218891,-0.0148928053711757,-0.300541695277333
1580421078.61896,-1.00514229037919,-0.0207522697795071,-0.307866025787748
1580421078.62295,-0.99635309376669,-0.0319829098954756,-0.310307469291219
1580421078.62695,-0.989028763256275,-0.044678416113527,-0.308842603189136
1580421078.63094,-0.98268101014725,-0.0500495918211641,-0.303959716182193
1580421078.63494,-0.984145876249332,-0.0544441901274126,-0.295170519569696
1580421078.63893,-0.985610742351415,-0.0515144579232469,-0.286869611657893
1580421078.64293,-0.98951705195697,-0.0524910353246355,-0.277592126344702
1580421078.64692,-0.98951705195697,-0.0529793240253298,-0.267338063630122
1580421078.65091,-0.990005340657664,-0.0490730144197755,-0.259525444419014
1580421078.65491,-0.998306248569467,-0.0461432822156098,-0.253665980010682
1580421078.6589,-1.01441977569238,-0.0441901274128327,-0.248294804303043
1580421078.66289,-1.03346303501946,-0.0402838178072784,-0.251224536507211
1580421078.66689,-1.05250629434653,-0.0388189517051956,-0.259037155718319
1580421078.67087,-1.06227206836042,-0.0422369726100555,-0.262943465323874
1580421078.67486,-1.06276035706111,-0.0456549935149155,-0.277592126344702
1580421078.67886,-1.05445944914931,-0.0544441901274126,-0.282475013351645
1580421078.68285,-1.03932249942779,-0.0642099641412983,-0.288822766460671
1580421078.68684,-1.02027924010071,-0.0710460059510183,-0.288822766460671
1580421078.69084,-1.00660715648127,-0.0788586251621268,-0.289311055161365
1580421078.69483,-0.995376516365301,-0.0856946669718468,-0.294682230869002
1580421078.69882,-0.989028763256275,-0.0842298008697639,-0.292729076066225
1580421078.70282,-0.982192721446555,-0.0847180895704582,-0.296147096971085
1580421078.70681,-0.977798123140307,-0.0764171816586554,-0.293217364766919
1580421078.71081,-0.97242694743267,-0.0676279850461583,-0.291752498664836
1580421078.7148,-0.969497215228504,-0.0559090562294955,-0.286869611657893
1580421078.71879,-0.974868390936141,-0.041260395208667,-0.285893034256505
1580421078.72279,-0.980239566643778,-0.0300297550926985,-0.281986724650951
1580421078.72678,-0.98951705195697,-0.0266117341878385,-0.273685816739148
1580421078.73078,-0.995376516365301,-0.0231937132829785,-0.262455176623179
1580421078.73477,-0.994399938963912,-0.0266117341878385,-0.249759670405126
1580421078.73877,-0.987563897154192,-0.0324711985961699,-0.238040741588463
1580421078.74276,-0.984634164950027,-0.0373540856031127,-0.226321812771801
1580421078.74675,-0.987075608453498,-0.0422369726100555,-0.214114595254443
1580421078.75076,-0.991470206759747,-0.0407721065079727,-0.214114595254443
1580421078.75476,-1.00123598077363,-0.0358892195010299,-0.211184863050278
1580421078.75875,-1.01344319829099,-0.0290531776913099,-0.224368657969023
1580421078.76274,-1.01490806439307,-0.0271000228885327,-0.239017318989852
1580421078.76674,-1.0129549095903,-0.0217288471808956,-0.260013733119708
1580421078.77073,-1.00270084687572,-0.0227054245822842,-0.271244373235676
1580421078.77473,-0.987075608453498,-0.0280766002899213,-0.279056992446785
1580421078.77872,-0.973403524834058,-0.0363775082017241,-0.281010147249562
1580421078.78271,-0.951430533302815,-0.0456549935149155,-0.291752498664836
1580421078.78671,-0.933363851377127,-0.0573739223315783,-0.292729076066225
1580421078.7907,-0.91773861295491,-0.0651865415426869,-0.289799343862059
1580421078.7947,-0.906996261539636,-0.0690928511482412,-0.291752498664836
1580421078.79869,-0.902113374532693,-0.0715342946517126,-0.288334477759976
1580421078.80268,-0.905531395437553,-0.0681162737468526,-0.287357900358588
1580421078.80668,-0.917250324254216,-0.067139696345464,-0.281010147249562
1580421078.81067,-0.933363851377127,-0.0612802319371326,-0.275150682841231
1580421078.81467,-0.950453955901427,-0.0568856336308841,-0.263431754024568
1580421078.81866,-0.967055771725033,-0.0524910353246355,-0.257572289616236
