Timestamp_seconds,Gyro_X_s,Gyro_Y_s,Gyro_Z_s
1580421160.88391,-0.457770656900948,0.457770656900948,2.04470893415737
1580421160.88791,-0.579842832074519,0.396734569314049,1.80056458381023
1580421160.89191,-0.885023270008332,0.274662394140478,1.73952849622333
1580421160.89591,-1.0070954451819,0.213626306553806,1.67849240863666
1580421160.89991,-1.12916762035547,0.213626306553806,1.55642023346309
1580421160.90391,-1.12916762035547,0.213626306553806,1.49538414587619
1580421160.90791,-1.19020370794237,0.274662394140478,1.49538414587619
1580421160.91191,-0.946059357595232,0.274662394140478,1.37331197070262
1580421160.9159,-1.0070954451819,0.335698481727377,1.43434805828952
1580421160.9199,-0.946059357595232,0.213626306553806,1.43434805828952
1580421160.9239,-0.885023270008332,0.213626306553806,1.31227588311594
1580421160.9279,-0.885023270008332,0.091554131380235,1.12916762035547
1580421160.9319,-0.946059357595232,0.152590218966907,1.12916762035547
1580421160.9359,-0.885023270008332,-0.0305180437933359,1.0070954451819
1580421160.9399,-0.762951094834762,0.091554131380235,1.0681315327688
1580421160.9439,-0.762951094834762,0.091554131380235,1.0070954451819
1580421160.94791,-0.70191500724809,0.152590218966907,0.946059357595232
1580421160.95191,-0.640878919661191,0.152590218966907,0.762951094834762
1580421160.9559,-0.762951094834762,-0.0305180437933359,0.70191500724809
1580421160.9599,-0.70191500724809,-0.091554131380235,0.70191500724809
1580421160.9639,-0.579842832074519,-0.0305180437933359,0.70191500724809
1580421160.9679,-0.396734569314049,-0.152590218966907,0.885023270008332
1580421160.9719,-0.335698481727377,-0.213626306553806,0.823987182421661
1580421160.9759,-0.335698481727377,-0.152590218966907,0.579842832074519
1580421160.9799,-0.213626306553806,-0.213626306553806,0.579842832074519
1580421160.98389,-0.335698481727377,-0.213626306553806,0.396734569314049
1580421160.98789,-0.457770656900948,-0.274662394140478,0.396734569314049
1580421160.99189,-0.51880674448762,-0.274662394140478,0.396734569314049
1580421160.99589,-0.70191500724809,-0.274662394140478,0.274662394140478
1580421160.99989,-0.823987182421661,-0.51880674448762,0.213626306553806
1580421161.00389,-0.946059357595232,-0.457770656900948,0.152590218966907
1580421161.00789,-0.885023270008332,-0.335698481727377,0.152590218966907
1580421161.01189,-0.823987182421661,-0.457770656900948,0.152590218966907
1580421161.01588,-0.823987182421661,-0.579842832074519,0.152590218966907
1580421161.01988,-0.885023270008332,-0.579842832074519,0.213626306553806
1580421161.02388,-1.0070954451819,-0.457770656900948,0.213626306553806
1580421161.02786,-0.946059357595232,-0.396734569314049,0.457770656900948
1580421161.03186,-0.885023270008332,-0.396734569314049,0.274662394140478
1580421161.03586,-0.823987182421661,-0.396734569314049,0.274662394140478
1580421161.03986,-0.823987182421661,-0.51880674448762,0.396734569314049
1580421161.04386,-0.640878919661191,-0.457770656900948,0.396734569314049
1580421161.04786,-0.640878919661191,-0.457770656900948,0.457770656900948
1580421161.05185,-0.823987182421661,-0.579842832074519,0.579842832074519
1580421161.05585,-0.823987182421661,-0.51880674448762,0.51880674448762
1580421161.05985,-0.885023270008332,-0.640878919661191,0.579842832074519
1580421161.06385,-1.0681315327688,-0.640878919661191,0.640878919661191
1580421161.06785,-1.0681315327688,-0.70191500724809,0.70191500724809
1580421161.07185,-1.0681315327688,-0.51880674448762,0.640878919661191
1580421161.07585,-1.31227588311594,-0.457770656900948,0.640878919661191
1580421161.07985,-1.43434805828952,-0.762951094834762,0.762951094834762
1580421161.08384,-1.25123979552905,-0.885023270008332,0.762951094834762
1580421161.08784,-1.25123979552905,-0.885023270008332,0.762951094834762
1580421161.09184,-1.31227588311594,-0.823987182421661,0.823987182421661
1580421161.09584,-1.25123979552905,-0.70191500724809,0.823987182421661
1580421161.09984,-1.19020370794237,-0.823987182421661,0.946059357595232
1580421161.10384,-1.37331197070262,-0.885023270008332,0.885023270008332
1580421161.10785,-1.43434805828952,-0.885023270008332,0.946059357595232
1580421161.11185,-1.61745632104976,-0.885023270008332,0.946059357595232
1580421161.11585,-1.8616006713969,-0.823987182421661,1.0681315327688
1580421161.11984,-1.61745632104976,-0.823987182421661,1.19020370794237
1580421161.12384,-1.55642023346309,-0.762951094834762,1.12916762035547
1580421161.12784,-1.49538414587619,-0.70191500724809,1.0681315327688
1580421161.13184,-1.37331197070262,-0.823987182421661,1.25123979552905
1580421161.13584,-1.37331197070262,-0.885023270008332,1.19020370794237
1580421161.13984,-1.49538414587619,-0.823987182421661,1.25123979552905
1580421161.14384,-1.61745632104976,-0.823987182421661,1.31227588311594
1580421161.14784,-1.73952849622333,-0.762951094834762,1.37331197070262
1580421161.15183,-1.80056458381023,-0.762951094834762,1.31227588311594
1580421161.15583,-1.55642023346309,-0.823987182421661,1.37331197070262
1580421161.15983,-1.25123979552905,-0.885023270008332,1.37331197070262
1580421161.16383,-1.25123979552905,-0.762951094834762,1.37331197070262
1580421161.16783,-1.0070954451819,-0.762951094834762,1.37331197070262
1580421161.17183,-1.0681315327688,-0.823987182421661,1.49538414587619
1580421161.17583,-1.0070954451819,-0.885023270008332,1.37331197070262
1580421161.17983,-1.12916762035547,-0.823987182421661,1.43434805828952
1580421161.18383,-1.12916762035547,-0.885023270008332,1.43434805828952
1580421161.18783,-1.31227588311594,-1.0070954451819,1.49538414587619
1580421161.19183,-1.25123979552905,-1.0070954451819,1.31227588311594
1580421161.19583,-1.12916762035547,-0.823987182421661,1.31227588311594
1580421161.19983,-1.0070954451819,-0.946059357595232,1.31227588311594
1580421161.20383,-1.0070954451819,-0.946059357595232,1.25123979552905
1580421161.20783,-1.0070954451819,-0.762951094834762,1.43434805828952
1580421161.21183,-1.12916762035547,-0.823987182421661,1.25123979552905
1580421161.21583,-1.25123979552905,-1.0681315327688,1.19020370794237
1580421161.21983,-1.55642023346309,-1.0070954451819,1.31227588311594
1580421161.22382,-1.9226367589838,-0.762951094834762,1.0681315327688
1580421161.22782,-2.10574502174404,-0.762951094834762,0.946059357595232
1580421161.23182,-1.98367284657047,-0.885023270008332,0.823987182421661
1580421161.23582,-2.04470893415737,-0.885023270008332,0.70191500724809
1580421161.23982,-2.22781719691761,-0.946059357595232,0.762951094834762
1580421161.24382,-2.16678110933094,-1.0070954451819,0.70191500724809
1580421161.24782,-2.22781719691761,-0.885023270008332,0.579842832074519
1580421161.25181,-1.98367284657047,-0.885023270008332,0.457770656900948
1580421161.25581,-2.16678110933094,-1.0681315327688,0.396734569314049
1580421161.25981,-2.34988937209118,-0.946059357595232,0.396734569314049
1580421161.26381,-2.53299763485165,-0.823987182421661,0.396734569314049
1580421161.26779,-2.41092545967808,-0.762951094834762,0.213626306553806
1580421161.27179,-2.10574502174404,-0.823987182421661,0.091554131380235
1580421161.27579,-1.9226367589838,-0.885023270008332,0.091554131380235
1580421161.27979,-1.8616006713969,-1.0070954451819,0.0305180437933359
1580421161.28379,-1.8616006713969,-0.885023270008332,0.0305180437933359
1580421161.28778,-2.04470893415737,-0.823987182421661,0.091554131380235
1580421161.29178,-1.8616006713969,-0.946059357595232,0.0305180437933359
1580421161.29578,-1.73952849622333,-0.946059357595232,-0.0305180437933359
1580421161.29978,-1.55642023346309,-0.885023270008332,-0.0305180437933359
1580421161.30378,-1.49538414587619,-0.885023270008332,-0.152590218966907
1580421161.30778,-1.43434805828952,-1.0070954451819,-0.091554131380235
1580421161.31178,-1.43434805828952,-0.946059357595232,-0.091554131380235
1580421161.31578,-1.49538414587619,-0.946059357595232,-0.152590218966907
1580421161.31977,-1.43434805828952,-0.885023270008332,-0.274662394140478
1580421161.32377,-1.37331197070262,-0.885023270008332,-0.274662394140478
1580421161.32777,-1.43434805828952,-0.823987182421661,-0.396734569314049
1580421161.33177,-1.25123979552905,-0.885023270008332,-0.213626306553806
1580421161.33577,-1.37331197070262,-0.823987182421661,-0.213626306553806
1580421161.33977,-1.25123979552905,-0.823987182421661,-0.213626306553806
1580421161.34377,-1.43434805828952,-0.823987182421661,-0.152590218966907
1580421161.34778,-1.12916762035547,-0.823987182421661,-0.213626306553806
1580421161.35178,-1.0681315327688,-0.70191500724809,-0.213626306553806
1580421161.35577,-1.0070954451819,-0.70191500724809,-0.091554131380235
1580421161.35977,-0.823987182421661,-0.70191500724809,-0.0305180437933359
1580421161.36377,-0.579842832074519,-0.70191500724809,-0.091554131380235
1580421161.36777,-0.640878919661191,-0.70191500724809,0.0305180437933359
1580421161.37177,-0.51880674448762,-0.640878919661191,0.152590218966907
1580421161.37577,-0.51880674448762,-0.579842832074519,0.152590218966907
1580421161.37977,-0.396734569314049,-0.579842832074519,0.213626306553806
1580421161.38377,-0.396734569314049,-0.640878919661191,0.213626306553806
1580421161.38777,-0.274662394140478,-0.579842832074519,0.335698481727377
1580421161.39176,-0.091554131380235,-0.457770656900948,0.457770656900948
1580421161.39576,0.0305180437933359,-0.457770656900948,0.457770656900948
1580421161.39976,-0.152590218966907,-0.51880674448762,0.579842832074519
1580421161.40376,-0.091554131380235,-0.457770656900948,0.51880674448762
1580421161.40776,0.091554131380235,-0.335698481727377,0.640878919661191
1580421161.41176,0.091554131380235,-0.396734569314049,0.579842832074519
1580421161.41576,0.213626306553806,-0.457770656900948,0.70191500724809
1580421161.41976,0.396734569314049,-0.457770656900948,0.762951094834762
1580421161.42375,0.335698481727377,-0.213626306553806,0.823987182421661
1580421161.42773,0.274662394140478,-0.335698481727377,0.823987182421661
1580421161.43173,0.396734569314049,-0.457770656900948,0.946059357595232
1580421161.43573,0.579842832074519,-0.335698481727377,0.885023270008332
1580421161.43973,0.762951094834762,-0.457770656900948,0.946059357595232
1580421161.44373,0.640878919661191,-0.457770656900948,1.0681315327688
1580421161.44773,0.51880674448762,-0.396734569314049,1.25123979552905
1580421161.45173,0.640878919661191,-0.396734569314049,1.31227588311594
1580421161.45572,1.0681315327688,-0.396734569314049,1.43434805828952
1580421161.45972,1.0681315327688,-0.396734569314049,1.43434805828952
1580421161.46372,1.0681315327688,-0.51880674448762,1.49538414587619
1580421161.46772,1.12916762035547,-0.457770656900948,1.49538414587619
1580421161.47172,1.0681315327688,-0.457770656900948,1.55642023346309
1580421161.47572,1.19020370794237,-0.335698481727377,1.67849240863666
1580421161.47972,1.25123979552905,-0.51880674448762,1.73952849622333
1580421161.48372,1.25123979552905,-0.396734569314049,1.67849240863666
1580421161.48772,1.25123979552905,-0.335698481727377,1.73952849622333
1580421161.49171,1.55642023346309,-0.335698481727377,1.80056458381023
1580421161.49571,1.49538414587619,-0.335698481727377,1.9226367589838
1580421161.49971,1.37331197070262,-0.396734569314049,1.9226367589838
1580421161.50371,1.43434805828952,-0.396734569314049,1.9226367589838
1580421161.50772,1.19020370794237,-0.396734569314049,2.04470893415737
1580421161.51172,1.37331197070262,-0.335698481727377,1.9226367589838
1580421161.51572,1.31227588311594,-0.396734569314049,1.98367284657047
1580421161.51972,1.43434805828952,-0.640878919661191,2.04470893415737
1580421161.52372,1.37331197070262,-0.457770656900948,1.9226367589838
1580421161.52771,1.67849240863666,-0.396734569314049,1.98367284657047
1580421161.53171,1.8616006713969,-0.51880674448762,2.04470893415737
1580421161.53571,1.98367284657047,-0.396734569314049,2.10574502174404
1580421161.53971,2.16678110933094,-0.51880674448762,2.16678110933094
1580421161.54371,2.22781719691761,-0.51880674448762,2.10574502174404
1580421161.54771,2.04470893415737,-0.457770656900948,2.10574502174404
1580421161.55171,2.10574502174404,-0.396734569314049,1.9226367589838
1580421161.55571,2.22781719691761,-0.457770656900948,1.98367284657047
1580421161.5597,2.04470893415737,-0.51880674448762,1.9226367589838
1580421161.5637,1.9226367589838,-0.579842832074519,1.8616006713969
1580421161.5677,1.61745632104976,-0.396734569314049,1.73952849622333
1580421161.5717,1.73952849622333,-0.335698481727377,1.61745632104976
1580421161.5757,1.80056458381023,-0.274662394140478,1.61745632104976
1580421161.5797,1.73952849622333,-0.213626306553806,1.61745632104976
1580421161.5837,1.9226367589838,-0.213626306553806,1.67849240863666
1580421161.58768,1.55642023346309,-0.335698481727377,1.67849240863666
1580421161.59168,1.0070954451819,-0.335698481727377,1.67849240863666
1580421161.59567,0.885023270008332,-0.396734569314049,1.61745632104976
1580421161.59967,0.885023270008332,-0.396734569314049,1.43434805828952
1580421161.60367,0.885023270008332,-0.51880674448762,1.43434805828952
1580421161.60767,0.946059357595232,-0.457770656900948,1.37331197070262
1580421161.61167,1.0070954451819,-0.51880674448762,1.49538414587619
1580421161.61567,1.0070954451819,-0.396734569314049,1.43434805828952
1580421161.61967,1.0681315327688,-0.396734569314049,1.49538414587619
1580421161.62366,0.885023270008332,-0.457770656900948,1.43434805828952
1580421161.62766,0.640878919661191,-0.396734569314049,1.37331197070262
1580421161.63166,0.396734569314049,-0.396734569314049,1.37331197070262
1580421161.63566,0.335698481727377,-0.335698481727377,1.37331197070262
1580421161.63966,0.396734569314049,-0.274662394140478,1.37331197070262
1580421161.64366,0.51880674448762,-0.457770656900948,1.37331197070262
1580421161.64766,0.762951094834762,-0.396734569314049,1.31227588311594
1580421161.65166,0.640878919661191,-0.396734569314049,1.43434805828952
1580421161.65565,0.152590218966907,-0.335698481727377,1.31227588311594
1580421161.65965,-0.152590218966907,-0.335698481727377,1.31227588311594
1580421161.66365,-0.213626306553806,-0.396734569314049,1.37331197070262
1580421161.66766,-0.213626306553806,-0.396734569314049,1.31227588311594
1580421161.67166,-0.152590218966907,-0.579842832074519,1.31227588311594
1580421161.67566,-0.152590218966907,-0.70191500724809,1.49538414587619
1580421161.67966,-0.274662394140478,-0.51880674448762,1.37331197070262
1580421161.68366,-0.152590218966907,-0.457770656900948,1.55642023346309
1580421161.68766,-0.0305180437933359,-0.457770656900948,1.61745632104976
1580421161.69166,0.152590218966907,-0.51880674448762,1.55642023346309
1580421161.69565,0.335698481727377,-0.396734569314049,1.73952849622333
1580421161.69965,0.274662394140478,-0.396734569314049,1.73952849622333
1580421161.70365,0.274662394140478,-0.335698481727377,1.80056458381023
1580421161.70765,0.213626306553806,-0.335698481727377,1.80056458381023
1580421161.71165,0.152590218966907,-0.335698481727377,1.98367284657047
1580421161.71565,0.0305180437933359,-0.335698481727377,2.16678110933094
1580421161.71965,0.091554131380235,-0.335698481727377,2.10574502174404
1580421161.72365,0.213626306553806,-0.396734569314049,2.16678110933094
1580421161.72764,0.396734569314049,-0.396734569314049,2.22781719691761
1580421161.73164,0.579842832074519,-0.335698481727377,2.16678110933094
1580421161.73564,0.70191500724809,-0.51880674448762,2.22781719691761
1580421161.73964,0.70191500724809,-0.457770656900948,2.34988937209118
1580421161.74364,0.640878919661191,-0.579842832074519,2.34988937209118
1580421161.74762,0.640878919661191,-0.640878919661191,2.28885328450451
1580421161.75162,0.51880674448762,-0.579842832074519,2.41092545967808
1580421161.75562,0.457770656900948,-0.457770656900948,2.47196154726475
1580421161.75962,0.640878919661191,-0.457770656900948,2.47196154726475
1580421161.76361,0.762951094834762,-0.457770656900948,2.47196154726475
1580421161.76761,0.823987182421661,-0.457770656900948,2.53299763485165
1580421161.77161,1.12916762035547,-0.457770656900948,2.59403372243833
1580421161.77561,1.19020370794237,-0.579842832074519,2.59403372243833
1580421161.77961,1.12916762035547,-0.579842832074519,2.7161058976119
1580421161.78361,1.0070954451819,-0.51880674448762,2.7161058976119
1580421161.78761,0.946059357595232,-0.51880674448762,2.7771419851988
1580421161.79161,0.946059357595232,-0.579842832074519,2.7771419851988
1580421161.7956,1.12916762035547,-0.579842832074519,2.83817807278547
1580421161.7996,1.25123979552905,-0.640878919661191,2.89921416037237
1580421161.8036,1.37331197070262,-0.70191500724809,3.08232242313261
1580421161.8076,1.49538414587619,-0.640878919661191,3.08232242313261
1580421161.8116,1.67849240863666,-0.640878919661191,3.14335851071951
1580421161.8156,1.80056458381023,-0.640878919661191,3.20439459830618
1580421161.8196,1.61745632104976,-0.579842832074519,3.20439459830618
1580421161.8236,1.73952849622333,-0.579842832074519,3.20439459830618
1580421161.82761,1.80056458381023,-0.70191500724809,3.08232242313261
1580421161.8316,1.55642023346309,-0.640878919661191,3.14335851071951
1580421161.8356,1.55642023346309,-0.762951094834762,3.14335851071951
1580421161.8396,1.67849240863666,-0.762951094834762,3.20439459830618
1580421161.8436,1.73952849622333,-0.823987182421661,3.14335851071951
1580421161.8476,1.80056458381023,-0.946059357595232,3.08232242313261
1580421161.8516,1.80056458381023,-0.762951094834762,3.14335851071951
1580421161.8556,1.8616006713969,-0.70191500724809,3.14335851071951
1580421161.8596,1.8616006713969,-0.640878919661191,3.20439459830618
1580421161.8636,1.8616006713969,-0.70191500724809,3.14335851071951
1580421161.86759,1.98367284657047,-0.762951094834762,3.20439459830618
1580421161.87159,2.10574502174404,-0.762951094834762,3.14335851071951
1580421161.87559,2.28885328450451,-0.762951094834762,3.20439459830618
1580421161.87959,2.28885328450451,-0.762951094834762,3.20439459830618
1580421161.88359,2.28885328450451,-0.823987182421661,3.02128633554594
1580421161.88759,2.28885328450451,-0.762951094834762,3.02128633554594
1580421161.89159,2.16678110933094,-0.885023270008332,3.02128633554594
1580421161.89558,2.22781719691761,-0.885023270008332,2.89921416037237
1580421161.89958,2.28885328450451,-0.885023270008332,2.89921416037237
1580421161.90358,2.16678110933094,-0.823987182421661,2.89921416037237
1580421161.90756,2.28885328450451,-0.823987182421661,2.89921416037237
1580421161.91156,2.28885328450451,-0.823987182421661,2.65506981002522
1580421161.91556,2.22781719691761,-0.823987182421661,2.7771419851988
1580421161.91956,2.22781719691761,-0.885023270008332,2.53299763485165
1580421161.92356,2.10574502174404,-0.885023270008332,2.47196154726475
1580421161.92756,2.04470893415737,-0.946059357595232,2.34988937209118
1580421161.93155,1.98367284657047,-0.885023270008332,2.47196154726475
1580421161.93555,1.98367284657047,-0.762951094834762,2.34988937209118
1580421161.93955,1.8616006713969,-0.70191500724809,2.34988937209118
1580421161.94355,1.98367284657047,-0.823987182421661,2.22781719691761
1580421161.94755,2.04470893415737,-0.885023270008332,2.16678110933094
1580421161.95155,2.16678110933094,-0.946059357595232,2.16678110933094
1580421161.95555,2.10574502174404,-0.946059357595232,2.10574502174404
1580421161.95955,2.22781719691761,-0.946059357595232,2.10574502174404
1580421161.96354,2.47196154726475,-0.823987182421661,2.04470893415737
1580421161.96754,2.34988937209118,-0.762951094834762,1.98367284657047
1580421161.97154,2.22781719691761,-0.946059357595232,1.9226367589838
1580421161.97554,2.34988937209118,-0.885023270008332,1.8616006713969
1580421161.97954,2.10574502174404,-0.885023270008332,1.67849240863666
1580421161.98354,2.10574502174404,-0.946059357595232,1.61745632104976
1580421161.98755,1.98367284657047,-1.0070954451819,1.55642023346309
1580421161.99155,1.80056458381023,-0.946059357595232,1.55642023346309
1580421161.99555,1.43434805828952,-0.885023270008332,1.43434805828952
1580421161.99954,1.31227588311594,-0.946059357595232,1.31227588311594
1580421162.00354,1.37331197070262,-1.0681315327688,1.31227588311594
1580421162.00754,1.19020370794237,-0.885023270008332,1.31227588311594
1580421162.01154,1.12916762035547,-0.946059357595232,1.31227588311594
1580421162.01554,1.49538414587619,-1.0681315327688,1.31227588311594
1580421162.01954,1.67849240863666,-1.0070954451819,1.37331197070262
1580421162.02354,1.43434805828952,-0.946059357595232,1.19020370794237
1580421162.02754,1.25123979552905,-0.823987182421661,1.19020370794237
1580421162.03153,1.49538414587619,-1.0070954451819,1.12916762035547
1580421162.03553,1.55642023346309,-1.0070954451819,1.31227588311594
1580421162.03953,1.19020370794237,-0.885023270008332,1.25123979552905
1580421162.04353,1.0681315327688,-0.885023270008332,1.25123979552905
1580421162.04753,1.19020370794237,-0.946059357595232,1.0681315327688
1580421162.05153,1.25123979552905,-1.12916762035547,1.19020370794237
1580421162.05553,0.885023270008332,-0.823987182421661,1.19020370794237
1580421162.05953,1.0070954451819,-0.762951094834762,1.12916762035547
1580421162.06352,1.25123979552905,-0.762951094834762,1.0681315327688
1580421162.0675,1.37331197070262,-1.0070954451819,1.12916762035547
1580421162.0715,1.19020370794237,-0.885023270008332,1.12916762035547
1580421162.0755,0.946059357595232,-0.70191500724809,1.19020370794237
1580421162.0795,1.31227588311594,-0.885023270008332,1.19020370794237
1580421162.0835,1.49538414587619,-1.0070954451819,1.19020370794237
1580421162.0875,1.43434805828952,-0.885023270008332,1.19020370794237
1580421162.0915,1.25123979552905,-0.70191500724809,1.31227588311594
1580421162.0955,1.43434805828952,-0.640878919661191,1.25123979552905
1580421162.09949,1.43434805828952,-0.762951094834762,1.19020370794237
1580421162.10349,1.37331197070262,-0.885023270008332,1.19020370794237
1580421162.10749,0.946059357595232,-0.823987182421661,1.12916762035547
1580421162.11149,0.823987182421661,-0.70191500724809,1.25123979552905
1580421162.11549,0.885023270008332,-0.640878919661191,1.19020370794237
1580421162.11949,0.885023270008332,-0.70191500724809,1.19020370794237
1580421162.12349,0.823987182421661,-0.762951094834762,1.0681315327688
1580421162.12749,0.762951094834762,-0.885023270008332,1.19020370794237
1580421162.13148,0.762951094834762,-0.946059357595232,1.19020370794237
1580421162.13548,0.823987182421661,-0.946059357595232,1.19020370794237
1580421162.13948,0.946059357595232,-0.640878919661191,1.0681315327688
1580421162.14348,0.823987182421661,-0.70191500724809,0.885023270008332
1580421162.14749,0.762951094834762,-0.762951094834762,0.946059357595232
1580421162.15149,0.70191500724809,-0.823987182421661,0.885023270008332
1580421162.15549,0.640878919661191,-0.946059357595232,1.0070954451819
1580421162.15949,0.579842832074519,-0.823987182421661,0.946059357595232
1580421162.16349,0.762951094834762,-0.762951094834762,0.885023270008332
1580421162.16748,0.946059357595232,-1.0070954451819,0.823987182421661
1580421162.17148,1.12916762035547,-1.0070954451819,0.823987182421661
1580421162.17548,1.0681315327688,-0.823987182421661,0.823987182421661
1580421162.17948,0.885023270008332,-0.762951094834762,0.70191500724809
1580421162.18348,1.43434805828952,-0.885023270008332,0.70191500724809
1580421162.18748,1.49538414587619,-0.885023270008332,0.640878919661191
1580421162.19148,1.31227588311594,-0.885023270008332,0.70191500724809
1580421162.19548,1.49538414587619,-0.762951094834762,0.823987182421661
1580421162.19947,1.8616006713969,-0.885023270008332,0.823987182421661
1580421162.20347,1.9226367589838,-0.762951094834762,0.762951094834762
1580421162.20747,1.98367284657047,-0.823987182421661,0.762951094834762
1580421162.21147,1.9226367589838,-0.823987182421661,0.823987182421661
1580421162.21547,2.16678110933094,-0.823987182421661,0.762951094834762
1580421162.21947,2.34988937209118,-0.823987182421661,0.640878919661191
1580421162.22347,2.41092545967808,-0.762951094834762,0.579842832074519
1580421162.22745,2.22781719691761,-0.640878919661191,0.640878919661191
1580421162.23145,2.04470893415737,-0.70191500724809,0.51880674448762
1580421162.23545,2.04470893415737,-0.70191500724809,0.51880674448762
1580421162.23944,2.22781719691761,-0.946059357595232,0.51880674448762
1580421162.24344,2.16678110933094,-0.885023270008332,0.579842832074519
1580421162.24744,2.16678110933094,-0.640878919661191,0.579842832074519
1580421162.25144,1.9226367589838,-0.457770656900948,0.51880674448762
1580421162.25544,1.61745632104976,-0.335698481727377,0.274662394140478
1580421162.25944,1.37331197070262,-0.457770656900948,0.213626306553806
1580421162.26344,1.0681315327688,-0.640878919661191,0.152590218966907
1580421162.26743,0.823987182421661,-0.579842832074519,-0.091554131380235
1580421162.27143,0.457770656900948,-0.51880674448762,-0.213626306553806
1580421162.27543,0.274662394140478,-0.640878919661191,-0.213626306553806
1580421162.27943,0.0305180437933359,-0.640878919661191,-0.274662394140478
1580421162.28343,-0.213626306553806,-0.579842832074519,-0.457770656900948
1580421162.28743,-0.396734569314049,-0.762951094834762,-0.579842832074519
1580421162.29143,-0.823987182421661,-0.70191500724809,-0.640878919661191
1580421162.29543,-1.0070954451819,-0.579842832074519,-0.70191500724809
1580421162.29942,-1.25123979552905,-0.457770656900948,-0.640878919661191
1580421162.30342,-1.31227588311594,-0.51880674448762,-0.640878919661191
1580421162.30743,-1.19020370794237,-0.579842832074519,-0.70191500724809
1580421162.31143,-1.0681315327688,-0.70191500724809,-0.640878919661191
1580421162.31543,-0.885023270008332,-0.579842832074519,-0.640878919661191
1580421162.31943,-0.885023270008332,-0.51880674448762,-0.579842832074519
1580421162.32343,-0.762951094834762,-0.70191500724809,-0.579842832074519
1580421162.32743,-0.51880674448762,-0.70191500724809,-0.51880674448762
1580421162.33143,-0.396734569314049,-0.640878919661191,-0.640878919661191
1580421162.33542,-0.640878919661191,-0.640878919661191,-0.51880674448762
1580421162.33942,-0.640878919661191,-0.579842832074519,-0.396734569314049
1580421162.34342,-0.579842832074519,-0.51880674448762,-0.396734569314049
1580421162.34742,-0.579842832074519,-0.640878919661191,-0.274662394140478
1580421162.35142,-0.396734569314049,-0.579842832074519,-0.091554131380235
1580421162.35542,-0.091554131380235,-0.51880674448762,-0.0305180437933359
1580421162.35942,-0.152590218966907,-0.640878919661191,0.0305180437933359
1580421162.36342,0.0305180437933359,-0.640878919661191,0.091554131380235
1580421162.36741,0.091554131380235,-0.579842832074519,0.274662394140478
1580421162.37141,0.213626306553806,-0.579842832074519,0.274662394140478
1580421162.37541,0.213626306553806,-0.640878919661191,0.335698481727377
1580421162.37941,0.274662394140478,-0.640878919661191,0.396734569314049
1580421162.38341,0.0305180437933359,-0.457770656900948,0.457770656900948
1580421162.38739,-0.213626306553806,-0.51880674448762,0.51880674448762
1580421162.39139,-0.274662394140478,-0.579842832074519,0.640878919661191
1580421162.39539,-0.274662394140478,-0.640878919661191,0.70191500724809
1580421162.39939,-0.335698481727377,-0.640878919661191,0.762951094834762
1580421162.40338,-0.396734569314049,-0.457770656900948,0.823987182421661
1580421162.40738,-0.213626306553806,-0.51880674448762,0.823987182421661
1580421162.41138,-0.091554131380235,-0.70191500724809,0.946059357595232
1580421162.41538,-0.0305180437933359,-0.823987182421661,1.12916762035547
1580421162.41938,-0.152590218966907,-0.762951094834762,1.12916762035547
1580421162.42338,-0.152590218966907,-0.579842832074519,1.19020370794237
1580421162.42738,-0.091554131380235,-0.457770656900948,1.31227588311594
1580421162.43138,-0.0305180437933359,-0.579842832074519,1.49538414587619
1580421162.43537,0.091554131380235,-0.51880674448762,1.49538414587619
1580421162.43937,0.0305180437933359,-0.640878919661191,1.61745632104976
1580421162.44337,0.274662394140478,-0.70191500724809,1.73952849622333
1580421162.44737,0.51880674448762,-0.762951094834762,1.80056458381023
1580421162.45137,0.70191500724809,-0.823987182421661,1.80056458381023
1580421162.45537,0.640878919661191,-0.823987182421661,1.98367284657047
1580421162.45937,0.762951094834762,-0.823987182421661,2.04470893415737
1580421162.46337,1.0070954451819,-0.762951094834762,2.04470893415737
1580421162.46738,1.25123979552905,-0.885023270008332,2.22781719691761
1580421162.47137,1.31227588311594,-0.885023270008332,2.41092545967808
1580421162.47537,1.19020370794237,-0.885023270008332,2.47196154726475
1580421162.47937,1.25123979552905,-0.885023270008332,2.41092545967808
1580421162.48337,1.12916762035547,-0.946059357595232,2.47196154726475
1580421162.48737,1.19020370794237,-0.946059357595232,2.65506981002522
1580421162.49137,1.31227588311594,-0.946059357595232,2.65506981002522
1580421162.49537,1.43434805828952,-0.946059357595232,2.65506981002522
1580421162.49937,1.55642023346309,-0.946059357595232,2.65506981002522
1580421162.50337,1.55642023346309,-0.762951094834762,2.7771419851988
1580421162.50736,1.73952849622333,-0.885023270008332,2.83817807278547
1580421162.51136,1.8616006713969,-0.946059357595232,3.02128633554594
1580421162.51536,1.80056458381023,-0.946059357595232,3.02128633554594
1580421162.51936,1.61745632104976,-0.946059357595232,3.08232242313261
1580421162.52336,1.61745632104976,-0.885023270008332,3.08232242313261
1580421162.52736,1.61745632104976,-0.823987182421661,3.02128633554594
1580421162.53136,1.49538414587619,-0.823987182421661,2.96025024795904
1580421162.53535,1.49538414587619,-0.885023270008332,3.08232242313261
1580421162.53935,1.61745632104976,-1.0070954451819,2.96025024795904
1580421162.54335,1.49538414587619,-0.885023270008332,2.89921416037237
1580421162.54733,1.55642023346309,-0.946059357595232,2.89921416037237
1580421162.55133,1.67849240863666,-0.823987182421661,2.96025024795904
1580421162.55533,1.9226367589838,-0.823987182421661,2.7771419851988
1580421162.55933,1.9226367589838,-0.70191500724809,2.7771419851988
1580421162.56333,2.16678110933094,-0.70191500724809,2.7771419851988
1580421162.56733,2.22781719691761,-0.823987182421661,2.7771419851988
1580421162.57132,2.47196154726475,-0.70191500724809,2.7161058976119
1580421162.57532,2.59403372243833,-0.640878919661191,2.7161058976119
1580421162.57932,2.65506981002522,-0.579842832074519,2.65506981002522
1580421162.58332,2.59403372243833,-0.579842832074519,2.53299763485165
1580421162.58732,2.59403372243833,-0.457770656900948,2.59403372243833
1580421162.59132,2.65506981002522,-0.51880674448762,2.53299763485165
1580421162.59532,2.83817807278547,-0.457770656900948,2.41092545967808
1580421162.59932,2.89921416037237,-0.396734569314049,2.34988937209118
1580421162.60331,2.7161058976119,-0.396734569314049,2.16678110933094
1580421162.60731,2.65506981002522,-0.579842832074519,1.98367284657047
1580421162.61131,2.47196154726475,-0.457770656900948,1.80056458381023
1580421162.61531,2.22781719691761,-0.396734569314049,1.55642023346309
1580421162.61931,1.9226367589838,-0.396734569314049,1.55642023346309
1580421162.62331,1.67849240863666,-0.457770656900948,1.37331197070262
1580421162.62732,1.61745632104976,-0.396734569314049,1.31227588311594
1580421162.63132,1.67849240863666,-0.51880674448762,1.31227588311594
1580421162.63532,1.49538414587619,-0.396734569314049,1.19020370794237
1580421162.63931,1.43434805828952,-0.274662394140478,1.12916762035547
1580421162.64331,1.37331197070262,-0.274662394140478,0.946059357595232
1580421162.64731,1.12916762035547,-0.091554131380235,0.762951094834762
1580421162.65131,1.0681315327688,-0.091554131380235,0.70191500724809
1580421162.65531,0.823987182421661,-0.0305180437933359,0.51880674448762
1580421162.65931,0.640878919661191,-0.152590218966907,0.335698481727377
1580421162.66331,0.51880674448762,-0.213626306553806,0.213626306553806
1580421162.66731,0.396734569314049,-0.274662394140478,0.152590218966907
1580421162.6713,0.396734569314049,-0.274662394140478,0.091554131380235
1580421162.6753,0.335698481727377,-0.152590218966907,-0.0305180437933359
1580421162.6793,0.152590218966907,-0.091554131380235,-0.091554131380235
1580421162.6833,-0.091554131380235,-0.0305180437933359,-0.213626306553806
1580421162.6873,-0.213626306553806,-0.152590218966907,-0.213626306553806
1580421162.6913,-0.213626306553806,-0.335698481727377,-0.396734569314049
1580421162.6953,-0.457770656900948,-0.091554131380235,-0.70191500724809
1580421162.6993,-0.70191500724809,0.0305180437933359,-0.885023270008332
1580421162.70329,-0.70191500724809,-0.457770656900948,-1.19020370794237
1580421162.70727,-1.0681315327688,-0.823987182421661,-1.19020370794237
1580421162.71127,-1.9226367589838,-0.70191500724809,-1.37331197070262
1580421162.71527,-2.53299763485165,-0.823987182421661,-1.61745632104976
1580421162.71927,-2.41092545967808,-0.946059357595232,-1.73952849622333
1580421162.72327,-2.22781719691761,-1.12916762035547,-1.73952849622333
1580421162.72727,-2.65506981002522,-1.31227588311594,-1.9226367589838
1580421162.73127,-2.83817807278547,-1.67849240863666,-1.9226367589838
1580421162.73527,-2.28885328450451,-1.8616006713969,-1.80056458381023
1580421162.73926,-1.67849240863666,-1.73952849622333,-1.67849240863666
1580421162.74326,-1.25123979552905,-1.67849240863666,-1.67849240863666
1580421162.74726,-1.0681315327688,-2.04470893415737,-1.55642023346309
1580421162.75126,-0.762951094834762,-2.16678110933094,-1.49538414587619
1580421162.75526,-0.396734569314049,-1.80056458381023,-1.37331197070262
1580421162.75926,-0.579842832074519,-1.43434805828952,-1.12916762035547
1580421162.76326,-0.457770656900948,-1.19020370794237,-1.12916762035547
1580421162.76726,-0.213626306553806,-1.0070954451819,-1.0070954451819
1580421162.77126,-0.396734569314049,-0.946059357595232,-0.823987182421661
1580421162.77525,-1.0070954451819,-1.0681315327688,-1.0070954451819
1580421162.77925,-1.8616006713969,-1.31227588311594,-1.25123979552905
1580421162.78325,-2.41092545967808,-1.61745632104976,-1.55642023346309
1580421162.78726,-2.83817807278547,-1.61745632104976,-1.8616006713969
1580421162.79126,-3.14335851071951,-1.37331197070262,-1.9226367589838
1580421162.79526,-3.14335851071951,-1.25123979552905,-1.9226367589838
1580421162.79926,-3.38750286106665,-1.37331197070262,-1.98367284657047
1580421162.80326,-3.44853894865332,-1.49538414587619,-1.98367284657047
1580421162.80726,-3.44853894865332,-1.55642023346309,-1.9226367589838
1580421162.81125,-3.81475547417404,-1.43434805828952,-1.98367284657047
1580421162.81525,-4.05889982452118,-1.55642023346309,-2.28885328450451
1580421162.81925,-4.05889982452118,-1.55642023346309,-2.41092545967808
1580421162.82325,-4.18097199969475,-1.49538414587619,-2.34988937209118
1580421162.82725,-4.42511635004189,-1.43434805828952,-2.22781719691761
1580421162.83125,-4.7913328755626,-1.25123979552905,-2.04470893415737
1580421162.83525,-5.15754940108332,-1.12916762035547,-1.8616006713969
1580421162.83924,-5.58480201419093,-1.12916762035547,-1.73952849622333
1580421162.84324,-5.82894636453807,-1.12916762035547,-1.55642023346309
1580421162.84724,-5.88998245212474,-1.25123979552905,-1.37331197070262
1580421162.85124,-5.7068741893645,-1.31227588311594,-1.25123979552905
1580421162.85524,-5.52376592660403,-1.49538414587619,-0.885023270008332
1580421162.85924,-5.40169375143046,-1.49538414587619,-0.640878919661191
1580421162.86324,-5.21858548867021,-1.49538414587619,-0.274662394140478
1580421162.86722,-5.15754940108332,-1.55642023346309,0.091554131380235
1580421162.87122,-5.03547722590974,-1.55642023346309,0.457770656900948
1580421162.87521,-4.8523689631495,-1.37331197070262,0.885023270008332
1580421162.87921,-4.73029678797593,-1.43434805828952,1.37331197070262
1580421162.88321,-4.36408026245522,-1.43434805828952,1.73952849622333
1580421162.88721,-4.11993591210808,-1.49538414587619,2.22781719691761
1580421162.89121,-3.69268329900046,-1.31227588311594,2.53299763485165
1580421162.89521,-3.38750286106665,-1.31227588311594,2.65506981002522
1580421162.89921,-3.38750286106665,-1.73952849622333,2.89921416037237
1580421162.90321,-3.99786373693451,-2.41092545967808,2.96025024795904
1580421162.9072,-5.27962157625689,-2.96025024795904,2.96025024795904
1580421162.9112,-6.74448767833974,-3.38750286106665,3.08232242313261
1580421162.9152,-8.45349813076973,-3.38750286106665,3.44853894865332
1580421162.9192,-9.55214770733187,-3.02128633554594,3.75371938658736
1580421162.9232,-9.73525597009234,-2.41092545967808,3.87579156176093
1580421162.9272,-9.67421988250544,-2.10574502174404,3.63164721141379
1580421162.9312,-9.73525597009234,-2.41092545967808,3.38750286106665
1580421162.9352,-9.79629205767901,-2.65506981002522,3.44853894865332
1580421162.93919,-9.4911116197452,-2.47196154726475,3.63164721141379
1580421162.94319,-9.06385900663759,-2.28885328450451,3.93682764934761
1580421162.9472,-8.6366063935302,-1.80056458381023,4.18097199969475
1580421162.9512,-8.08728160524902,-1.49538414587619,4.66926070038903
1580421162.9552,-8.02624551766235,-1.43434805828952,4.8523689631495
1580421162.9592,-8.02624551766235,-1.37331197070262,5.15754940108332
1580421162.9632,-7.66002899214163,-1.43434805828952,5.34065766384379
1580421162.9672,-7.47692072938116,-1.67849240863666,5.6458381017776
1580421162.9712,-7.41588464179449,-1.80056458381023,5.88998245212474
1580421162.9752,-7.11070420386045,-1.8616006713969,6.01205462729831
1580421162.97919,-6.86655985351331,-1.8616006713969,6.25619897764545
1580421162.98319,-6.62241550316617,-1.8616006713969,6.37827115281902
1580421162.98719,-6.37827115281902,-2.04470893415737,6.62241550316617
1580421162.99119,-5.88998245212474,-2.16678110933094,6.86655985351331
1580421162.99519,-5.52376592660403,-2.22781719691761,7.17174029144735
1580421162.99919,-5.09651331349664,-2.28885328450451,7.41588464179449
1580421163.00319,-4.73029678797593,-2.53299763485165,7.35484855420759
1580421163.00719,-4.05889982452118,-2.53299763485165,7.35484855420759
1580421163.01118,-3.69268329900046,-2.59403372243833,7.53795681696806
1580421163.01518,-3.20439459830618,-2.53299763485165,7.53795681696806
1580421163.01918,-3.02128633554594,-2.59403372243833,7.72106507972831
1580421163.02318,-3.02128633554594,-2.7161058976119,7.90417334248878
1580421163.02716,-2.96025024795904,-2.65506981002522,8.20935378042259
1580421163.03116,-3.02128633554594,-2.47196154726475,8.33142595559616
1580421163.03516,-2.53299763485165,-2.65506981002522,8.39246204318306
1580421163.03916,-2.10574502174404,-2.96025024795904,8.20935378042259
1580421163.04315,-1.9226367589838,-3.20439459830618,8.02624551766235
1580421163.04715,-2.16678110933094,-3.08232242313261,7.66002899214163
1580421163.05115,-2.65506981002522,-3.02128633554594,7.66002899214163
1580421163.05515,-3.02128633554594,-2.83817807278547,7.53795681696806
1580421163.05915,-3.57061112382689,-2.83817807278547,7.53795681696806
1580421163.06315,-3.93682764934761,-2.89921416037237,7.66002899214163
1580421163.06715,-4.8523689631495,-2.89921416037237,7.72106507972831
1580421163.07115,-6.25619897764545,-3.32646677347975,7.53795681696806
1580421163.07515,-7.84313725490188,-3.75371938658736,7.29381246662092
1580421163.07914,-8.88075074387734,-3.99786373693451,6.86655985351331
1580421163.08314,-9.06385900663759,-4.11993591210808,6.56137941557949
1580421163.08714,-8.75867856870377,-4.36408026245522,6.37827115281902
1580421163.09114,-8.14831769283592,-4.48615243762879,6.19516289005878
1580421163.09514,-7.96520943007545,-4.66926070038903,5.95101853971164
1580421163.09914,-8.20935378042259,-4.60822461280236,5.82894636453807
1580421163.10314,-8.27038986800949,-4.24200808728165,5.76791027695117
1580421163.10715,-8.02624551766235,-4.11993591210808,5.88998245212474
1580421163.11115,-7.84313725490188,-4.24200808728165,5.82894636453807
1580421163.11514,-7.84313725490188,-4.24200808728165,6.01205462729831
1580421163.11914,-8.14831769283592,-4.18097199969475,6.07309071488521
1580421163.12314,-8.27038986800949,-3.93682764934761,5.95101853971164
1580421163.12714,-8.51453421835663,-3.87579156176093,5.88998245212474
1580421163.13114,-8.5755703059433,-3.99786373693451,5.82894636453807
1580421163.13514,-8.27038986800949,-3.99786373693451,5.58480201419093
1580421163.13914,-6.74448767833974,-3.81475547417404,5.46272983901736
1580421163.14314,-4.24200808728165,-3.69268329900046,5.52376592660403
1580421163.14713,-1.0681315327688,-3.63164721141379,5.82894636453807
1580421163.15113,2.22781719691761,-3.50957503624022,6.19516289005878
1580421163.15513,4.7913328755626,-3.02128633554594,6.62241550316617
1580421163.15913,6.80552376592664,-2.28885328450451,6.68345159075307
1580421163.16313,8.88075074387734,-1.67849240863666,6.56137941557949
1580421163.16713,10.8339055466545,-1.31227588311594,6.56137941557949
1580421163.17113,12.0546272983902,-1.12916762035547,6.5003433279926
1580421163.17513,12.5429159990845,-1.0070954451819,6.80552376592664
1580421163.17912,11.9935912108033,-0.579842832074519,7.04966811627378
1580421163.18312,10.955977721828,0.091554131380235,7.11070420386045
1580421163.1871,9.85732814526591,0.640878919661191,7.11070420386045
1580421163.1911,9.06385900663759,1.12916762035547,6.62241550316617
1580421163.1951,9.18593118181116,1.31227588311594,6.43930724040592
1580421163.1991,9.67421988250544,1.43434805828952,6.31723506523235
1580421163.2031,10.5897611963073,1.73952849622333,6.31723506523235
1580421163.2071,11.1390859845883,2.16678110933094,6.37827115281902
1580421163.21109,11.505302510109,2.59403372243833,6.19516289005878
1580421163.21509,11.5663385976959,3.02128633554594,6.19516289005878
1580421163.21909,10.955977721828,3.20439459830618,6.19516289005878
1580421163.22309,9.36903944457163,3.63164721141379,5.95101853971164
1580421163.22709,7.41588464179449,4.05889982452118,5.82894636453807
1580421163.23109,4.73029678797593,4.48615243762879,5.40169375143046
1580421163.23509,1.49538414587619,4.54718852521546,4.91340505073617
1580421163.23909,-2.28885328450451,5.03547722590974,4.11993591210808
1580421163.24308,-5.76791027695117,5.6458381017776,3.26543068589308
1580421163.24708,-9.24696726939806,6.56137941557949,2.7771419851988
1580421163.25108,-12.4818799114976,6.68345159075307,1.9226367589838
1580421163.25508,-15.3505760280766,6.56137941557949,1.49538414587619
1580421163.25908,-18.341344319829,5.88998245212474,1.19020370794237
1580421163.26308,-22.0035095750361,5.82894636453807,0.640878919661191
1580421163.26709,-25.6046387426566,5.82894636453807,-0.335698481727377
1580421163.27109,-28.7174792095825,5.7068741893645,-1.43434805828952
1580421163.27509,-31.0368505378804,5.34065766384379,-1.98367284657047
1580421163.27909,-33.0510414282446,5.15754940108332,-2.41092545967808
1580421163.28308,-34.8821240558482,4.97444113832307,-2.59403372243833
1580421163.28708,-36.4080262455177,5.03547722590974,-2.7161058976119
1580421163.29108,-37.0794232089725,5.21858548867021,-3.02128633554594
1580421163.29508,-36.7742427710384,5.34065766384379,-3.44853894865332
1580421163.29908,-35.1262684061953,4.97444113832307,-3.75371938658736
1580421163.30308,-32.0134279392691,4.60822461280236,-3.81475547417404
1580421163.30708,-27.6798657206073,3.99786373693451,-3.69268329900046
1580421163.31108,-22.919050888838,3.44853894865332,-3.63164721141379
1580421163.31507,-18.0361638818952,3.08232242313261,-3.75371938658736
1580421163.31907,-13.3974212252995,3.02128633554594,-3.99786373693451
1580421163.32307,-8.81971465629044,2.7771419851988,-4.42511635004189
1580421163.32707,-4.66926070038903,2.96025024795904,-4.8523689631495
1580421163.33107,-0.579842832074519,3.32646677347975,-5.15754940108332
1580421163.33507,3.20439459830618,3.63164721141379,-5.88998245212474
1580421163.33907,6.86655985351331,3.81475547417404,-6.80552376592664
1580421163.34307,9.55214770733187,3.99786373693451,-7.72106507972831
1580421163.34705,11.2001220721752,4.18097199969475,-8.33142595559616
1580421163.35104,12.0546272983902,4.36408026245522,-8.81971465629044
1580421163.35504,11.810482948043,4.54718852521546,-9.30800335698473
1580421163.35904,10.4676890211338,4.60822461280236,-10.1014724956131
1580421163.36304,7.53795681696806,5.03547722590974,-11.0780498970016
1580421163.36704,3.50957503624022,5.88998245212474,-12.1156633859769
1580421163.37104,-0.885023270008332,7.11070420386045,-13.3974212252995
1580421163.37504,-4.97444113832307,8.51453421835663,-15.228503852903
1580421163.37904,-8.33142595559616,9.55214770733187,-17.0595864805066
1580421163.38303,-10.4676890211338,10.2235446707866,-18.646524757763
1580421163.38703,-12.1156633859769,10.5897611963073,-20.2334630350194
1580421163.39103,-13.519493400473,11.2611581597619,-21.6372930495154
1580421163.39503,-14.4960708018616,11.9325551232166,-22.7359426260775
1580421163.39903,-15.4726482032502,12.2987716487373,-23.5904478522925
1580421163.40303,-17.486839093614,12.9091325246052,-24.322880903334
1580421163.40703,-20.355535210193,13.8857099259938,-25.2384222171358
1580421163.41103,-23.4073395895323,15.1064316777295,-25.8487830930037
1580421163.41502,-25.4215304798961,16.0219729915311,-26.5812161440451
1580421163.41902,-25.9708552681773,16.5712977798123,-27.5577935454337
1580421163.42302,-25.4215304798961,16.632333867399,-28.6564431219958
1580421163.42703,-23.6514839398794,16.6933699549859,-29.6940566109711
1580421163.43103,-20.4776073853666,17.3037308308537,-30.6706340123596
1580421163.43503,-15.9609369039445,18.2192721446554,-31.3420309758146
1580421163.43903,-10.5897611963073,18.9517051956968,-31.9523918516825
1580421163.44303,-4.7913328755626,19.501029983978,-32.3796444647899
1580421163.44703,0.70191500724809,19.6841382467383,-32.623788815137
1580421163.45103,5.34065766384379,19.9282825970854,-32.7458609903106
1580421163.45502,8.5755703059433,20.4776073853666,-32.4406805523768
1580421163.45902,10.650797283894,21.4541847867551,-32.1965362020296
1580421163.46302,10.955977721828,22.6749065384909,-31.9523918516825
1580421163.46702,9.85732814526591,23.6514839398794,-31.5251392385749
1580421163.47102,7.53795681696806,24.4449530785075,-30.8537422751201
1580421163.47502,4.42511635004189,24.628061341268,-30.2433813992523
1580421163.47902,0.70191500724809,24.5059891660944,-29.8771648737315
1580421163.48301,-3.50957503624022,24.1397726405737,-29.6940566109711
1580421163.48701,-7.47692072938116,24.1397726405737,-29.6940566109711
1580421163.49101,-10.1014724956131,23.8345922026397,-29.9992370489051
1580421163.49501,-10.8949416342411,23.0411230640116,-30.4875257495994
1580421163.49901,-9.55214770733187,21.5152208743418,-31.3420309758146
1580421163.50301,-6.92759594110021,19.5620660715647,-32.3796444647899
1580421163.50699,-3.99786373693451,17.9751277943083,-33.1120775158313
1580421163.51099,-0.762951094834762,17.3037308308537,-33.6614023041125
1580421163.51499,2.7161058976119,16.5102616922254,-34.4548714427406
1580421163.51898,5.76791027695117,15.4726482032502,-35.187304493782
1580421163.52298,6.98863202868688,14.8012512397954,-35.9807736324103
1580421163.52698,4.42511635004189,14.8622873273823,-36.7132066834517
1580421163.53098,-1.37331197070262,15.6557564660104,-37.3235675593196
1580421163.53498,-8.69764248111687,16.4492256046387,-38.056000610361
1580421163.53898,-16.2661173418783,16.9985503929197,-39.6429388876174
1580421163.54298,-22.4307621881437,15.9609369039445,-41.7181658655682
1580421163.54698,-26.0929274433508,13.9467460135804,-43.5492484931717
1580421163.55097,-27.2526131074997,11.8715190356297,-45.1972228580148
1580421163.55497,-25.482566567483,10.5287251087204,-46.4179446097505
1580421163.55897,-21.2710765239947,9.36903944457163,-47.455558098726
1580421163.56297,-15.1064316777295,8.20935378042259,-48.3710994125277
1580421163.56697,-8.39246204318306,6.56137941557949,-48.8593881132219
1580421163.57097,-2.41092545967808,5.46272983901736,-48.8593881132219
1580421163.57497,1.73952849622333,5.34065766384379,-48.4321355001146
1580421163.57897,3.75371938658736,6.37827115281902,-47.5776302738996
1580421163.58296,4.36408026245522,7.53795681696806,-47.2114137483788
1580421163.58697,3.87579156176093,7.7821011673152,-47.6386663614862
1580421163.59097,1.8616006713969,7.72106507972831,-48.6762798504617
1580421163.59497,-0.762951094834762,7.72106507972831,-49.9580376897841
1580421163.59897,-2.83817807278547,8.14831769283592,-50.873579003586
1580421163.60297,-3.20439459830618,8.33142595559616,-51.4229037918669
1580421163.60697,-2.47196154726475,8.33142595559616,-51.728084229801
1580421163.61097,-1.43434805828952,7.66002899214163,-52.2163729304953
1580421163.61497,-0.335698481727377,6.80552376592664,-52.5215533684291
1580421163.61896,1.0070954451819,6.37827115281902,-52.0332646677348
1580421163.62296,2.22781719691761,6.5003433279926,-50.6904707408255
1580421163.62696,3.14335851071951,7.59899290455473,-49.2866407263296
1580421163.63096,3.08232242313261,8.45349813076973,-48.1269550621805
1580421163.63496,1.98367284657047,8.69764248111687,-47.5776302738996
1580421163.63896,-0.0305180437933359,9.06385900663759,-47.0893415732053
1580421163.64296,-2.41092545967808,9.36903944457163,-46.4179446097505
1580421163.64696,-4.24200808728165,10.4676890211338,-45.5024032959489
1580421163.65095,-4.8523689631495,11.4442664225223,-44.7089341573205
1580421163.65495,-4.30304417486832,11.7494468604561,-44.4647898069734
1580421163.65895,-3.38750286106665,11.5663385976959,-44.5258258945603
1580421163.66295,-2.04470893415737,10.8949416342411,-44.4647898069734
1580421163.66693,0.274662394140478,10.2235446707866,-43.732356755932
1580421163.67093,4.48615243762879,9.91836423285258,-42.7557793545434
1580421163.67493,9.4300755321583,9.91836423285258,-41.5350576028077
1580421163.67893,13.5805294880597,9.85732814526591,-40.4974441138324
1580421163.68293,15.7167925535973,10.0404364080262,-39.8870832379646
1580421163.68692,15.4116121156633,10.1625085831997,-39.459830624857
1580421163.69092,12.664988174258,10.650797283894,-39.7039749752041
1580421163.69492,8.08728160524902,11.3832303349354,-40.4364080262455
1580421163.69892,3.50957503624022,12.4208438239109,-42.0843823910889
1580421163.70292,0.885023270008332,12.7870603494316,-44.0985732814527
1580421163.70692,1.55642023346309,11.9935912108033,-45.3803311207753
1580421163.71092,4.91340505073617,11.2001220721752,-45.746547646296
1580421163.71492,9.00282291905091,10.955977721828,-44.7699702449074
1580421163.71891,11.1390859845883,11.810482948043,-43.183031967651
1580421163.72291,10.5287251087204,13.3363851377126,-41.7792019531548
1580421163.72691,6.86655985351331,14.8012512397954,-41.2298771648739
1580421163.73091,1.31227588311594,16.3271534294652,-41.168841077287
1580421163.73491,-4.11993591210808,17.3647669184404,-41.474021515221
1580421163.73891,-7.84313725490188,18.1582360570687,-41.5350576028077
1580421163.74291,-8.81971465629044,18.5854886701761,-41.2909132524605
1580421163.74692,-7.35484855420759,18.4023804074159,-40.8026245517663
1580421163.75092,-3.87579156176093,17.5478751812009,-40.0701915007248
1580421163.75491,0.335698481727377,16.3881895170518,-38.9715419241627
1580421163.75891,5.6458381017776,15.1674677653161,-37.4456397344932
1580421163.76291,10.8339055466545,14.373998626688,-35.3704127565425
1580421163.76691,14.5571068894483,14.0077821011673,-33.3562218661784
1580421163.77091,15.5947203784237,13.5805294880597,-31.769283588922
1580421163.77491,14.068818188754,12.9701686121919,-30.8537422751201
1580421163.77891,10.4066529335469,12.6039520866711,-30.6706340123596
1580421163.78291,6.07309071488521,11.810482948043,-30.8537422751201
1580421163.7869,2.28885328450451,10.650797283894,-31.3420309758146
1580421163.7909,-0.51880674448762,9.61318379491877,-31.769283588922
1580421163.7949,-2.65506981002522,8.69764248111687,-32.0134279392691
1580421163.7989,-4.30304417486832,7.90417334248878,-32.3796444647899
1580421163.8029,-5.46272983901736,7.29381246662092,-32.7458609903106
1580421163.8069,-6.01205462729831,6.5003433279926,-32.9900053406577
1580421163.8109,-5.88998245212474,6.01205462729831,-33.0510414282446
1580421163.8149,-5.82894636453807,5.88998245212474,-33.1731136034182
1580421163.81889,-5.21858548867021,5.7068741893645,-32.9900053406577
1580421163.82289,-3.81475547417404,5.21858548867021,-32.8068970778975
1580421163.82687,-1.67849240863666,4.7913328755626,-32.3186083772032
1580421163.83087,1.67849240863666,4.42511635004189,-31.4030670634013
1580421163.83487,5.58480201419093,3.38750286106665,-29.755092698558
1580421163.83887,9.30800335698473,2.34988937209118,-27.8019378957808
1580421163.84287,11.4442664225223,1.9226367589838,-25.9098191805904
1580421163.84687,11.4442664225223,1.8616006713969,-24.4449530785075
1580421163.85087,9.4300755321583,2.28885328450451,-24.0177004654001
1580421163.85486,5.88998245212474,2.83817807278547,-24.5059891660944
1580421163.85886,2.04470893415737,3.02128633554594,-25.5436026550697
1580421163.86286,-1.0070954451819,2.28885328450451,-26.6422522316318
1580421163.86686,-2.53299763485165,1.25123979552905,-27.1305409323261
1580421163.87086,-1.43434805828952,0.335698481727377,-27.1305409323261
1580421163.87486,0.70191500724809,-0.640878919661191,-26.5201800564582
1580421163.87886,2.59403372243833,-1.37331197070262,-25.9098191805904
1580421163.88286,3.32646677347975,-1.37331197070262,-25.0553139543754
1580421163.88685,2.83817807278547,-0.823987182421661,-24.4449530785075
1580421163.89085,1.61745632104976,-0.823987182421661,-24.0177004654001
1580421163.89485,1.49538414587619,-1.19020370794237,-23.5294117647059
1580421163.89885,3.38750286106665,-2.16678110933094,-22.613870450904
1580421163.90285,5.15754940108332,-2.89921416037237,-21.4541847867551
1580421163.90686,6.92759594110021,-3.14335851071951,-19.9893186846723
1580421163.91086,7.84313725490188,-3.14335851071951,-18.7685969329366
1580421163.91486,6.86655985351331,-3.38750286106665,-17.9751277943083
1580421163.91886,3.44853894865332,-3.44853894865332,-17.9751277943083
1580421163.92285,-0.640878919661191,-3.69268329900046,-18.646524757763
1580421163.92685,-3.32646677347975,-4.11993591210808,-19.6231021591516
1580421163.93085,-3.75371938658736,-4.66926070038903,-20.4776073853666
1580421163.93485,-2.65506981002522,-5.27962157625689,-20.904859998474
1580421163.93885,-0.640878919661191,-5.7068741893645,-21.0269321736475
1580421163.94285,1.55642023346309,-6.01205462729831,-20.7217517357137
1580421163.94685,3.14335851071951,-5.95101853971164,-20.1113908598459
1580421163.95085,3.63164721141379,-6.01205462729831,-19.2568856336309
1580421163.95484,3.26543068589308,-5.58480201419093,-18.8296330205233
1580421163.95884,3.02128633554594,-5.03547722590974,-18.646524757763
1580421163.96284,3.14335851071951,-4.36408026245522,-18.5854886701761
1580421163.96684,3.32646677347975,-3.87579156176093,-18.4023804074159
1580421163.97084,3.87579156176093,-3.32646677347975,-18.0361638818952
1580421163.97484,4.48615243762879,-2.89921416037237,-17.792019531548
1580421163.97884,4.60822461280236,-2.04470893415737,-17.5478751812009
1580421163.98284,4.24200808728165,-1.12916762035547,-17.4258030060273
1580421163.98682,3.44853894865332,-0.213626306553806,-17.4258030060273
1580421163.99081,2.7771419851988,0.762951094834762,-17.7309834439611
1580421163.99481,2.47196154726475,1.55642023346309,-18.0361638818952
1580421163.99881,2.47196154726475,2.16678110933094,-18.2803082322423
1580421164.00281,2.47196154726475,2.47196154726475,-18.4634164950025
1580421164.00681,2.10574502174404,3.08232242313261,-18.5244525825894
1580421164.01081,1.55642023346309,3.50957503624022,-18.5854886701761
1580421164.01481,0.457770656900948,3.93682764934761,-18.7075608453497
1580421164.01881,-1.31227588311594,3.93682764934761,-19.1348134584573
1580421164.0228,-3.32646677347975,3.99786373693451,-19.9893186846723
1580421164.0268,-4.60822461280236,3.87579156176093,-20.9658960860609
1580421164.0308,-4.24200808728165,3.50957503624022,-21.5152208743418
1580421164.0348,-2.10574502174404,3.02128633554594,-21.4541847867551
1580421164.0388,0.274662394140478,2.10574502174404,-21.0269321736475
1580421164.0428,1.31227588311594,1.49538414587619,-20.5386434729533
1580421164.0468,0.885023270008332,1.37331197070262,-20.4165712977797
1580421164.0508,-0.396734569314049,1.49538414587619,-20.8438239108873
1580421164.0548,-2.28885328450451,1.37331197070262,-21.5762569619287
1580421164.05879,-3.32646677347975,0.946059357595232,-22.3697261005568
1580421164.06279,-3.75371938658736,0.457770656900948,-23.0411230640116
1580421164.0668,-3.81475547417404,-0.274662394140478,-23.2242313267718
1580421164.0708,-3.50957503624022,-0.946059357595232,-23.468375677119
1580421164.0748,-3.50957503624022,-1.43434805828952,-23.773556115053
1580421164.0788,-3.75371938658736,-2.04470893415737,-24.0177004654001
1580421164.0828,-3.50957503624022,-2.59403372243833,-24.2008087281604
1580421164.0868,-2.7771419851988,-3.08232242313261,-24.1397726405737
1580421164.0908,-1.0681315327688,-3.93682764934761,-24.1397726405737
1580421164.09479,1.43434805828952,-4.54718852521546,-23.773556115053
1580421164.09879,4.30304417486832,-5.15754940108332,-22.919050888838
1580421164.10279,7.04966811627378,-5.82894636453807,-21.6983291371023
1580421164.10679,8.69764248111687,-6.07309071488521,-20.4165712977797
1580421164.11079,9.06385900663759,-6.25619897764545,-19.6841382467383
1580421164.11479,8.45349813076973,-5.82894636453807,-19.501029983978
1580421164.11879,7.11070420386045,-5.27962157625689,-20.050354772259
1580421164.12278,5.52376592660403,-4.8523689631495,-20.904859998474
1580421164.12678,4.42511635004189,-4.73029678797593,-21.3321126115816
1580421164.13078,3.99786373693451,-4.7913328755626,-21.4541847867551
1580421164.13478,4.05889982452118,-5.21858548867021,-21.0879682612344
1580421164.13878,3.93682764934761,-5.21858548867021,-20.4165712977797
1580421164.14278,3.87579156176093,-4.7913328755626,-20.1113908598459
1580421164.14679,3.14335851071951,-4.24200808728165,-20.1113908598459
1580421164.15079,2.34988937209118,-3.57061112382689,-20.2334630350194
1580421164.15479,1.8616006713969,-2.96025024795904,-20.1724269474325
1580421164.15878,1.25123979552905,-2.47196154726475,-20.1113908598459
1580421164.16278,0.885023270008332,-2.04470893415737,-19.8672465094987
1580421164.16678,0.335698481727377,-1.55642023346309,-19.501029983978
1580421164.17078,-0.274662394140478,-1.25123979552905,-19.1348134584573
1580421164.17478,-1.37331197070262,-0.946059357595232,-18.8296330205233
1580421164.17878,-2.22781719691761,-0.579842832074519,-18.8296330205233
1580421164.18278,-2.7161058976119,-0.335698481727377,-18.8906691081102
1580421164.18678,-2.53299763485165,-0.152590218966907,-18.7685969329366
1580421164.19077,-2.22781719691761,-0.0305180437933359,-18.5854886701761
1580421164.19477,-1.80056458381023,0.091554131380235,-18.4023804074159
1580421164.19877,-2.53299763485165,0.457770656900948,-18.5244525825894
1580421164.20277,-3.50957503624022,0.823987182421661,-18.7685969329366
1580421164.20677,-4.05889982452118,1.12916762035547,-18.8296330205233
1580421164.21077,-3.99786373693451,1.31227588311594,-18.646524757763
1580421164.21477,-3.26543068589308,1.0070954451819,-18.2803082322423
1580421164.21877,-2.59403372243833,0.946059357595232,-18.0361638818952
1580421164.22277,-1.73952849622333,1.12916762035547,-17.7309834439611
1580421164.22674,-1.25123979552905,1.31227588311594,-17.486839093614
1580421164.23074,-0.70191500724809,1.49538414587619,-17.3037308308537
1580421164.23474,-0.70191500724809,1.67849240863666,-17.0595864805066
1580421164.23874,-0.457770656900948,1.61745632104976,-16.632333867399
1580421164.24274,-0.0305180437933359,1.55642023346309,-16.2050812542916
1580421164.24674,0.0305180437933359,1.49538414587619,-15.5947203784237
1580421164.25074,0.396734569314049,1.31227588311594,-15.1064316777295
1580421164.25474,0.640878919661191,1.43434805828952,-14.6791790646218
1580421164.25873,1.12916762035547,1.43434805828952,-14.373998626688
1580421164.26273,1.55642023346309,1.49538414587619,-13.9467460135804
1580421164.26673,2.10574502174404,1.67849240863666,-13.6415655756466
1580421164.27073,2.59403372243833,1.37331197070262,-13.4584573128861
1580421164.27473,2.59403372243833,1.73952849622333,-13.2753490501259
1580421164.27873,2.22781719691761,1.98367284657047,-13.0312046997788
1580421164.28273,1.43434805828952,1.9226367589838,-12.9091325246052
1580421164.28673,0.51880674448762,1.98367284657047,-12.664988174258
1580421164.29072,-0.335698481727377,1.9226367589838,-12.7260242618447
1580421164.29472,-1.0070954451819,1.55642023346309,-12.7260242618447
1580421164.29872,-1.31227588311594,1.31227588311594,-12.8480964370183
1580421164.30272,-1.19020370794237,1.12916762035547,-12.7260242618447
1580421164.30673,-0.885023270008332,0.885023270008332,-12.6039520866711
1580421164.31073,-1.12916762035547,0.885023270008332,-12.2377355611504
1580421164.31473,-1.61745632104976,0.762951094834762,-11.8715190356297
1580421164.31873,-2.34988937209118,0.396734569314049,-11.6273746852826
1580421164.32273,-2.89921416037237,0.0305180437933359,-11.3221942473488
1580421164.32673,-3.57061112382689,-0.091554131380235,-11.0170138094147
1580421164.33072,-4.11993591210808,-0.335698481727377,-10.5897611963073
1580421164.33472,-4.91340505073617,-0.579842832074519,-10.4676890211338
1580421164.33872,-5.6458381017776,-1.0070954451819,-10.3456168459602
1580421164.34272,-5.27962157625689,-1.55642023346309,-10.1014724956131
1580421164.34672,-3.44853894865332,-2.22781719691761,-9.12489509422448
1580421164.35072,-1.19020370794237,-2.7161058976119,-7.90417334248878
1580421164.35472,0.213626306553806,-2.83817807278547,-6.86655985351331
1580421164.35872,0.579842832074519,-2.83817807278547,-6.13412680247188
1580421164.36271,0.091554131380235,-2.65506981002522,-5.88998245212474
1580421164.36671,-0.579842832074519,-2.59403372243833,-5.7068741893645
1580421164.37071,-0.51880674448762,-2.47196154726475,-5.34065766384379
1580421164.37471,0.213626306553806,-2.53299763485165,-4.8523689631495
1580421164.37871,1.0681315327688,-2.53299763485165,-4.05889982452118
1580421164.38271,1.80056458381023,-2.47196154726475,-3.26543068589308
1580421164.38669,2.22781719691761,-2.59403372243833,-2.83817807278547
1580421164.39069,2.47196154726475,-2.59403372243833,-2.65506981002522
1580421164.39469,2.65506981002522,-2.22781719691761,-2.41092545967808
1580421164.39868,3.44853894865332,-1.73952849622333,-2.16678110933094
1580421164.40268,5.15754940108332,-0.823987182421661,-1.67849240863666
1580421164.40668,6.62241550316617,-0.274662394140478,-0.823987182421661
1580421164.41068,7.04966811627378,0.762951094834762,0.152590218966907
1580421164.41468,6.56137941557949,1.9226367589838,0.885023270008332
1580421164.41868,5.03547722590974,2.96025024795904,1.12916762035547
1580421164.42268,3.26543068589308,4.11993591210808,0.946059357595232
1580421164.42667,2.10574502174404,4.91340505073617,0.823987182421661
1580421164.43067,1.67849240863666,5.76791027695117,0.885023270008332
1580421164.43467,1.55642023346309,6.19516289005878,1.25123979552905
1580421164.43867,0.885023270008332,6.68345159075307,1.55642023346309
1580421164.44267,-0.152590218966907,7.17174029144735,1.61745632104976
1580421164.44667,-0.885023270008332,7.35484855420759,1.8616006713969
1580421164.45067,-1.61745632104976,7.17174029144735,2.10574502174404
1580421164.45467,-2.10574502174404,6.86655985351331,2.47196154726475
1580421164.45866,-1.8616006713969,6.56137941557949,2.89921416037237
1580421164.46266,-1.73952849622333,6.31723506523235,3.44853894865332
1580421164.46667,-1.55642023346309,6.31723506523235,4.05889982452118
1580421164.47067,-1.80056458381023,6.31723506523235,4.42511635004189
1580421164.47467,-2.16678110933094,6.31723506523235,4.73029678797593
1580421164.47867,-2.47196154726475,6.07309071488521,5.03547722590974
1580421164.48267,-2.7161058976119,5.58480201419093,5.27962157625689
1580421164.48667,-3.20439459830618,5.03547722590974,5.21858548867021
1580421164.49067,-3.50957503624022,4.60822461280236,4.97444113832307
1580421164.49467,-2.7161058976119,3.81475547417404,4.73029678797593
1580421164.49866,-0.579842832074519,3.02128633554594,4.97444113832307
1580421164.50266,1.98367284657047,2.28885328450451,6.07309071488521
1580421164.50666,4.05889982452118,1.55642023346309,7.29381246662092
1580421164.51066,4.97444113832307,1.12916762035547,8.27038986800949
1580421164.51466,4.54718852521546,0.51880674448762,8.75867856870377
1580421164.51866,2.7771419851988,-0.091554131380235,8.75867856870377
1580421164.52266,0.885023270008332,-0.640878919661191,8.51453421835663
1580421164.52666,-0.091554131380235,-1.31227588311594,8.20935378042259
1580421164.53065,0.213626306553806,-1.8616006713969,8.20935378042259
1580421164.53465,1.67849240863666,-2.59403372243833,8.39246204318306
1580421164.53865,3.14335851071951,-3.08232242313261,9.06385900663759
1580421164.54265,3.69268329900046,-3.69268329900046,9.61318379491877
1580421164.54663,2.7771419851988,-4.11993591210808,9.85732814526591
1580421164.55063,0.762951094834762,-4.97444113832307,9.4300755321583
1580421164.55463,-2.16678110933094,-5.6458381017776,8.39246204318306
1580421164.55863,-4.54718852521546,-6.25619897764545,7.29381246662092
1580421164.56263,-4.48615243762879,-6.86655985351331,6.74448767833974
1580421164.56662,-2.10574502174404,-7.7821011673152,6.86655985351331
1580421164.57062,0.396734569314049,-8.39246204318306,7.66002899214163
1580421164.57462,2.34988937209118,-8.69764248111687,8.5755703059433
1580421164.57862,2.59403372243833,-8.6366063935302,9.18593118181116
1580421164.58262,1.31227588311594,-8.5755703059433,9.4911116197452
1580421164.58662,-0.823987182421661,-8.51453421835663,9.55214770733187
1580421164.59062,-3.63164721141379,-8.5755703059433,9.4300755321583
1580421164.59462,-7.11070420386045,-8.88075074387734,9.12489509422448
1580421164.59861,-11.505302510109,-9.00282291905091,7.90417334248878
1580421164.60261,-16.6933699549859,-9.12489509422448,6.25619897764545
1580421164.60661,-19.8062104219118,-9.4300755321583,4.60822461280236
1580421164.61061,-17.6089112687876,-9.79629205767901,4.18097199969475
1580421164.61461,-10.5287251087204,-10.5287251087204,5.46272983901736
1580421164.61861,-1.9226367589838,-11.5663385976959,8.08728160524902
1580421164.62261,4.18097199969475,-11.6884107728695,10.7728694590676
1580421164.62662,6.19516289005878,-11.0170138094147,12.5429159990845
1580421164.63062,4.30304417486832,-10.1014724956131,13.0922407873654
1580421164.63461,0.335698481727377,-9.18593118181116,12.6039520866711
1580421164.63861,-3.38750286106665,-8.51453421835663,11.8715190356297
1580421164.64261,-5.34065766384379,-8.08728160524902,11.3832303349354
1580421164.64661,-5.6458381017776,-7.84313725490188,11.505302510109
1580421164.65061,-5.03547722590974,-7.47692072938116,11.7494468604561
1580421164.65461,-4.30304417486832,-7.04966811627378,12.2987716487373
1580421164.65861,-4.36408026245522,-6.56137941557949,13.0312046997788
1580421164.66261,-5.58480201419093,-6.01205462729831,13.7636377508202
1580421164.6666,-7.66002899214163,-5.82894636453807,13.8857099259938
1580421164.6706,-9.4911116197452,-5.58480201419093,13.7636377508202
1580421164.6746,-9.79629205767901,-5.34065766384379,13.3974212252995
1580421164.6786,-8.14831769283592,-4.7913328755626,13.3363851377126
1580421164.6826,-5.21858548867021,-4.24200808728165,13.8857099259938
1580421164.6866,-2.10574502174404,-3.63164721141379,14.6181429770352
1580421164.6906,-0.51880674448762,-3.02128633554594,15.4726482032502
1580421164.6946,-0.213626306553806,-2.34988937209118,16.3271534294652
1580421164.6986,-0.885023270008332,-1.80056458381023,17.1206225680933
1580421164.70259,-2.41092545967808,-0.823987182421661,17.486839093614
1580421164.70657,-4.60822461280236,-0.152590218966907,17.3647669184404
1580421164.71057,-5.6458381017776,0.457770656900948,16.9985503929197
1580421164.71457,-4.91340505073617,0.885023270008332,17.0595864805066
1580421164.71857,-2.7161058976119,1.0070954451819,17.4258030060273
1580421164.72257,-0.091554131380235,1.19020370794237,18.4023804074159
1580421164.72657,1.73952849622333,1.43434805828952,19.3789578088044
1580421164.73057,2.22781719691761,1.8616006713969,20.2944991226061
1580421164.73456,0.946059357595232,2.41092545967808,20.5996795605402
1580421164.73856,-1.12916762035547,3.02128633554594,20.5386434729533
1580421164.74256,-3.38750286106665,3.57061112382689,20.4165712977797
1580421164.74656,-4.60822461280236,3.93682764934761,20.2334630350194
1580421164.75056,-4.7913328755626,4.05889982452118,20.1724269474325
1580421164.75456,-4.54718852521546,4.36408026245522,20.4165712977797
1580421164.75856,-4.11993591210808,4.91340505073617,20.7217517357137
1580421164.76256,-4.18097199969475,5.21858548867021,20.8438239108873
1580421164.76655,-4.36408026245522,5.6458381017776,21.0269321736475
1580421164.77055,-4.42511635004189,5.88998245212474,21.3931486991683
1580421164.77455,-3.93682764934761,6.07309071488521,21.759365224689
1580421164.77855,-2.59403372243833,6.19516289005878,22.4307621881437
1580421164.78255,-0.885023270008332,5.95101853971164,23.1021591515982
1580421164.78656,0.152590218966907,6.01205462729831,23.5904478522925
1580421164.79056,0.762951094834762,6.13412680247188,23.9566643778132
1580421164.79456,1.0681315327688,6.19516289005878,24.2008087281604
1580421164.79856,1.61745632104976,6.13412680247188,24.5670252536811
1580421164.80255,2.22781719691761,6.13412680247188,24.9332417792018
1580421164.80655,3.26543068589308,6.07309071488521,25.6656748302432
1580421164.81055,4.60822461280236,5.88998245212474,26.2149996185244
1580421164.81455,5.82894636453807,5.82894636453807,26.9474326695658
1580421164.81855,6.74448767833974,5.7068741893645,27.3746852826732
1580421164.82255,7.11070420386045,5.88998245212474,27.6798657206073
1580421164.82655,7.29381246662092,6.01205462729831,27.9850461585411
1580421164.83055,7.53795681696806,5.95101853971164,28.2902265964751
1580421164.83454,7.72106507972831,5.76791027695117,28.4733348592354
1580421164.83854,7.53795681696806,5.58480201419093,28.7785152971694
1580421164.84254,6.98863202868688,5.52376592660403,28.900587472343
1580421164.84654,5.95101853971164,5.27962157625689,28.6564431219958
1580421164.85054,4.11993591210808,4.97444113832307,28.2291905088882
1580421164.85454,1.9226367589838,4.48615243762879,27.3746852826732
1580421164.85854,0.762951094834762,4.05889982452118,26.5812161440451
1580421164.86254,1.73952849622333,3.57061112382689,26.4591439688716
1580421164.86652,4.24200808728165,2.83817807278547,26.9474326695658
1580421164.87051,6.98863202868688,2.10574502174404,27.7409018081939
1580421164.87451,8.81971465629044,1.67849240863666,28.6564431219958
1580421164.87851,8.6366063935302,1.55642023346309,29.3888761730373
1580421164.88251,6.86655985351331,1.55642023346309,29.2668039978637
1580421164.88651,4.30304417486832,1.25123979552905,28.900587472343
1580421164.89051,2.28885328450451,0.823987182421661,28.4733348592354
1580421164.89451,1.25123979552905,0.0305180437933359,27.9850461585411
1580421164.89851,1.37331197070262,-1.0681315327688,27.8019378957808
1580421164.9025,1.55642023346309,-2.04470893415737,27.7409018081939
1580421164.9065,0.762951094834762,-2.96025024795904,27.6188296330204
1580421164.9105,-0.640878919661191,-3.75371938658736,27.1305409323261
1580421164.9145,-2.59403372243833,-4.42511635004189,26.4591439688716
1580421164.9185,-4.11993591210808,-5.21858548867021,25.6046387426566
1580421164.9225,-3.87579156176093,-6.31723506523235,24.9942778667887
1580421164.9265,-1.8616006713969,-7.35484855420759,24.8722056916151
1580421164.9305,1.25123979552905,-8.51453421835663,25.4215304798961
1580421164.93449,4.42511635004189,-9.4300755321583,26.0929274433508
1580421164.93849,6.25619897764545,-9.73525597009234,26.6422522316318
1580421164.94249,6.74448767833974,-10.3456168459602,27.0695048447394
1580421164.9465,6.19516289005878,-10.3456168459602,27.3746852826732
1580421164.9505,5.21858548867021,-10.5897611963073,27.4357213702601
1580421164.9545,4.48615243762879,-11.0170138094147,27.5577935454337
1580421164.9585,4.24200808728165,-11.6884107728695,27.5577935454337
1580421164.9625,4.05889982452118,-12.7260242618447,27.191577019913
1580421164.9665,3.20439459830618,-13.519493400473,26.7032883192187
1580421164.97049,2.47196154726475,-14.0077821011673,25.9098191805904
1580421164.97449,3.32646677347975,-14.3129625391011,25.1773861295489
1580421164.97849,6.37827115281902,-14.7402151522087,25.2384222171358
1580421164.98249,10.4676890211338,-15.1064316777295,26.2149996185244
1580421164.98649,14.1298542763409,-15.4726482032502,27.4967574578468
1580421164.99049,16.083009079118,-15.8388647287709,28.6564431219958
1580421164.99449,15.8999008163576,-16.0219729915311,29.5719844357975
1580421164.99849,13.8246738384069,-15.9609369039445,29.9992370489051
1580421165.00249,10.4066529335469,-15.7167925535973,29.8771648737315
1580421165.00648,7.11070420386045,-15.3505760280766,29.5109483482108
1580421165.01048,4.91340505073617,-15.1674677653161,29.2057679102768
1580421165.01448,3.81475547417404,-15.1674677653161,28.7785152971694
1580421165.01848,3.57061112382689,-15.1674677653161,28.5954070344089
1580421165.02248,4.48615243762879,-14.9843595025559,28.6564431219958
1580421165.02646,5.95101853971164,-14.7402151522087,28.7785152971694
1580421165.03046,7.23277637903402,-14.4350347142747,28.9616235599296
1580421165.03446,8.27038986800949,-14.2519264515145,29.2668039978637
1580421165.03846,9.18593118181116,-14.068818188754,29.3888761730373
1580421165.04245,9.79629205767901,-13.7026016632333,29.3278400854504
1580421165.04645,10.2845807583733,-13.4584573128861,29.4499122606239
1580421165.05045,10.5287251087204,-13.214312962539,29.5109483482108
1580421165.05445,10.7728694590676,-13.0312046997788,29.6330205233844
1580421165.05845,10.5897611963073,-12.7260242618447,29.755092698558
1580421165.06245,10.4676890211338,-12.2377355611504,29.9382009613182
1580421165.06645,9.4911116197452,-11.0780498970016,30.1823453116654
1580421165.07044,8.5755703059433,-10.2235446707866,30.2433813992523
1580421165.07444,7.11070420386045,-9.79629205767901,30.0602731364918
1580421165.07844,5.88998245212474,-9.91836423285258,30.2433813992523
1580421165.08244,4.66926070038903,-10.2845807583733,30.3044174868389
1580421165.08644,3.08232242313261,-10.4676890211338,30.3044174868389
1580421165.09044,1.19020370794237,-10.5287251087204,29.8161287861446
1580421165.09444,-1.19020370794237,-10.5897611963073,29.0836957351032
1580421165.09844,-3.50957503624022,-10.8949416342411,28.1071183337147
1580421165.10243,-4.8523689631495,-11.3221942473488,27.191577019913
1580421165.10644,-4.97444113832307,-11.9935912108033,26.337071793698
1580421165.11044,-4.54718852521546,-12.4818799114976,25.7267109178301
1580421165.11444,-3.69268329900046,-12.9091325246052,25.1773861295489
1580421165.11844,-3.14335851071951,-13.4584573128861,24.9332417792018
1580421165.12244,-2.7161058976119,-13.9467460135804,24.5670252536811
1580421165.12644,-2.59403372243833,-14.4350347142747,24.5059891660944
1580421165.13044,-3.02128633554594,-14.6791790646218,24.4449530785075
1580421165.13444,-4.24200808728165,-14.5571068894483,24.628061341268
1580421165.13843,-5.34065766384379,-14.2519264515145,24.5670252536811
1580421165.14243,-5.88998245212474,-14.0077821011673,24.3839169909209
1580421165.14643,-5.27962157625689,-13.8246738384069,24.1397726405737
1580421165.15043,-3.99786373693451,-13.8857099259938,23.8956282902266
1580421165.15443,-2.04470893415737,-14.0077821011673,23.7125200274661
1580421165.15843,0.396734569314049,-14.1298542763409,23.6514839398794
1580421165.16243,3.14335851071951,-14.068818188754,23.8956282902266
1580421165.16643,5.95101853971164,-13.7026016632333,24.322880903334
1580421165.17042,8.6366063935302,-12.9701686121919,24.9332417792018
1580421165.17442,11.1390859845883,-12.2377355611504,25.2994583047225
1580421165.17842,13.1532768749523,-11.3832303349354,25.6046387426566
1580421165.18242,14.4960708018616,-10.650797283894,25.7267109178301
1580421165.1864,15.1064316777295,-9.97940032043948,25.6046387426566
1580421165.1904,14.923323414969,-9.4300755321583,25.4215304798961
1580421165.1944,14.373998626688,-8.94178683146401,24.9942778667887
1580421165.1984,13.519493400473,-8.6366063935302,24.5059891660944
1580421165.2024,12.5429159990845,-8.6366063935302,23.8345922026397
1580421165.20639,11.505302510109,-8.81971465629044,23.1021591515982
1580421165.21039,10.3456168459602,-9.12489509422448,22.4917982757304
1580421165.21439,8.33142595559616,-9.36903944457163,21.8204013122759
1580421165.21839,5.27962157625689,-9.67421988250544,21.0269321736475
1580421165.22239,1.80056458381023,-9.73525597009234,20.1724269474325
1580421165.22639,-1.31227588311594,-9.97940032043948,19.3179217212175
1580421165.23039,-3.69268329900046,-10.4676890211338,18.341344319829
1580421165.23439,-5.34065766384379,-11.0780498970016,17.3647669184404
1580421165.23838,-6.01205462729831,-11.8715190356297,16.5712977798123
1580421165.24238,-6.31723506523235,-12.5429159990845,16.2050812542916
1580421165.24638,-6.92759594110021,-12.9091325246052,15.7167925535973
1580421165.25038,-7.7821011673152,-13.3974212252995,15.3505760280766
1580421165.25438,-8.51453421835663,-13.6415655756466,15.1064316777295
1580421165.25838,-8.51453421835663,-13.5805294880597,15.1674677653161
1580421165.26238,-7.72106507972831,-13.519493400473,15.4726482032502
1580421165.26639,-5.88998245212474,-13.214312962539,16.0219729915311
1580421165.27039,-3.81475547417404,-13.0312046997788,16.5712977798123
1580421165.27438,-1.9226367589838,-12.7870603494316,17.3647669184404
1580421165.27838,-0.51880674448762,-12.4208438239109,18.0361638818952
1580421165.28238,0.457770656900948,-11.6884107728695,18.5854886701761
1580421165.28638,1.25123979552905,-10.8339055466545,19.0737773708704
1580421165.29038,2.83817807278547,-10.1625085831997,19.6231021591516
1580421165.29438,5.27962157625689,-9.4300755321583,20.5386434729533
1580421165.29838,8.02624551766235,-8.6366063935302,21.210040436408
1580421165.30238,9.97940032043948,-8.14831769283592,21.8814373998625
1580421165.30638,11.810482948043,-7.84313725490188,22.4917982757304
1580421165.31037,13.8246738384069,-7.84313725490188,23.1021591515982
1580421165.31437,16.2050812542916,-7.90417334248878,23.8345922026397
1580421165.31837,18.4023804074159,-7.72106507972831,24.2618448157473
1580421165.32237,19.5620660715647,-7.23277637903402,24.5670252536811
1580421165.32637,18.7685969329366,-6.25619897764545,24.322880903334
1580421165.33037,16.5712977798123,-5.27962157625689,23.5904478522925
1580421165.33437,13.5805294880597,-4.66926070038903,22.6749065384909
1580421165.33836,9.91836423285258,-4.54718852521546,21.6372930495154
1580421165.34236,5.76791027695117,-4.60822461280236,20.355535210193
1580421165.34634,1.37331197070262,-4.54718852521546,19.195849546044
1580421165.35034,-2.7161058976119,-4.60822461280236,18.0361638818952
1580421165.35434,-5.27962157625689,-4.8523689631495,17.3647669184404
1580421165.35834,-5.7068741893645,-5.21858548867021,17.1816586556802
1580421165.36234,-3.99786373693451,-5.40169375143046,17.4258030060273
1580421165.36634,-1.0681315327688,-5.27962157625689,18.2192721446554
1580421165.37034,1.8616006713969,-4.73029678797593,19.195849546044
1580421165.37433,3.38750286106665,-3.69268329900046,19.6841382467383
1580421165.37833,3.99786373693451,-2.65506981002522,20.1113908598459
1580421165.38233,4.36408026245522,-1.98367284657047,20.2944991226061
1580421165.38633,5.82894636453807,-1.67849240863666,20.4776073853666
1580421165.39033,8.20935378042259,-1.80056458381023,20.355535210193
1580421165.39433,10.1625085831997,-2.04470893415737,20.050354772259
1580421165.39833,10.7728694590676,-2.34988937209118,19.6231021591516
1580421165.40233,9.73525597009234,-2.89921416037237,19.0127412832837
1580421165.40632,7.04966811627378,-3.44853894865332,18.7685969329366
1580421165.41032,4.54718852521546,-3.75371938658736,18.5244525825894
1580421165.41432,3.50957503624022,-3.81475547417404,18.5244525825894
1580421165.41832,3.75371938658736,-4.11993591210808,18.5854886701761
1580421165.42232,3.99786373693451,-4.73029678797593,18.8296330205233
1580421165.42633,3.93682764934761,-5.76791027695117,19.3179217212175
1580421165.43033,4.05889982452118,-6.86655985351331,19.6841382467383
1580421165.43433,5.58480201419093,-7.47692072938116,20.2334630350194
1580421165.43833,8.6366063935302,-7.47692072938116,20.8438239108873
1580421165.44232,13.3363851377126,-7.29381246662092,21.0269321736475
1580421165.44632,17.5478751812009,-7.59899290455473,21.210040436408
1580421165.45032,20.4776073853666,-8.08728160524902,21.5152208743418
1580421165.45432,20.9658960860609,-8.33142595559616,22.0035095750361
1580421165.45832,20.8438239108873,-8.14831769283592,22.3086900129701
1580421165.46232,21.0879682612344,-7.35484855420759,22.5528343633173
1580421165.46632,22.1255817502097,-6.56137941557949,22.6749065384909
1580421165.47032,23.468375677119,-6.01205462729831,22.613870450904
1580421165.47431,23.2242313267718,-5.6458381017776,22.4917982757304
1580421165.47831,21.6372930495154,-5.58480201419093,22.4307621881437
1580421165.48231,19.9893186846723,-5.34065766384379,22.4307621881437
1580421165.48631,19.2568856336309,-4.30304417486832,22.4917982757304
1580421165.49031,19.195849546044,-3.14335851071951,22.064545662623
1580421165.49431,18.4634164950025,-2.34988937209118,21.2710765239947
1580421165.49831,16.2050812542916,-2.28885328450451,20.355535210193
1580421165.50231,12.2987716487373,-3.02128633554594,19.8672465094987
1580421165.50629,9.06385900663759,-3.50957503624022,20.050354772259
1580421165.51028,7.47692072938116,-3.26543068589308,20.5386434729533
1580421165.51428,7.59899290455473,-2.59403372243833,20.7827878233004
1580421165.51828,9.30800335698473,-2.53299763485165,20.7827878233004
1580421165.52228,11.6884107728695,-3.38750286106665,20.5996795605402
1580421165.52628,13.3363851377126,-4.48615243762879,20.4776073853666
1580421165.53028,13.9467460135804,-5.21858548867021,20.4776073853666
1580421165.53428,14.4960708018616,-4.91340505073617,20.2334630350194
1580421165.53828,15.4116121156633,-4.36408026245522,19.3179217212175
1580421165.54227,15.4116121156633,-3.93682764934761,17.8530556191347
1580421165.54627,13.6415655756466,-3.93682764934761,16.083009079118
1580421165.55027,10.0404364080262,-4.18097199969475,14.373998626688
1580421165.55427,6.43930724040592,-4.24200808728165,13.0922407873654
1580421165.55827,4.60822461280236,-3.99786373693451,11.9325551232166
1580421165.56227,5.52376592660403,-3.57061112382689,11.0170138094147
1580421165.56627,7.96520943007545,-3.26543068589308,9.85732814526591
1580421165.57027,10.0404364080262,-3.50957503624022,8.81971465629044
1580421165.57427,10.2235446707866,-3.93682764934761,8.02624551766235
1580421165.57826,8.88075074387734,-3.99786373693451,7.41588464179449
1580421165.58226,8.02624551766235,-3.99786373693451,6.74448767833974
1580421165.58627,7.11070420386045,-3.69268329900046,6.07309071488521
1580421165.59027,5.58480201419093,-3.75371938658736,5.52376592660403
1580421165.59427,3.44853894865332,-3.81475547417404,5.09651331349664
1580421165.59827,0.396734569314049,-3.20439459830618,4.73029678797593
1580421165.60227,-2.41092545967808,-2.53299763485165,4.30304417486832
1580421165.60627,-3.75371938658736,-2.53299763485165,3.99786373693451
1580421165.61027,-3.26543068589308,-2.96025024795904,4.05889982452118
1580421165.61426,-1.25123979552905,-3.93682764934761,4.60822461280236
1580421165.61826,1.9226367589838,-4.66926070038903,5.40169375143046
1580421165.62226,5.09651331349664,-4.54718852521546,6.01205462729831
1580421165.62626,7.41588464179449,-3.99786373693451,6.62241550316617
1580421165.63026,9.18593118181116,-3.20439459830618,6.80552376592664
1580421165.63426,10.5897611963073,-2.96025024795904,6.98863202868688
1580421165.63826,11.9935912108033,-2.83817807278547,7.41588464179449
1580421165.64225,12.2987716487373,-2.04470893415737,8.08728160524902
1580421165.64625,10.7728694590676,-1.49538414587619,8.08728160524902
1580421165.65025,9.24696726939806,-1.31227588311594,7.47692072938116
1580421165.65425,8.5755703059433,-1.31227588311594,7.23277637903402
1580421165.65825,8.27038986800949,-1.43434805828952,7.47692072938116
1580421165.66225,8.08728160524902,-1.55642023346309,8.14831769283592
1580421165.66623,7.04966811627378,-1.37331197070262,8.94178683146401
1580421165.67023,6.56137941557949,-1.31227588311594,9.73525597009234
1580421165.67423,7.41588464179449,-0.885023270008332,10.3456168459602
1580421165.67823,9.12489509422448,-0.70191500724809,10.955977721828
1580421165.68222,10.5287251087204,-0.579842832074519,11.3221942473488
1580421165.68622,10.7118333714809,-0.70191500724809,11.7494468604561
1580421165.69022,9.79629205767901,-1.19020370794237,12.0546272983902
1580421165.69422,8.94178683146401,-1.61745632104976,12.4208438239109
1580421165.69822,8.6366063935302,-1.73952849622333,12.664988174258
1580421165.70222,9.06385900663759,-1.67849240863666,13.0922407873654
1580421165.70622,9.91836423285258,-1.31227588311594,13.3363851377126
1580421165.71021,11.2611581597619,-1.0070954451819,13.6415655756466
1580421165.71421,12.9701686121919,-0.946059357595232,14.068818188754
1580421165.71821,15.1674677653161,-0.823987182421661,14.7402151522087
1580421165.72221,17.3037308308537,-0.213626306553806,15.3505760280766
1580421165.72621,19.0737773708704,0.396734569314049,15.8999008163576
1580421165.73021,20.4165712977797,0.823987182421661,16.1440451667047
1580421165.73421,20.904859998474,0.946059357595232,16.2050812542916
1580421165.73821,21.0269321736475,0.823987182421661,16.1440451667047
1580421165.7422,20.7217517357137,0.51880674448762,15.7167925535973
1580421165.74621,19.8672465094987,0.335698481727377,14.9843595025559
1580421165.75021,18.1582360570687,0.274662394140478,14.0077821011673
1580421165.75421,14.9843595025559,0.335698481727377,12.5429159990845
1580421165.75821,10.8949416342411,0.335698481727377,10.8339055466545
1580421165.76221,6.13412680247188,0.335698481727377,9.12489509422448
1580421165.76621,1.61745632104976,-0.091554131380235,7.29381246662092
1580421165.77021,-1.98367284657047,-0.70191500724809,5.46272983901736
1580421165.77421,-4.48615243762879,-1.43434805828952,3.87579156176093
1580421165.7782,-6.01205462729831,-1.80056458381023,2.28885328450451
1580421165.7822,-6.74448767833974,-2.04470893415737,0.885023270008332
1580421165.7862,-6.86655985351331,-2.53299763485165,-0.091554131380235
1580421165.7902,-7.04966811627378,-2.96025024795904,-1.25123979552905
1580421165.7942,-7.41588464179449,-3.20439459830618,-2.53299763485165
1580421165.7982,-8.5755703059433,-3.14335851071951,-3.81475547417404
1580421165.8022,-9.73525597009234,-2.96025024795904,-5.15754940108332
1580421165.8062,-10.4676890211338,-2.83817807278547,-6.5003433279926
1580421165.8102,-10.4676890211338,-2.65506981002522,-7.35484855420759
1580421165.81419,-9.55214770733187,-2.7161058976119,-7.96520943007545
1580421165.81819,-7.84313725490188,-2.7771419851988,-8.27038986800949
1580421165.82219,-5.95101853971164,-2.59403372243833,-8.27038986800949
1580421165.82617,-3.81475547417404,-2.16678110933094,-7.84313725490188
1580421165.83017,-1.49538414587619,-1.73952849622333,-7.47692072938116
1580421165.83417,0.762951094834762,-1.0681315327688,-6.98863202868688
1580421165.83817,2.47196154726475,-0.823987182421661,-6.62241550316617
1580421165.84217,3.63164721141379,-0.579842832074519,-6.25619897764545
1580421165.84616,4.18097199969475,-0.396734569314049,-5.95101853971164
1580421165.85016,4.11993591210808,-0.213626306553806,-5.76791027695117
1580421165.85416,3.75371938658736,0.091554131380235,-5.6458381017776
1580421165.85816,2.28885328450451,0.335698481727377,-5.7068741893645
1580421165.86216,0.091554131380235,0.396734569314049,-6.19516289005878
1580421165.86616,-2.65506981002522,-0.213626306553806,-6.68345159075307
1580421165.87016,-5.82894636453807,-0.70191500724809,-6.86655985351331
1580421165.87416,-8.6366063935302,-0.70191500724809,-6.80552376592664
1580421165.87815,-10.2845807583733,-0.396734569314049,-6.68345159075307
1580421165.88215,-10.5287251087204,0.213626306553806,-6.62241550316617
1580421165.88615,-11.0170138094147,0.274662394140478,-6.98863202868688
1580421165.89015,-12.1766994735638,-0.396734569314049,-7.53795681696806
1580421165.89415,-14.068818188754,-0.946059357595232,-7.84313725490188
1580421165.89815,-15.4726482032502,-1.25123979552905,-7.66002899214163
1580421165.90215,-15.8999008163576,-0.579842832074519,-7.04966811627378
1580421165.90616,-15.0453955901426,-0.091554131380235,-6.5003433279926
1580421165.91016,-13.3974212252995,-0.213626306553806,-6.19516289005878
1580421165.91416,-12.359807736324,-0.762951094834762,-5.7068741893645
1580421165.91815,-11.8715190356297,-1.0681315327688,-4.8523689631495
1580421165.92215,-10.7118333714809,-0.579842832074519,-3.69268329900046
1580421165.92615,-8.14831769283592,0.213626306553806,-2.10574502174404
1580421165.93015,-4.73029678797593,0.70191500724809,-0.70191500724809
1580421165.93415,-0.579842832074519,0.762951094834762,0.70191500724809
1580421165.93815,2.47196154726475,0.640878919661191,2.22781719691761
1580421165.94215,4.7913328755626,0.457770656900948,3.57061112382689
1580421165.94615,5.95101853971164,0.457770656900948,4.60822461280236
1580421165.95014,6.62241550316617,0.51880674448762,5.27962157625689
1580421165.95414,6.92759594110021,0.51880674448762,5.6458381017776
1580421165.95814,6.62241550316617,0.640878919661191,5.7068741893645
1580421165.96214,5.21858548867021,0.579842832074519,5.46272983901736
1580421165.96614,2.96025024795904,0.335698481727377,5.03547722590974
1580421165.97014,0.396734569314049,0.396734569314049,4.48615243762879
1580421165.97414,-2.34988937209118,0.457770656900948,4.05889982452118
1580421165.97814,-4.60822461280236,0.51880674448762,3.69268329900046
1580421165.98213,-6.56137941557949,0.51880674448762,3.57061112382689
1580421165.98611,-8.08728160524902,0.51880674448762,3.38750286106665
1580421165.99011,-9.4911116197452,0.213626306553806,3.20439459830618
1580421165.99411,-10.4066529335469,-0.274662394140478,2.89921416037237
1580421165.99811,-11.1390859845883,-0.396734569314049,2.65506981002522
1580421166.00211,-10.7728694590676,-0.579842832074519,2.47196154726475
1580421166.00611,-9.73525597009234,-0.579842832074519,2.28885328450451
1580421166.01011,-8.94178683146401,-0.70191500724809,2.22781719691761
1580421166.0141,-8.88075074387734,-0.396734569314049,2.28885328450451
1580421166.0181,-9.24696726939806,0.213626306553806,2.22781719691761
1580421166.0221,-9.67421988250544,0.70191500724809,2.04470893415737
1580421166.0261,-9.4300755321583,0.946059357595232,1.55642023346309
1580421166.0301,-8.33142595559616,1.0681315327688,1.0070954451819
1580421166.0341,-7.11070420386045,1.0681315327688,0.640878919661191
1580421166.0381,-5.7068741893645,1.67849240863666,0.0305180437933359
1580421166.0421,-4.60822461280236,2.47196154726475,-0.579842832074519
1580421166.04609,-3.93682764934761,3.02128633554594,-1.25123979552905
1580421166.05009,-4.05889982452118,3.63164721141379,-1.98367284657047
1580421166.05409,-4.73029678797593,4.48615243762879,-2.53299763485165
1580421166.05809,-5.82894636453807,5.52376592660403,-3.14335851071951
1580421166.06209,-6.43930724040592,6.25619897764545,-3.93682764934761
1580421166.0661,-6.07309071488521,6.74448767833974,-4.7913328755626
1580421166.0701,-5.46272983901736,6.74448767833974,-5.27962157625689
1580421166.0741,-5.03547722590974,6.98863202868688,-5.6458381017776
1580421166.0781,-5.7068741893645,7.47692072938116,-5.6458381017776
1580421166.0821,-6.86655985351331,8.20935378042259,-5.88998245212474
1580421166.08609,-7.66002899214163,9.30800335698473,-6.07309071488521
1580421166.09009,-7.59899290455473,9.97940032043948,-6.43930724040592
1580421166.09409,-6.56137941557949,10.3456168459602,-6.68345159075307
1580421166.09809,-5.21858548867021,10.650797283894,-6.5003433279926
1580421166.10209,-4.8523689631495,11.1390859845883,-6.56137941557949
1580421166.10609,-5.82894636453807,11.8715190356297,-6.62241550316617
1580421166.11009,-7.53795681696806,12.6039520866711,-6.92759594110021
1580421166.11409,-9.06385900663759,12.9091325246052,-7.66002899214163
1580421166.11808,-9.85732814526591,12.4818799114976,-8.27038986800949
1580421166.12208,-11.0780498970016,11.810482948043,-9.24696726939806
1580421166.12608,-13.214312962539,11.1390859845883,-10.5897611963073
1580421166.13008,-14.923323414969,10.5897611963073,-12.359807736324
1580421166.13408,-15.3505760280766,10.5287251087204,-14.1908903639276
1580421166.13808,-14.7402151522087,10.4066529335469,-15.777828641184
1580421166.14208,-13.9467460135804,10.650797283894,-16.8154421301595
1580421166.14606,-13.2753490501259,11.0170138094147,-17.3647669184404
1580421166.15006,-13.5805294880597,11.505302510109,-17.1816586556802
1580421166.15405,-14.068818188754,11.505302510109,-17.486839093614
1580421166.15805,-14.6791790646218,10.955977721828,-18.341344319829
1580421166.16205,-14.8012512397954,10.3456168459602,-19.501029983978
1580421166.16605,-14.068818188754,9.79629205767901,-20.5996795605402
1580421166.17005,-13.0312046997788,9.36903944457163,-21.6983291371023
1580421166.17405,-12.1766994735638,9.79629205767901,-22.4917982757304
1580421166.17805,-12.5429159990845,10.650797283894,-23.2852674143587
1580421166.18205,-13.8857099259938,11.810482948043,-24.0177004654001
1580421166.18604,-15.0453955901426,13.0312046997788,-24.7501335164416
1580421166.19004,-14.8012512397954,14.5571068894483,-25.4215304798961
1580421166.19404,-12.664988174258,15.4726482032502,-25.8487830930037
1580421166.19804,-9.67421988250544,15.7167925535973,-25.7877470054168
1580421166.20204,-7.04966811627378,15.6557564660104,-25.6046387426566
1580421166.20604,-6.68345159075307,16.0219729915311,-25.4215304798961
1580421166.21004,-9.61318379491877,16.632333867399,-25.7267109178301
1580421166.21404,-14.1908903639276,17.5478751812009,-26.3981078812847
1580421166.21803,-18.2192721446554,18.0361638818952,-27.8629739833675
1580421166.22203,-19.9893186846723,17.6699473563745,-29.6940566109711
1580421166.22604,-18.7075608453497,16.2661173418783,-31.4641031509882
1580421166.23004,-14.5571068894483,14.1908903639276,-32.5627527275503
1580421166.23404,-9.06385900663759,12.664988174258,-33.0510414282446
1580421166.23804,-3.93682764934761,12.359807736324,-32.8068970778975
1580421166.24204,-0.51880674448762,13.0312046997788,-32.4406805523768
1580421166.24604,0.213626306553806,14.4350347142747,-32.5627527275503
1580421166.25004,-2.47196154726475,16.1440451667047,-33.2951857785918
1580421166.25403,-7.7821011673152,17.4258030060273,-34.9431601434349
1580421166.25803,-10.8339055466545,17.486839093614,-36.7742427710384
1580421166.26203,-8.75867856870377,16.5712977798123,-38.2391088731213
1580421166.26603,-3.32646677347975,15.4116121156633,-38.8494697489891
1580421166.27003,1.9226367589838,14.4960708018616,-38.9715419241627
1580421166.27403,4.91340505073617,14.8012512397954,-38.7884336614025
1580421166.27803,5.03547722590974,16.083009079118,-38.3611810482948
1580421166.28203,3.69268329900046,17.4258030060273,-38.056000610361
1580421166.28603,2.22781719691761,18.4634164950025,-38.056000610361
1580421166.29002,1.43434805828952,18.7075608453497,-38.6663614862289
1580421166.29402,1.73952849622333,18.2192721446554,-39.3377584496834
1580421166.29802,3.32646677347975,17.2426947432668,-39.3987945372703
1580421166.30202,4.8523689631495,16.2661173418783,-39.0325780117496
1580421166.306,4.73029678797593,16.2050812542916,-38.4222171358817
1580421166.31,1.9226367589838,17.3037308308537,-38.3001449607082
1580421166.314,-2.83817807278547,18.9517051956968,-39.0936140993363
1580421166.318,-7.66002899214163,20.1113908598459,-40.619516289006
1580421166.32199,-11.3221942473488,19.8062104219118,-42.5726710917831
1580421166.32599,-13.0312046997788,18.2803082322423,-44.2206454566262
1580421166.32999,-13.0922407873654,16.632333867399,-45.6244754711224
1580421166.33399,-11.2611581597619,15.2895399404897,-46.7841611352712
1580421166.33799,-7.11070420386045,14.068818188754,-47.5165941863127
1580421166.34199,-1.19020370794237,12.7870603494316,-48.0659189745938
1580421166.34599,4.97444113832307,11.810482948043,-48.2490272373541
1580421166.34999,9.4911116197452,11.2611581597619,-48.1269550621805
1580421166.35398,11.2611581597619,11.1390859845883,-47.7607385366598
1580421166.35798,10.1625085831997,11.2001220721752,-47.455558098726
1580421166.36198,6.31723506523235,11.2001220721752,-47.2114137483788
1580421166.36598,0.091554131380235,11.6884107728695,-47.2724498359655
1580421166.36998,-7.47692072938116,12.7260242618447,-47.9438467994203
1580421166.37398,-14.3129625391011,13.6415655756466,-49.4087129015031
1580421166.37798,-18.7075608453497,13.9467460135804,-51.2397955291067
1580421166.38198,-19.3789578088044,13.519493400473,-52.582589456016
1580421166.38599,-16.3881895170518,12.4208438239109,-53.0098420691234
1580421166.38998,-10.3456168459602,11.5663385976959,-52.0332646677348
1580421166.39398,-2.41092545967808,11.3221942473488,-50.019073777371
1580421166.39798,5.27962157625689,11.8715190356297,-47.8828107118334
1580421166.40198,11.5663385976959,12.7260242618447,-45.5024032959489
1580421166.40598,16.2050812542916,13.1532768749523,-43.4882124055848
1580421166.40998,18.4634164950025,12.7260242618447,-41.7792019531548
1580421166.41398,18.4634164950025,11.5663385976959,-40.2532997634853
1580421166.41798,15.5336842908368,10.955977721828,-38.9715419241627
1580421166.42197,10.650797283894,10.8949416342411,-38.605325398642
1580421166.42597,5.34065766384379,10.7728694590676,-39.0936140993363
1580421166.42997,0.152590218966907,10.2235446707866,-40.0091554131382
1580421166.43397,-4.66926070038903,9.4911116197452,-40.9246967269398
1580421166.43797,-9.12489509422448,8.5755703059433,-41.9623102159153
1580421166.44197,-13.0922407873654,7.29381246662092,-42.8168154421303
1580421166.44597,-16.083009079118,6.19516289005878,-43.4882124055848
1580421166.44997,-17.8530556191347,5.15754940108332,-43.8544289311055
1580421166.45396,-17.792019531548,4.48615243762879,-44.3427176317998
1580421166.45796,-16.3881895170518,3.87579156176093,-44.5258258945603
1580421166.46196,-14.6181429770352,3.38750286106665,-44.4647898069734
1580421166.46594,-13.7026016632333,2.96025024795904,-44.037537193866
1580421166.46994,-13.0922407873654,2.53299763485165,-43.4271763179981
1580421166.47394,-12.7870603494316,2.28885328450451,-42.328526741436
1580421166.47794,-12.4208438239109,1.9226367589838,-41.2298771648739
1580421166.48194,-11.7494468604561,1.73952849622333,-39.8260471503777
1580421166.48594,-10.0404364080262,2.28885328450451,-38.4222171358817
1580421166.48993,-6.68345159075307,3.44853894865332,-36.5911345082782
1580421166.49393,-2.47196154726475,4.7913328755626,-34.637979705501
1580421166.49793,2.22781719691761,6.07309071488521,-32.623788815137
1580421166.50193,6.68345159075307,6.62241550316617,-30.5485618371861
1580421166.50593,9.4911116197452,6.68345159075307,-28.8395513847561
1580421166.50993,10.1625085831997,6.62241550316617,-27.9240100709544
1580421166.51393,9.12489509422448,6.5003433279926,-27.9850461585411
1580421166.51793,7.72106507972831,6.68345159075307,-28.5343709468223
1580421166.52192,6.62241550316617,6.92759594110021,-29.1447318226901
1580421166.52592,4.8523689631495,7.53795681696806,-29.4499122606239
1580421166.52992,1.98367284657047,7.66002899214163,-29.3888761730373
1580421166.53392,-1.67849240863666,8.02624551766235,-29.2668039978637
1580421166.53792,-5.58480201419093,8.02624551766235,-29.2668039978637
1580421166.54192,-8.6366063935302,7.47692072938116,-29.2668039978637
1580421166.54593,-10.1014724956131,6.68345159075307,-29.2057679102768
1580421166.54993,-10.1014724956131,5.82894636453807,-28.900587472343
1580421166.55393,-8.94178683146401,4.97444113832307,-28.4733348592354
1580421166.55792,-7.35484855420759,4.05889982452118,-27.8019378957808
1580421166.56192,-6.43930724040592,3.38750286106665,-27.3136491950866
1580421166.56592,-7.11070420386045,2.65506981002522,-26.8863965819789
1580421166.56992,-8.5755703059433,2.04470893415737,-26.7032883192187
1580421166.57392,-10.1625085831997,1.73952849622333,-26.6422522316318
1580421166.57792,-11.0780498970016,1.43434805828952,-26.7032883192187
1580421166.58192,-10.955977721828,0.51880674448762,-26.6422522316318
1580421166.58592,-9.73525597009234,-0.274662394140478,-26.8863965819789
1580421166.58992,-7.7821011673152,-0.823987182421661,-26.9474326695658
1580421166.59391,-5.76791027695117,-1.0681315327688,-27.191577019913
1580421166.59791,-4.18097199969475,-0.946059357595232,-27.3746852826732
1580421166.60191,-2.89921416037237,-0.70191500724809,-27.2526131074997
1580421166.60591,-2.96025024795904,-0.946059357595232,-27.191577019913
1580421166.60991,-2.53299763485165,-1.12916762035547,-27.1305409323261
1580421166.61391,-0.70191500724809,-0.946059357595232,-26.337071793698
1580421166.61791,2.41092545967808,-0.823987182421661,-25.1163500419623
1580421166.6219,5.7068741893645,-0.946059357595232,-23.8956282902266
1580421166.62589,7.59899290455473,-1.12916762035547,-22.9800869764247
1580421166.62988,7.84313725490188,-1.12916762035547,-22.3697261005568
1580421166.63388,6.92759594110021,-0.885023270008332,-22.1866178377966
1580421166.63788,5.27962157625689,-0.762951094834762,-22.1255817502097
1580421166.64188,3.99786373693451,-0.70191500724809,-22.1255817502097
1580421166.64588,3.69268329900046,-0.946059357595232,-22.1866178377966
1580421166.64988,3.26543068589308,-1.55642023346309,-22.1866178377966
1580421166.65388,2.28885328450451,-2.34988937209118,-22.613870450904
1580421166.65787,1.49538414587619,-2.89921416037237,-23.1021591515982
1580421166.66187,1.31227588311594,-3.38750286106665,-23.8956282902266
1580421166.66587,1.61745632104976,-3.87579156176093,-24.6890974288547
1580421166.66987,3.50957503624022,-4.36408026245522,-25.0553139543754
1580421166.67387,6.07309071488521,-4.66926070038903,-24.9942778667887
1580421166.67787,8.45349813076973,-4.48615243762879,-24.6890974288547
1580421166.68187,9.30800335698473,-4.11993591210808,-24.3839169909209
1580421166.68587,8.69764248111687,-3.26543068589308,-24.1397726405737
1580421166.68986,7.47692072938116,-2.41092545967808,-23.9566643778132
1580421166.69386,6.68345159075307,-1.9226367589838,-23.8956282902266
1580421166.69786,6.56137941557949,-1.67849240863666,-23.8956282902266
1580421166.70186,7.04966811627378,-1.55642023346309,-23.773556115053
1580421166.70587,7.41588464179449,-1.31227588311594,-23.468375677119
1580421166.70987,7.29381246662092,-0.885023270008332,-23.3463035019454
1580421166.71387,6.43930724040592,-0.396734569314049,-23.5294117647059
1580421166.71787,5.58480201419093,-0.213626306553806,-23.9566643778132
1580421166.72187,5.09651331349664,0.091554131380235,-23.9566643778132
1580421166.72586,5.76791027695117,0.640878919661191,-23.5294117647059
1580421166.72986,7.59899290455473,1.37331197070262,-22.613870450904
1580421166.73386,9.73525597009234,1.8616006713969,-21.6372930495154
1580421166.73786,10.955977721828,2.28885328450451,-20.6607156481268
1580421166.74186,10.7118333714809,2.7161058976119,-20.1724269474325
1580421166.74586,9.4300755321583,2.96025024795904,-20.1113908598459
1580421166.74986,8.08728160524902,3.02128633554594,-20.2944991226061
1580421166.75386,7.59899290455473,3.08232242313261,-20.8438239108873
1580421166.75785,7.59899290455473,3.32646677347975,-21.3931486991683
1580421166.76185,7.29381246662092,3.69268329900046,-21.9424734874494
1580421166.76585,7.04966811627378,4.24200808728165,-22.1866178377966
1580421166.76985,6.25619897764545,4.73029678797593,-22.3086900129701
1580421166.77385,4.97444113832307,5.34065766384379,-22.3086900129701
1580421166.77785,4.36408026245522,5.34065766384379,-22.1866178377966
1580421166.78185,4.05889982452118,5.21858548867021,-22.2476539253832
1580421166.78583,4.30304417486832,5.09651331349664,-22.064545662623
1580421166.78983,4.97444113832307,5.46272983901736,-21.8204013122759
1580421166.79382,5.21858548867021,5.58480201419093,-21.3931486991683
1580421166.79782,4.60822461280236,5.7068741893645,-20.9658960860609
1580421166.80182,3.20439459830618,5.58480201419093,-20.7827878233004
1580421166.80582,1.67849240863666,5.27962157625689,-20.6607156481268
1580421166.80982,0.457770656900948,4.7913328755626,-20.5996795605402
1580421166.81382,-0.0305180437933359,4.24200808728165,-20.2944991226061
1580421166.81782,-0.335698481727377,3.44853894865332,-20.1724269474325
1580421166.82182,-0.396734569314049,2.83817807278547,-20.1724269474325
1580421166.82581,0.213626306553806,2.41092545967808,-19.8672465094987
1580421166.82981,0.885023270008332,2.04470893415737,-19.5620660715647
1580421166.83381,1.37331197070262,1.55642023346309,-19.1348134584573
1580421166.83781,1.43434805828952,0.946059357595232,-18.7075608453497
1580421166.84181,0.885023270008332,0.51880674448762,-18.4023804074159
1580421166.84581,0.152590218966907,-0.091554131380235,-18.0361638818952
1580421166.84981,-0.152590218966907,-0.762951094834762,-17.9140917067216
1580421166.85381,0.457770656900948,-1.31227588311594,-17.792019531548
1580421166.85781,1.43434805828952,-1.98367284657047,-17.5478751812009
1580421166.8618,2.22781719691761,-2.41092545967808,-17.1816586556802
1580421166.86581,2.7771419851988,-2.7161058976119,-17.0595864805066
1580421166.86981,3.26543068589308,-2.7161058976119,-16.8764782177461
1580421166.87381,3.99786373693451,-2.65506981002522,-16.6933699549859
1580421166.87781,4.91340505073617,-2.53299763485165,-16.3881895170518
1580421166.88181,5.95101853971164,-2.34988937209118,-15.7167925535973
1580421166.88581,6.68345159075307,-1.9226367589838,-15.1674677653161
1580421166.88981,6.68345159075307,-1.43434805828952,-14.8012512397954
1580421166.89381,5.95101853971164,-1.0070954451819,-14.5571068894483
1580421166.8978,4.54718852521546,-0.457770656900948,-14.373998626688
1580421166.9018,3.44853894865332,-0.152590218966907,-14.4350347142747
1580421166.9058,2.7771419851988,-0.213626306553806,-14.373998626688
1580421166.9098,2.41092545967808,0.152590218966907,-14.4350347142747
1580421166.9138,3.02128633554594,0.640878919661191,-14.1908903639276
1580421166.9178,3.69268329900046,1.25123979552905,-13.6415655756466
1580421166.9218,3.99786373693451,1.49538414587619,-12.9701686121919
1580421166.92579,3.26543068589308,1.49538414587619,-12.7260242618447
1580421166.92979,1.43434805828952,1.31227588311594,-12.4818799114976
1580421166.93379,-0.396734569314049,1.12916762035547,-12.6039520866711
1580421166.93779,-1.9226367589838,0.946059357595232,-12.8480964370183
1580421166.94179,-2.7161058976119,0.762951094834762,-13.0312046997788
1580421166.94577,-2.47196154726475,0.457770656900948,-12.8480964370183
1580421166.94977,-1.9226367589838,0.091554131380235,-12.7870603494316
1580421166.95377,-1.73952849622333,-0.335698481727377,-12.2987716487373
1580421166.95777,-1.9226367589838,-0.762951094834762,-11.6273746852826
1580421166.96176,-2.10574502174404,-0.946059357595232,-11.0780498970016
1580421166.96576,-1.80056458381023,-1.43434805828952,-10.5287251087204
1580421166.96976,-1.49538414587619,-1.80056458381023,-9.97940032043948
1580421166.97376,-1.43434805828952,-2.04470893415737,-9.4911116197452
1580421166.97776,-1.25123979552905,-2.59403372243833,-9.18593118181116
1580421166.98176,-0.885023270008332,-2.65506981002522,-8.39246204318306
1580421166.98576,-0.457770656900948,-2.7161058976119,-7.72106507972831
1580421166.98976,-0.091554131380235,-2.96025024795904,-7.11070420386045
1580421166.99375,0.091554131380235,-3.08232242313261,-6.5003433279926
1580421166.99775,0.335698481727377,-3.26543068589308,-6.07309071488521
1580421167.00175,0.885023270008332,-3.20439459830618,-5.58480201419093
1580421167.00575,2.10574502174404,-3.02128633554594,-4.91340505073617
1580421167.00975,3.38750286106665,-2.7771419851988,-4.24200808728165
1580421167.01375,4.24200808728165,-2.65506981002522,-3.14335851071951
1580421167.01775,4.97444113832307,-2.34988937209118,-2.28885328450451
1580421167.02175,4.91340505073617,-2.04470893415737,-1.43434805828952
1580421167.02576,4.73029678797593,-1.67849240863666,-0.885023270008332
1580421167.02975,4.54718852521546,-1.31227588311594,-0.51880674448762
1580421167.03375,4.24200808728165,-1.0681315327688,-0.274662394140478
1580421167.03775,3.69268329900046,-0.885023270008332,-0.396734569314049
1580421167.04175,3.08232242313261,-0.579842832074519,-0.396734569314049
1580421167.04575,2.65506981002522,-0.396734569314049,-0.091554131380235
1580421167.04975,1.98367284657047,-0.152590218966907,0.213626306553806
1580421167.05375,1.0681315327688,0.152590218966907,0.640878919661191
1580421167.05775,0.152590218966907,0.213626306553806,1.19020370794237
1580421167.06174,-0.70191500724809,0.213626306553806,1.31227588311594
1580421167.06574,-1.98367284657047,0.274662394140478,1.49538414587619
1580421167.06974,-3.20439459830618,0.335698481727377,1.43434805828952
1580421167.07374,-4.42511635004189,0.51880674448762,1.12916762035547
1580421167.07774,-5.15754940108332,0.70191500724809,1.12916762035547
1580421167.08174,-5.95101853971164,0.946059357595232,1.12916762035547
1580421167.08574,-6.86655985351331,0.885023270008332,1.12916762035547
1580421167.08974,-7.72106507972831,0.640878919661191,1.25123979552905
1580421167.09373,-8.08728160524902,0.335698481727377,1.55642023346309
1580421167.09773,-8.08728160524902,0.274662394140478,2.04470893415737
1580421167.10173,-7.23277637903402,0.213626306553806,2.59403372243833
1580421167.10574,-6.56137941557949,0.274662394140478,3.14335851071951
1580421167.10974,-6.07309071488521,0.091554131380235,3.50957503624022
1580421167.11374,-5.88998245212474,0.0305180437933359,3.93682764934761
1580421167.11774,-5.46272983901736,-0.091554131380235,4.60822461280236
1580421167.12174,-5.09651331349664,-0.152590218966907,5.03547722590974
1580421167.12574,-4.54718852521546,-0.0305180437933359,5.7068741893645
1580421167.12974,-3.81475547417404,0.0305180437933359,6.13412680247188
1580421167.13373,-2.89921416037237,0.274662394140478,6.5003433279926
1580421167.13773,-1.8616006713969,0.396734569314049,6.98863202868688
1580421167.14173,-0.885023270008332,0.274662394140478,7.72106507972831
1580421167.14573,-0.274662394140478,-0.0305180437933359,8.33142595559616
1580421167.14973,-0.457770656900948,-0.457770656900948,8.88075074387734
1580421167.15373,-0.823987182421661,-1.0070954451819,9.18593118181116
1580421167.15773,-1.37331197070262,-1.43434805828952,9.36903944457163
1580421167.16173,-1.73952849622333,-1.49538414587619,9.55214770733187
1580421167.16572,-2.34988937209118,-1.80056458381023,9.73525597009234
1580421167.16972,-3.08232242313261,-2.47196154726475,9.67421988250544
1580421167.17372,-3.57061112382689,-3.20439459830618,9.61318379491877
1580421167.17772,-4.42511635004189,-3.87579156176093,9.73525597009234
1580421167.18172,-5.46272983901736,-4.48615243762879,9.73525597009234
1580421167.1857,-6.5003433279926,-5.09651331349664,9.55214770733187
1580421167.1897,-7.53795681696806,-5.82894636453807,9.55214770733187
1580421167.1937,-8.69764248111687,-6.56137941557949,9.36903944457163
1580421167.1977,-9.91836423285258,-7.29381246662092,9.30800335698473
1580421167.20169,-10.3456168459602,-8.27038986800949,9.30800335698473
1580421167.20569,-10.0404364080262,-9.30800335698473,9.36903944457163
1580421167.20969,-9.12489509422448,-10.2235446707866,9.79629205767901
1580421167.21369,-8.33142595559616,-11.0170138094147,10.1014724956131
1580421167.21769,-7.47692072938116,-11.6884107728695,10.5287251087204
1580421167.22169,-6.68345159075307,-12.2377355611504,11.1390859845883
1580421167.22569,-6.07309071488521,-12.6039520866711,11.6884107728695
1580421167.22968,-5.52376592660403,-12.9091325246052,12.2377355611504
1580421167.23368,-5.15754940108332,-13.214312962539,12.7870603494316
1580421167.23768,-4.66926070038903,-13.519493400473,13.1532768749523
1580421167.24168,-4.36408026245522,-13.7636377508202,13.6415655756466
1580421167.24568,-4.24200808728165,-13.8857099259938,14.068818188754
1580421167.24968,-4.48615243762879,-14.0077821011673,14.373998626688
1580421167.25368,-4.66926070038903,-14.1298542763409,14.6181429770352
1580421167.25768,-4.48615243762879,-14.068818188754,14.923323414969
1580421167.26167,-4.11993591210808,-14.068818188754,15.3505760280766
1580421167.26569,-3.63164721141379,-14.1908903639276,15.777828641184
1580421167.26968,-3.20439459830618,-14.1298542763409,16.3271534294652
1580421167.27368,-3.38750286106665,-14.0077821011673,16.4492256046387
1580421167.27768,-3.38750286106665,-13.5805294880597,16.6933699549859
1580421167.28168,-3.02128633554594,-13.0312046997788,17.2426947432668
1580421167.28568,-2.7771419851988,-12.4818799114976,17.9751277943083
1580421167.28968,-2.59403372243833,-11.7494468604561,18.4634164950025
1580421167.29368,-2.7771419851988,-11.0780498970016,19.0737773708704
1580421167.29768,-2.83817807278547,-10.4676890211338,19.6231021591516
1580421167.30167,-3.08232242313261,-9.67421988250544,20.050354772259
1580421167.30567,-3.63164721141379,-8.94178683146401,20.355535210193
1580421167.30967,-4.54718852521546,-7.84313725490188,20.4776073853666
1580421167.31367,-5.40169375143046,-6.92759594110021,20.5996795605402
1580421167.31767,-6.43930724040592,-5.82894636453807,20.6607156481268
1580421167.32167,-7.11070420386045,-4.73029678797593,20.8438239108873
1580421167.32567,-7.29381246662092,-4.05889982452118,21.210040436408
1580421167.32967,-6.92759594110021,-3.26543068589308,21.759365224689
1580421167.33366,-6.31723506523235,-2.34988937209118,22.4307621881437
1580421167.33766,-6.07309071488521,-1.55642023346309,23.2242313267718
1580421167.34166,-6.31723506523235,-0.51880674448762,23.6514839398794
1580421167.34564,-7.04966811627378,0.457770656900948,24.1397726405737
1580421167.34964,-7.66002899214163,1.55642023346309,24.4449530785075
1580421167.35364,-7.7821011673152,2.41092545967808,24.8722056916151
1580421167.35764,-7.23277637903402,3.08232242313261,25.4215304798961
1580421167.36164,-6.80552376592664,3.81475547417404,26.3981078812847
1580421167.36563,-6.98863202868688,4.48615243762879,26.8863965819789
1580421167.36963,-7.59899290455473,5.34065766384379,27.191577019913
1580421167.37363,-9.06385900663759,6.13412680247188,27.191577019913
1580421167.37763,-10.650797283894,7.17174029144735,26.8863965819789
1580421167.38163,-10.1625085831997,7.66002899214163,26.7643244068054
1580421167.38563,-7.35484855420759,7.90417334248878,27.3136491950866
1580421167.38963,-3.14335851071951,7.90417334248878,28.4733348592354
1580421167.39363,0.885023270008332,8.02624551766235,29.8161287861446
1580421167.39763,3.26543068589308,8.39246204318306,31.0368505378804
1580421167.40162,3.93682764934761,9.12489509422448,31.9523918516823
1580421167.40562,2.7771419851988,9.79629205767901,32.1965362020294
1580421167.40962,0.70191500724809,10.4676890211338,32.3796444647896
1580421167.41362,-1.0681315327688,11.1390859845883,32.3796444647896
1580421167.41762,-1.80056458381023,11.3221942473488,32.5627527275501
1580421167.42162,-1.55642023346309,11.2611581597619,32.6237888151368
1580421167.42563,-0.70191500724809,11.2001220721752,32.8068970778972
1580421167.42963,0.152590218966907,11.3221942473488,32.9900053406575
1580421167.43363,0.70191500724809,11.7494468604561,33.3562218661782
1580421167.43762,0.823987182421661,11.7494468604561,33.6003662165253
1580421167.44162,0.823987182421661,11.505302510109,33.6614023041122
1580421167.44562,0.579842832074519,10.8949416342411,33.6614023041122
1580421167.44962,-0.0305180437933359,10.2235446707866,33.3562218661782
1580421167.45362,0.152590218966907,9.06385900663759,33.2951857785915
1580421167.45762,1.61745632104976,7.84313725490188,33.6614023041122
1580421167.46162,3.63164721141379,6.92759594110021,34.3327992675668
1580421167.46562,4.54718852521546,6.07309071488521,35.1262684061951
1580421167.46961,4.18097199969475,4.91340505073617,35.7366292820629
1580421167.47361,2.59403372243833,3.99786373693451,35.7976653696496
1580421167.47761,0.457770656900948,3.08232242313261,35.7366292820629
1580421167.48161,-1.43434805828952,2.28885328450451,35.3093766689553
1580421167.48561,-2.59403372243833,1.25123979552905,34.7600518806744
1580421167.48961,-2.96025024795904,0.091554131380235,34.3327992675668
1580421167.49361,-2.65506981002522,-0.885023270008332,33.7834744792858
1580421167.49761,-1.80056458381023,-1.80056458381023,33.3562218661782
1580421167.50161,-0.885023270008332,-2.34988937209118,32.9900053406575
1580421167.50558,-0.396734569314049,-2.83817807278547,32.8068970778972
1580421167.50958,0.0305180437933359,-3.20439459830618,32.5017166399632
1580421167.51358,1.0070954451819,-3.44853894865332,32.4406805523765
1580421167.51758,1.73952849622333,-3.93682764934761,32.4406805523765
1580421167.52158,1.73952849622333,-4.8523689631495,32.1965362020294
1580421167.52558,1.12916762035547,-6.01205462729831,31.8303196765087
1580421167.52958,0.213626306553806,-7.11070420386045,31.0368505378804
1580421167.53358,-0.091554131380235,-8.02624551766235,30.1213092240787
1580421167.53757,1.67849240863666,-8.94178683146401,29.9992370489051
1580421167.54157,6.25619897764545,-9.4300755321583,30.7927061875332
1580421167.54557,12.4208438239109,-9.67421988250544,32.318608377203
1580421167.54957,17.6699473563745,-9.73525597009234,34.2107270923932
1580421167.55357,20.2334630350194,-9.85732814526591,35.7976653696496
1580421167.55757,20.1724269474325,-10.1014724956131,36.8352788586251
1580421167.56157,17.9751277943083,-9.61318379491877,37.1404592965589
1580421167.56557,14.6791790646218,-9.12489509422448,36.8963149462118
1580421167.56956,11.7494468604561,-8.6366063935302,36.1028458075837
1580421167.57356,10.1625085831997,-8.45349813076973,35.3093766689553
1580421167.57756,9.67421988250544,-8.6366063935302,34.5159075303272
1580421167.58156,9.97940032043948,-9.12489509422448,33.9055466544594
1580421167.58557,10.3456168459602,-9.36903944457163,33.4782940413518
1580421167.58957,9.55214770733187,-9.30800335698473,32.8679331654839
1580421167.59357,8.69764248111687,-8.88075074387734,32.0744640268558
1580421167.59757,8.6366063935302,-8.27038986800949,31.5861753261615
1580421167.60157,9.91836423285258,-7.47692072938116,31.5251392385746
1580421167.60556,12.0546272983902,-6.86655985351331,32.2575722896161
1580421167.60956,14.0077821011673,-6.56137941557949,33.4172579537651
1580421167.61356,14.4960708018616,-6.19516289005878,34.6990157930875
1580421167.61756,12.7260242618447,-5.76791027695117,35.4314488441289
1580421167.62156,8.6366063935302,-5.27962157625689,35.5535210193025
1580421167.62556,2.89921416037237,-4.8523689631495,34.882124055848
1580421167.62956,-2.22781719691761,-4.60822461280236,33.7834744792858
1580421167.63356,-5.7068741893645,-4.54718852521546,32.5627527275501
1580421167.63755,-6.25619897764545,-4.91340505073617,32.0134279392689
1580421167.64155,-4.97444113832307,-5.40169375143046,31.8913557640954
1580421167.64555,-3.32646677347975,-6.01205462729831,31.8913557640954
1580421167.64955,-2.22781719691761,-6.25619897764545,32.1355001144425
1580421167.65355,-1.49538414587619,-6.31723506523235,32.1355001144425
1580421167.65755,-1.37331197070262,-6.25619897764545,31.9523918516823
1580421167.66155,-1.0681315327688,-6.62241550316617,31.8303196765087
1580421167.66553,-0.457770656900948,-6.92759594110021,31.7692835889218
1580421167.66953,0.335698481727377,-7.04966811627378,31.7692835889218
1580421167.67352,0.823987182421661,-7.23277637903402,31.7082475013351
1580421167.67752,1.31227588311594,-7.41588464179449,31.7692835889218
1580421167.68152,1.43434805828952,-7.23277637903402,31.8303196765087
1580421167.68552,1.61745632104976,-6.92759594110021,31.6472114137482
1580421167.68952,2.22781719691761,-6.56137941557949,31.5251392385746
1580421167.69352,3.93682764934761,-6.13412680247188,31.8303196765087
1580421167.69752,6.56137941557949,-6.01205462729831,32.2575722896161
1580421167.70152,9.36903944457163,-5.88998245212474,32.9289692530708
1580421167.70551,12.1766994735638,-5.88998245212474,33.4172579537651
1580421167.70951,14.373998626688,-5.82894636453807,33.3562218661782
1580421167.71351,15.8999008163576,-6.13412680247188,33.173113603418
1580421167.71751,16.5712977798123,-6.56137941557949,32.7458609903103
1580421167.72151,16.9985503929197,-7.17174029144735,32.5017166399632
1580421167.72551,17.6089112687876,-7.53795681696806,32.4406805523765
1580421167.72951,18.5854886701761,-8.20935378042259,32.7458609903103
1580421167.73351,18.8296330205233,-8.45349813076973,33.0510414282444
1580421167.7375,18.8906691081102,-8.94178683146401,33.2341496910046
1580421167.7415,18.2192721446554,-9.4300755321583,32.9900053406575
1580421167.74551,16.8154421301595,-9.91836423285258,32.4406805523765
1580421167.74951,14.8622873273823,-9.85732814526591,31.7082475013351
1580421167.75351,12.7260242618447,-9.85732814526591,30.9147783627068
1580421167.75751,11.1390859845883,-9.97940032043948,30.2433813992523
