Timestamp_seconds,Gyro_X_s,Gyro_Y_s,Gyro_Z_s
1580421251.42765,3.32646677347975,-0.152590218966907,2.83817807278547
1580421251.43165,2.7771419851988,0.213626306553806,2.59403372243833
1580421251.43565,1.9226367589838,0.213626306553806,2.41092545967808
1580421251.43965,0.823987182421661,0.396734569314049,2.10574502174404
1580421251.44365,-0.70191500724809,0.70191500724809,1.8616006713969
1580421251.44764,-2.10574502174404,1.0681315327688,1.67849240863666
1580421251.45164,-3.14335851071951,1.37331197070262,1.37331197070262
1580421251.45564,-3.93682764934761,1.80056458381023,1.12916762035547
1580421251.45964,-4.54718852521546,2.04470893415737,0.946059357595232
1580421251.46364,-5.21858548867021,2.41092545967808,0.579842832074519
1580421251.46764,-6.07309071488521,2.53299763485165,0.335698481727377
1580421251.47164,-7.04966811627378,2.59403372243833,0.0305180437933359
1580421251.47565,-8.33142595559616,2.65506981002522,-0.213626306553806
1580421251.47965,-9.67421988250544,2.7161058976119,-0.51880674448762
1580421251.48364,-11.0170138094147,2.7771419851988,-0.823987182421661
1580421251.48764,-12.1766994735638,2.59403372243833,-1.31227588311594
1580421251.49164,-13.3974212252995,2.41092545967808,-1.61745632104976
1580421251.49564,-14.5571068894483,2.34988937209118,-1.9226367589838
1580421251.49964,-15.5336842908368,2.47196154726475,-2.10574502174404
1580421251.50364,-16.4492256046387,2.53299763485165,-2.47196154726475
1580421251.50764,-17.1206225680933,2.47196154726475,-2.59403372243833
1580421251.51163,-17.9140917067216,2.7771419851988,-2.65506981002522
1580421251.51563,-18.4634164950025,2.7771419851988,-2.65506981002522
1580421251.51963,-19.0127412832837,2.59403372243833,-2.7161058976119
1580421251.52363,-19.1348134584573,2.47196154726475,-2.65506981002522
1580421251.52763,-19.0737773708704,2.28885328450451,-2.53299763485165
1580421251.53163,-18.341344319829,2.16678110933094,-2.41092545967808
1580421251.53563,-17.6699473563745,2.41092545967808,-2.22781719691761
1580421251.53963,-17.1206225680933,2.22781719691761,-1.98367284657047
1580421251.54362,-16.4492256046387,2.28885328450451,-1.80056458381023
1580421251.54762,-15.777828641184,2.34988937209118,-1.67849240863666
1580421251.55162,-15.3505760280766,1.80056458381023,-1.61745632104976
1580421251.5556,-15.2895399404897,1.43434805828952,-1.49538414587619
1580421251.5596,-15.5947203784237,1.12916762035547,-1.0070954451819
1580421251.5636,-15.2895399404897,1.0070954451819,-0.457770656900948
1580421251.5676,-14.1908903639276,1.19020370794237,-0.0305180437933359
1580421251.5716,-12.359807736324,1.25123979552905,0.274662394140478
1580421251.5756,-10.4676890211338,1.31227588311594,0.457770656900948
1580421251.57959,-8.75867856870377,1.0681315327688,0.946059357595232
1580421251.58359,-7.04966811627378,0.579842832074519,1.31227588311594
1580421251.58759,-5.27962157625689,0.152590218966907,1.98367284657047
1580421251.59159,-3.32646677347975,0.213626306553806,2.53299763485165
1580421251.59559,-1.98367284657047,0.335698481727377,3.02128633554594
1580421251.59959,-1.0070954451819,0.579842832074519,3.32646677347975
1580421251.60359,-0.213626306553806,1.0070954451819,3.69268329900046
1580421251.60759,0.152590218966907,1.19020370794237,3.87579156176093
1580421251.61158,0.335698481727377,1.31227588311594,4.05889982452118
1580421251.61558,0.762951094834762,1.12916762035547,4.48615243762879
1580421251.61958,1.0070954451819,0.885023270008332,4.48615243762879
1580421251.62358,1.25123979552905,0.640878919661191,4.48615243762879
1580421251.62758,1.37331197070262,0.396734569314049,4.30304417486832
1580421251.63158,1.0681315327688,0.213626306553806,4.05889982452118
1580421251.63559,0.579842832074519,0.091554131380235,3.81475547417404
1580421251.63959,0.0305180437933359,-0.0305180437933359,3.50957503624022
1580421251.64359,-0.457770656900948,0.0305180437933359,3.20439459830618
1580421251.64758,-0.823987182421661,-0.274662394140478,3.08232242313261
1580421251.65158,-0.946059357595232,-0.396734569314049,3.14335851071951
1580421251.65558,-1.12916762035547,-0.51880674448762,3.08232242313261
1580421251.65958,-1.31227588311594,-0.579842832074519,3.08232242313261
1580421251.66358,-1.49538414587619,-0.70191500724809,3.14335851071951
1580421251.66758,-1.43434805828952,-0.640878919661191,3.14335851071951
1580421251.67158,-1.25123979552905,-0.640878919661191,3.14335851071951
1580421251.67558,-0.396734569314049,-0.457770656900948,3.14335851071951
1580421251.67958,0.70191500724809,-0.274662394140478,3.26543068589308
1580421251.68357,1.55642023346309,-0.335698481727377,3.32646677347975
1580421251.68757,2.04470893415737,-0.335698481727377,3.02128633554594
1580421251.69157,2.22781719691761,-0.274662394140478,3.02128633554594
1580421251.69557,2.41092545967808,-0.335698481727377,2.96025024795904
1580421251.69957,2.59403372243833,-0.396734569314049,2.7771419851988
1580421251.70357,2.65506981002522,-0.274662394140478,2.7771419851988
1580421251.70757,2.7161058976119,-0.274662394140478,2.7161058976119
1580421251.71157,2.83817807278547,-0.396734569314049,2.59403372243833
1580421251.71554,2.7161058976119,-0.213626306553806,2.41092545967808
1580421251.71954,2.65506981002522,-0.152590218966907,2.34988937209118
1580421251.72354,2.47196154726475,0.091554131380235,2.22781719691761
1580421251.72754,2.41092545967808,0.335698481727377,2.22781719691761
1580421251.73154,2.28885328450451,0.457770656900948,2.22781719691761
1580421251.73554,1.98367284657047,0.579842832074519,2.10574502174404
1580421251.73954,1.55642023346309,0.70191500724809,1.9226367589838
1580421251.74354,0.946059357595232,0.823987182421661,1.80056458381023
1580421251.74753,0.51880674448762,0.823987182421661,1.67849240863666
1580421251.75153,0.091554131380235,0.885023270008332,1.61745632104976
1580421251.75553,-0.51880674448762,0.946059357595232,1.49538414587619
1580421251.75953,-1.19020370794237,0.823987182421661,1.37331197070262
1580421251.76353,-1.9226367589838,0.885023270008332,1.12916762035547
1580421251.76753,-2.41092545967808,0.885023270008332,1.0070954451819
1580421251.77153,-2.83817807278547,0.823987182421661,0.946059357595232
1580421251.77553,-3.08232242313261,0.885023270008332,0.946059357595232
1580421251.77953,-3.08232242313261,0.762951094834762,0.762951094834762
1580421251.78352,-3.08232242313261,0.946059357595232,0.762951094834762
1580421251.78752,-2.83817807278547,0.823987182421661,0.70191500724809
1580421251.79152,-2.16678110933094,0.946059357595232,0.762951094834762
1580421251.79553,-1.55642023346309,1.0681315327688,1.0070954451819
1580421251.79953,-1.0070954451819,1.19020370794237,1.25123979552905
1580421251.80353,-0.335698481727377,1.31227588311594,1.37331197070262
1580421251.80753,0.091554131380235,1.19020370794237,1.55642023346309
1580421251.81153,0.51880674448762,1.19020370794237,1.80056458381023
1580421251.81553,0.823987182421661,1.19020370794237,1.9226367589838
1580421251.81952,1.37331197070262,1.0681315327688,2.16678110933094
1580421251.82352,1.61745632104976,1.37331197070262,2.41092545967808
1580421251.82752,1.80056458381023,1.49538414587619,2.34988937209118
1580421251.83152,1.80056458381023,1.43434805828952,2.28885328450451
1580421251.83552,1.49538414587619,1.25123979552905,2.10574502174404
1580421251.83952,1.0070954451819,0.946059357595232,2.10574502174404
1580421251.84352,0.51880674448762,1.0681315327688,1.8616006713969
1580421251.84752,-0.274662394140478,1.0070954451819,1.55642023346309
1580421251.85151,-0.823987182421661,0.946059357595232,1.55642023346309
1580421251.85551,-1.12916762035547,0.70191500724809,1.43434805828952
1580421251.85951,-1.37331197070262,0.640878919661191,1.25123979552905
1580421251.86351,-1.73952849622333,0.457770656900948,0.946059357595232
1580421251.86751,-2.04470893415737,0.396734569314049,0.946059357595232
1580421251.87151,-2.28885328450451,0.396734569314049,0.762951094834762
1580421251.87549,-2.34988937209118,0.51880674448762,0.579842832074519
1580421251.87949,-2.22781719691761,0.396734569314049,0.579842832074519
1580421251.88348,-2.22781719691761,0.457770656900948,0.579842832074519
1580421251.88748,-2.22781719691761,0.51880674448762,0.457770656900948
1580421251.89148,-1.98367284657047,0.396734569314049,0.457770656900948
1580421251.89548,-1.9226367589838,0.335698481727377,0.457770656900948
1580421251.89948,-1.80056458381023,0.213626306553806,0.396734569314049
1580421251.90348,-1.98367284657047,0.152590218966907,0.0305180437933359
1580421251.90748,-2.47196154726475,0.091554131380235,-0.152590218966907
1580421251.91148,-2.7771419851988,-0.091554131380235,-0.335698481727377
1580421251.91547,-3.08232242313261,-0.335698481727377,-0.335698481727377
1580421251.91947,-3.20439459830618,-0.152590218966907,-0.51880674448762
1580421251.92347,-3.38750286106665,-0.213626306553806,-0.762951094834762
1580421251.92747,-3.93682764934761,-0.335698481727377,-0.885023270008332
1580421251.93147,-4.36408026245522,-0.457770656900948,-1.12916762035547
1580421251.93547,-4.36408026245522,-0.70191500724809,-1.19020370794237
1580421251.93947,-4.54718852521546,-0.823987182421661,-1.37331197070262
1580421251.94347,-4.36408026245522,-0.885023270008332,-1.31227588311594
1580421251.94747,-3.93682764934761,-0.762951094834762,-1.55642023346309
1580421251.95146,-3.75371938658736,-0.70191500724809,-1.43434805828952
1580421251.95547,-3.44853894865332,-0.70191500724809,-1.37331197070262
1580421251.95947,-3.14335851071951,-0.70191500724809,-1.43434805828952
1580421251.96347,-2.7161058976119,-0.823987182421661,-1.37331197070262
1580421251.96747,-2.28885328450451,-0.885023270008332,-1.37331197070262
1580421251.97147,-1.49538414587619,-0.946059357595232,-1.43434805828952
1580421251.97547,-0.946059357595232,-1.0070954451819,-1.31227588311594
1580421251.97947,-0.274662394140478,-1.19020370794237,-1.25123979552905
1580421251.98347,-0.0305180437933359,-1.25123979552905,-1.25123979552905
1580421251.98746,0.274662394140478,-1.25123979552905,-1.25123979552905
1580421251.99146,0.396734569314049,-1.37331197070262,-1.25123979552905
1580421251.99546,0.579842832074519,-1.55642023346309,-1.31227588311594
1580421251.99946,0.640878919661191,-1.61745632104976,-1.19020370794237
1580421252.00346,0.885023270008332,-1.67849240863666,-1.12916762035547
1580421252.00746,0.885023270008332,-1.80056458381023,-1.12916762035547
1580421252.01146,0.946059357595232,-1.73952849622333,-1.0681315327688
1580421252.01546,0.885023270008332,-1.8616006713969,-1.12916762035547
1580421252.01945,0.823987182421661,-1.8616006713969,-1.0681315327688
1580421252.02345,0.946059357595232,-1.9226367589838,-1.12916762035547
1580421252.02745,1.0070954451819,-2.10574502174404,-0.946059357595232
1580421252.03145,1.0681315327688,-2.10574502174404,-0.946059357595232
1580421252.03543,1.31227588311594,-2.16678110933094,-0.946059357595232
1580421252.03943,1.67849240863666,-2.34988937209118,-0.885023270008332
1580421252.04343,1.98367284657047,-2.53299763485165,-1.0070954451819
1580421252.04743,1.9226367589838,-2.65506981002522,-0.885023270008332
1580421252.05143,2.04470893415737,-2.59403372243833,-0.823987182421661
1580421252.05542,2.28885328450451,-2.41092545967808,-0.823987182421661
1580421252.05942,2.47196154726475,-2.41092545967808,-0.70191500724809
1580421252.06342,2.04470893415737,-2.34988937209118,-0.579842832074519
1580421252.06742,1.37331197070262,-2.41092545967808,-0.51880674448762
1580421252.07142,0.823987182421661,-2.22781719691761,-0.457770656900948
1580421252.07542,0.70191500724809,-2.22781719691761,-0.457770656900948
1580421252.07942,0.885023270008332,-2.28885328450451,-0.457770656900948
1580421252.08342,1.37331197070262,-2.28885328450451,-0.396734569314049
1580421252.08741,1.9226367589838,-2.34988937209118,-0.396734569314049
1580421252.09141,2.22781719691761,-2.47196154726475,-0.213626306553806
1580421252.09541,2.22781719691761,-2.47196154726475,-0.091554131380235
1580421252.09941,1.98367284657047,-2.34988937209118,-0.152590218966907
1580421252.10341,1.43434805828952,-2.22781719691761,-0.213626306553806
1580421252.10741,1.0070954451819,-2.16678110933094,-0.274662394140478
1580421252.11141,1.0070954451819,-2.16678110933094,-0.335698481727377
1580421252.11542,1.0070954451819,-2.41092545967808,-0.396734569314049
1580421252.11942,0.885023270008332,-2.65506981002522,-0.396734569314049
1580421252.12341,0.823987182421661,-2.7771419851988,-0.396734569314049
1580421252.12741,1.0070954451819,-2.89921416037237,-0.51880674448762
1580421252.13141,0.885023270008332,-2.7161058976119,-0.762951094834762
1580421252.13541,0.823987182421661,-2.65506981002522,-0.885023270008332
1580421252.13941,0.823987182421661,-2.47196154726475,-1.0070954451819
1580421252.14341,0.762951094834762,-2.41092545967808,-1.19020370794237
1580421252.14741,0.579842832074519,-2.41092545967808,-1.0681315327688
1580421252.15141,0.274662394140478,-2.53299763485165,-1.0681315327688
1580421252.15541,0.51880674448762,-2.47196154726475,-1.0681315327688
1580421252.1594,1.12916762035547,-2.65506981002522,-0.823987182421661
1580421252.1634,1.61745632104976,-2.65506981002522,-0.762951094834762
1580421252.1674,1.98367284657047,-2.89921416037237,-0.640878919661191
1580421252.1714,2.28885328450451,-3.02128633554594,-0.457770656900948
1580421252.1754,2.47196154726475,-3.02128633554594,-0.396734569314049
1580421252.1794,2.65506981002522,-2.7771419851988,-0.51880674448762
1580421252.1834,2.65506981002522,-2.96025024795904,-0.457770656900948
1580421252.18739,2.7161058976119,-2.83817807278547,-0.51880674448762
1580421252.19139,2.65506981002522,-2.7771419851988,-0.51880674448762
1580421252.19537,2.53299763485165,-2.41092545967808,-0.396734569314049
1580421252.19937,2.41092545967808,-2.47196154726475,-0.335698481727377
1580421252.20337,2.04470893415737,-2.59403372243833,-0.457770656900948
1580421252.20737,1.8616006713969,-2.59403372243833,-0.51880674448762
1580421252.21137,1.61745632104976,-2.83817807278547,-0.640878919661191
1580421252.21537,1.31227588311594,-2.83817807278547,-0.823987182421661
1580421252.21937,0.762951094834762,-2.83817807278547,-0.946059357595232
1580421252.22336,0.640878919661191,-2.7161058976119,-1.0070954451819
1580421252.22736,0.70191500724809,-2.65506981002522,-1.12916762035547
1580421252.23136,0.823987182421661,-2.7161058976119,-1.25123979552905
1580421252.23536,0.885023270008332,-2.7771419851988,-1.43434805828952
1580421252.23936,0.885023270008332,-2.83817807278547,-1.37331197070262
1580421252.24336,1.0070954451819,-2.83817807278547,-1.37331197070262
1580421252.24736,1.25123979552905,-2.7771419851988,-1.31227588311594
1580421252.25136,1.67849240863666,-2.59403372243833,-1.25123979552905
1580421252.25535,2.22781719691761,-2.59403372243833,-1.19020370794237
1580421252.25935,2.41092545967808,-2.83817807278547,-1.19020370794237
1580421252.26335,2.53299763485165,-2.89921416037237,-1.31227588311594
1580421252.26735,2.34988937209118,-2.7771419851988,-1.31227588311594
1580421252.27135,2.22781719691761,-2.65506981002522,-1.43434805828952
1580421252.27536,2.28885328450451,-2.59403372243833,-1.49538414587619
1580421252.27936,2.59403372243833,-2.65506981002522,-1.49538414587619
1580421252.28336,2.65506981002522,-2.89921416037237,-1.31227588311594
1580421252.28736,2.83817807278547,-3.02128633554594,-1.25123979552905
1580421252.29135,3.08232242313261,-2.96025024795904,-1.37331197070262
1580421252.29535,3.20439459830618,-2.7161058976119,-1.49538414587619
1580421252.29935,3.14335851071951,-2.65506981002522,-1.55642023346309
1580421252.30335,2.7161058976119,-2.59403372243833,-1.61745632104976
1580421252.30735,2.47196154726475,-2.59403372243833,-1.49538414587619
1580421252.31135,2.28885328450451,-2.53299763485165,-1.49538414587619
1580421252.31535,2.16678110933094,-2.53299763485165,-1.55642023346309
1580421252.31935,2.04470893415737,-2.83817807278547,-1.73952849622333
1580421252.32334,1.80056458381023,-2.89921416037237,-1.67849240863666
1580421252.32734,1.43434805828952,-2.96025024795904,-1.80056458381023
1580421252.33134,1.0070954451819,-2.96025024795904,-1.9226367589838
1580421252.33534,0.823987182421661,-2.7771419851988,-1.8616006713969
1580421252.33934,0.457770656900948,-2.89921416037237,-1.98367284657047
1580421252.34334,0.091554131380235,-2.96025024795904,-2.28885328450451
1580421252.34734,-0.396734569314049,-2.83817807278547,-2.28885328450451
1580421252.35134,-0.70191500724809,-2.7161058976119,-2.34988937209118
1580421252.35532,-0.579842832074519,-2.65506981002522,-2.28885328450451
1580421252.35931,-0.396734569314049,-2.65506981002522,-2.28885328450451
1580421252.36331,0.152590218966907,-2.65506981002522,-2.22781719691761
1580421252.36731,0.823987182421661,-2.7771419851988,-2.04470893415737
1580421252.37131,1.31227588311594,-3.08232242313261,-1.9226367589838
1580421252.37531,1.55642023346309,-2.96025024795904,-1.73952849622333
1580421252.37931,1.98367284657047,-3.02128633554594,-1.73952849622333
1580421252.38331,2.22781719691761,-2.83817807278547,-1.80056458381023
1580421252.38731,1.73952849622333,-2.7771419851988,-1.73952849622333
1580421252.3913,1.12916762035547,-2.89921416037237,-1.67849240863666
1580421252.3953,0.762951094834762,-2.83817807278547,-1.61745632104976
1580421252.3993,1.0070954451819,-2.59403372243833,-1.49538414587619
1580421252.4033,1.55642023346309,-2.65506981002522,-1.37331197070262
1580421252.4073,2.04470893415737,-2.89921416037237,-1.31227588311594
1580421252.4113,2.34988937209118,-3.02128633554594,-1.25123979552905
1580421252.4153,2.41092545967808,-3.08232242313261,-1.19020370794237
1580421252.4193,2.16678110933094,-2.96025024795904,-1.0681315327688
1580421252.4233,2.04470893415737,-2.83817807278547,-0.885023270008332
1580421252.42729,1.73952849622333,-2.65506981002522,-1.12916762035547
1580421252.43129,1.12916762035547,-2.53299763485165,-1.31227588311594
1580421252.4353,0.335698481727377,-2.59403372243833,-1.31227588311594
1580421252.4393,-0.0305180437933359,-2.53299763485165,-1.25123979552905
1580421252.4433,-0.51880674448762,-2.47196154726475,-1.37331197070262
1580421252.4473,-0.823987182421661,-2.41092545967808,-1.31227588311594
1580421252.4513,-0.823987182421661,-2.28885328450451,-1.55642023346309
1580421252.4553,-0.823987182421661,-2.34988937209118,-1.43434805828952
1580421252.4593,-0.885023270008332,-2.7161058976119,-1.37331197070262
1580421252.46329,-0.946059357595232,-2.89921416037237,-1.31227588311594
1580421252.46729,-0.823987182421661,-2.96025024795904,-1.19020370794237
1580421252.47129,-0.579842832074519,-2.89921416037237,-1.12916762035547
1580421252.47529,-0.335698481727377,-2.7771419851988,-1.12916762035547
1580421252.47929,-0.152590218966907,-2.65506981002522,-1.0681315327688
1580421252.48329,0.091554131380235,-2.59403372243833,-1.0681315327688
1580421252.48729,0.457770656900948,-2.53299763485165,-1.0681315327688
1580421252.49128,0.640878919661191,-2.65506981002522,-0.946059357595232
1580421252.49528,0.579842832074519,-2.65506981002522,-0.823987182421661
1580421252.49928,0.51880674448762,-2.65506981002522,-0.762951094834762
1580421252.50328,0.213626306553806,-2.41092545967808,-0.762951094834762
1580421252.50728,-0.152590218966907,-2.41092545967808,-0.885023270008332
1580421252.51128,-0.274662394140478,-2.34988937209118,-1.19020370794237
1580421252.51526,-0.335698481727377,-2.34988937209118,-1.37331197070262
1580421252.51926,-0.457770656900948,-2.47196154726475,-1.37331197070262
1580421252.52326,-0.457770656900948,-2.41092545967808,-1.37331197070262
1580421252.52725,-0.51880674448762,-2.47196154726475,-1.19020370794237
1580421252.53125,-0.640878919661191,-2.47196154726475,-1.31227588311594
1580421252.53525,-0.396734569314049,-2.28885328450451,-1.43434805828952
1580421252.53925,0.091554131380235,-2.47196154726475,-1.37331197070262
1580421252.54325,0.152590218966907,-2.47196154726475,-1.61745632104976
1580421252.54725,0.091554131380235,-2.47196154726475,-1.61745632104976
1580421252.55125,-0.0305180437933359,-2.41092545967808,-1.67849240863666
1580421252.55525,-0.213626306553806,-2.22781719691761,-1.67849240863666
1580421252.55924,-0.0305180437933359,-2.04470893415737,-1.80056458381023
1580421252.56324,-0.091554131380235,-2.10574502174404,-1.9226367589838
1580421252.56724,-0.274662394140478,-2.16678110933094,-1.98367284657047
1580421252.57124,-0.152590218966907,-2.34988937209118,-2.04470893415737
1580421252.57524,0.213626306553806,-2.22781719691761,-2.16678110933094
1580421252.57924,0.640878919661191,-2.16678110933094,-2.28885328450451
1580421252.58324,0.762951094834762,-2.10574502174404,-2.34988937209118
1580421252.58724,0.762951094834762,-2.22781719691761,-2.28885328450451
1580421252.59123,0.640878919661191,-2.16678110933094,-2.41092545967808
1580421252.59524,0.457770656900948,-2.28885328450451,-2.41092545967808
1580421252.59924,0.152590218966907,-2.22781719691761,-2.41092545967808
1580421252.60324,-0.091554131380235,-2.16678110933094,-2.53299763485165
1580421252.60724,0.0305180437933359,-2.34988937209118,-2.65506981002522
1580421252.61124,-0.091554131380235,-2.41092545967808,-2.7161058976119
1580421252.61524,-0.091554131380235,-2.41092545967808,-2.7161058976119
1580421252.61924,0.091554131380235,-2.41092545967808,-2.7771419851988
1580421252.62324,0.335698481727377,-2.41092545967808,-2.7771419851988
1580421252.62723,0.51880674448762,-2.28885328450451,-2.65506981002522
1580421252.63123,0.457770656900948,-2.16678110933094,-2.65506981002522
1580421252.63523,0.457770656900948,-2.16678110933094,-2.59403372243833
1580421252.63923,0.51880674448762,-2.10574502174404,-2.7161058976119
1580421252.64323,0.51880674448762,-2.10574502174404,-2.65506981002522
1580421252.64723,0.51880674448762,-2.10574502174404,-2.47196154726475
1580421252.65123,0.579842832074519,-2.10574502174404,-2.47196154726475
1580421252.65523,0.885023270008332,-2.16678110933094,-2.34988937209118
1580421252.65922,0.885023270008332,-2.10574502174404,-2.41092545967808
1580421252.66322,0.762951094834762,-2.16678110933094,-2.34988937209118
1580421252.66722,0.885023270008332,-2.16678110933094,-2.16678110933094
1580421252.67122,0.823987182421661,-2.10574502174404,-2.10574502174404
1580421252.6752,1.0070954451819,-1.98367284657047,-1.9226367589838
1580421252.6792,1.25123979552905,-1.80056458381023,-1.8616006713969
1580421252.6832,1.55642023346309,-1.73952849622333,-1.8616006713969
1580421252.6872,1.61745632104976,-1.80056458381023,-1.8616006713969
1580421252.6912,1.25123979552905,-1.73952849622333,-1.8616006713969
1580421252.69519,0.823987182421661,-1.49538414587619,-1.8616006713969
1580421252.69919,0.396734569314049,-1.55642023346309,-1.80056458381023
1580421252.70319,-0.152590218966907,-1.98367284657047,-1.80056458381023
1580421252.70719,-0.335698481727377,-2.04470893415737,-1.61745632104976
1580421252.71119,-0.091554131380235,-2.16678110933094,-1.67849240863666
1580421252.71519,0.335698481727377,-1.98367284657047,-1.61745632104976
1580421252.71919,0.885023270008332,-1.8616006713969,-1.31227588311594
1580421252.72319,1.25123979552905,-1.8616006713969,-1.12916762035547
1580421252.72719,1.43434805828952,-1.8616006713969,-1.0070954451819
1580421252.73118,1.8616006713969,-1.80056458381023,-0.762951094834762
1580421252.73518,2.10574502174404,-1.9226367589838,-0.579842832074519
1580421252.73918,2.22781719691761,-1.8616006713969,-0.579842832074519
1580421252.74318,2.22781719691761,-1.80056458381023,-0.51880674448762
1580421252.74718,2.10574502174404,-1.73952849622333,-0.396734569314049
1580421252.75118,2.04470893415737,-1.80056458381023,-0.274662394140478
1580421252.75519,1.80056458381023,-1.9226367589838,-0.274662394140478
1580421252.75919,1.61745632104976,-1.8616006713969,-0.213626306553806
1580421252.76319,1.43434805828952,-1.98367284657047,-0.396734569314049
1580421252.76718,1.49538414587619,-2.04470893415737,-0.51880674448762
1580421252.77118,1.37331197070262,-1.9226367589838,-0.579842832074519
1580421252.77518,1.37331197070262,-2.04470893415737,-0.762951094834762
1580421252.77918,1.37331197070262,-1.98367284657047,-1.0070954451819
1580421252.78318,1.37331197070262,-2.16678110933094,-0.946059357595232
1580421252.78718,1.0070954451819,-2.28885328450451,-0.823987182421661
1580421252.79118,0.823987182421661,-2.22781719691761,-1.0070954451819
1580421252.79517,0.579842832074519,-2.16678110933094,-1.0681315327688
1580421252.79917,0.396734569314049,-1.98367284657047,-1.0070954451819
1580421252.80317,0.274662394140478,-2.04470893415737,-1.31227588311594
1580421252.80717,0.091554131380235,-1.9226367589838,-1.37331197070262
1580421252.81117,-0.0305180437933359,-2.10574502174404,-1.37331197070262
1580421252.81517,0.0305180437933359,-2.16678110933094,-1.49538414587619
1580421252.81917,0.335698481727377,-2.22781719691761,-1.67849240863666
1580421252.82317,0.213626306553806,-2.22781719691761,-1.55642023346309
1580421252.82716,-0.152590218966907,-2.22781719691761,-1.55642023346309
1580421252.83116,-0.457770656900948,-2.04470893415737,-1.61745632104976
1580421252.83514,-0.640878919661191,-1.98367284657047,-1.67849240863666
1580421252.83914,-0.457770656900948,-2.16678110933094,-1.67849240863666
1580421252.84314,-0.213626306553806,-2.41092545967808,-1.61745632104976
1580421252.84714,0.335698481727377,-2.41092545967808,-1.43434805828952
1580421252.85114,0.885023270008332,-2.34988937209118,-1.25123979552905
1580421252.85514,1.55642023346309,-2.28885328450451,-0.946059357595232
1580421252.85914,2.10574502174404,-2.10574502174404,-0.762951094834762
1580421252.86313,2.53299763485165,-2.10574502174404,-0.640878919661191
1580421252.86713,2.96025024795904,-2.16678110933094,-0.51880674448762
1580421252.87113,3.44853894865332,-1.98367284657047,-0.335698481727377
1580421252.87513,3.69268329900046,-2.16678110933094,-0.213626306553806
1580421252.87913,3.87579156176093,-2.22781719691761,0.0305180437933359
1580421252.88313,4.18097199969475,-2.16678110933094,0.152590218966907
1580421252.88713,4.54718852521546,-2.22781719691761,0.335698481727377
1580421252.89113,4.7913328755626,-2.34988937209118,0.396734569314049
1580421252.89512,5.15754940108332,-2.41092545967808,0.640878919661191
1580421252.89912,5.34065766384379,-2.22781719691761,0.70191500724809
1580421252.90312,5.58480201419093,-2.34988937209118,0.823987182421661
1580421252.90712,6.07309071488521,-2.22781719691761,1.12916762035547
1580421252.91112,6.25619897764545,-2.10574502174404,1.12916762035547
1580421252.91513,6.25619897764545,-2.04470893415737,1.43434805828952
1580421252.91913,6.19516289005878,-2.22781719691761,1.43434805828952
1580421252.92313,6.13412680247188,-2.34988937209118,1.49538414587619
1580421252.92713,5.88998245212474,-2.59403372243833,1.61745632104976
1580421252.93112,5.82894636453807,-3.02128633554594,1.61745632104976
1580421252.93512,6.01205462729831,-3.08232242313261,1.67849240863666
1580421252.93912,6.62241550316617,-3.14335851071951,1.98367284657047
1580421252.94312,7.23277637903402,-3.26543068589308,2.28885328450451
1580421252.94712,8.33142595559616,-3.08232242313261,2.65506981002522
1580421252.95112,9.4911116197452,-2.59403372243833,3.08232242313261
1580421252.95512,10.4676890211338,-2.22781719691761,3.57061112382689
1580421252.95912,11.4442664225223,-2.10574502174404,3.93682764934761
1580421252.96311,12.7260242618447,-2.16678110933094,4.24200808728165
1580421252.96711,13.9467460135804,-2.16678110933094,4.54718852521546
1580421252.97111,14.7402151522087,-2.22781719691761,4.7913328755626
1580421252.97511,15.5947203784237,-2.47196154726475,4.91340505073617
1580421252.97911,16.5712977798123,-2.47196154726475,4.97444113832307
1580421252.98311,16.9985503929197,-2.16678110933094,4.97444113832307
1580421252.98711,16.632333867399,-2.16678110933094,4.66926070038903
1580421252.99111,15.4726482032502,-1.9226367589838,4.36408026245522
1580421252.99509,13.8246738384069,-1.73952849622333,4.18097199969475
1580421252.99908,11.9935912108033,-1.61745632104976,3.99786373693451
1580421253.00308,10.955977721828,-1.49538414587619,3.69268329900046
1580421253.00708,10.3456168459602,-1.67849240863666,3.32646677347975
1580421253.01108,9.61318379491877,-1.8616006713969,2.96025024795904
1580421253.01508,9.00282291905091,-2.04470893415737,2.41092545967808
1580421253.01908,8.5755703059433,-2.53299763485165,2.04470893415737
1580421253.02308,8.5755703059433,-2.59403372243833,1.73952849622333
1580421253.02708,8.75867856870377,-2.53299763485165,1.55642023346309
1580421253.03108,9.12489509422448,-2.7771419851988,1.37331197070262
1580421253.03507,9.4300755321583,-2.83817807278547,1.12916762035547
1580421253.03907,9.79629205767901,-2.7771419851988,1.0681315327688
1580421253.04307,9.91836423285258,-2.7771419851988,0.823987182421661
1580421253.04707,10.3456168459602,-2.89921416037237,0.70191500724809
1580421253.05107,10.8949416342411,-2.89921416037237,0.70191500724809
1580421253.05507,11.3832303349354,-2.89921416037237,0.70191500724809
1580421253.05907,11.2611581597619,-2.83817807278547,0.51880674448762
1580421253.06306,11.505302510109,-2.96025024795904,0.51880674448762
1580421253.06706,11.4442664225223,-2.96025024795904,0.579842832074519
1580421253.07106,10.7728694590676,-3.08232242313261,0.51880674448762
1580421253.07507,10.1625085831997,-3.38750286106665,0.0305180437933359
1580421253.07907,9.85732814526591,-3.75371938658736,-0.274662394140478
1580421253.08307,10.0404364080262,-4.11993591210808,-0.640878919661191
1580421253.08707,10.3456168459602,-4.30304417486832,-0.823987182421661
1580421253.09107,10.2845807583733,-4.36408026245522,-1.25123979552905
1580421253.09507,10.1014724956131,-4.36408026245522,-1.31227588311594
1580421253.09906,9.55214770733187,-4.42511635004189,-1.61745632104976
1580421253.10306,8.94178683146401,-4.60822461280236,-1.9226367589838
1580421253.10706,8.20935378042259,-4.73029678797593,-2.22781719691761
1580421253.11106,7.72106507972831,-4.91340505073617,-2.34988937209118
1580421253.11506,7.66002899214163,-4.91340505073617,-2.59403372243833
1580421253.11906,7.66002899214163,-4.97444113832307,-2.7771419851988
1580421253.12306,7.84313725490188,-4.91340505073617,-3.02128633554594
1580421253.12706,8.08728160524902,-4.91340505073617,-3.08232242313261
1580421253.13105,8.08728160524902,-4.8523689631495,-3.20439459830618
1580421253.13505,7.72106507972831,-4.73029678797593,-3.50957503624022
1580421253.13905,7.29381246662092,-4.66926070038903,-3.99786373693451
1580421253.14305,6.68345159075307,-4.73029678797593,-4.18097199969475
1580421253.14705,5.76791027695117,-4.91340505073617,-4.42511635004189
1580421253.15105,4.60822461280236,-5.15754940108332,-4.7913328755626
1580421253.155,3.93682764934761,-5.27962157625689,-5.03547722590974
1580421253.159,3.20439459830618,-5.46272983901736,-5.27962157625689
1580421253.163,2.65506981002522,-5.34065766384379,-5.40169375143046
1580421253.16699,2.28885328450451,-5.27962157625689,-5.6458381017776
1580421253.17099,1.98367284657047,-5.21858548867021,-5.76791027695117
1580421253.17499,1.98367284657047,-5.15754940108332,-5.76791027695117
1580421253.17899,1.9226367589838,-5.27962157625689,-6.01205462729831
1580421253.18299,1.98367284657047,-5.40169375143046,-6.13412680247188
1580421253.18699,1.80056458381023,-5.7068741893645,-6.62241550316617
1580421253.19099,1.25123979552905,-6.62241550316617,-7.17174029144735
1580421253.19499,0.274662394140478,-7.59899290455473,-7.59899290455473
1580421253.19898,-1.25123979552905,-7.90417334248878,-7.53795681696806
1580421253.20298,-2.47196154726475,-7.59899290455473,-7.59899290455473
1580421253.20698,-2.47196154726475,-7.35484855420759,-7.59899290455473
1580421253.21098,-2.16678110933094,-7.23277637903402,-7.84313725490188
1580421253.21498,-2.47196154726475,-7.41588464179449,-8.20935378042259
1580421253.21898,-2.96025024795904,-7.47692072938116,-8.88075074387734
1580421253.22298,-2.65506981002522,-7.66002899214163,-9.4911116197452
1580421253.22698,-2.22781719691761,-7.72106507972831,-9.85732814526591
1580421253.23097,-1.80056458381023,-7.66002899214163,-10.0404364080262
1580421253.23498,-1.73952849622333,-7.72106507972831,-10.4066529335469
1580421253.23898,-2.22781719691761,-7.7821011673152,-10.8949416342411
1580421253.24298,-3.32646677347975,-8.02624551766235,-11.3221942473488
1580421253.24698,-4.60822461280236,-8.08728160524902,-11.9325551232166
1580421253.25098,-5.82894636453807,-8.08728160524902,-12.6039520866711
1580421253.25498,-6.43930724040592,-7.96520943007545,-13.0922407873654
1580421253.25898,-6.74448767833974,-8.20935378042259,-13.6415655756466
1580421253.26298,-7.29381246662092,-8.81971465629044,-14.1908903639276
1580421253.26697,-8.02624551766235,-9.61318379491877,-14.7402151522087
1580421253.27097,-8.27038986800949,-10.0404364080262,-15.3505760280766
1580421253.27497,-7.53795681696806,-10.3456168459602,-15.9609369039445
1580421253.27897,-6.37827115281902,-10.3456168459602,-16.4492256046387
1580421253.28297,-5.15754940108332,-10.3456168459602,-16.7544060425726
1580421253.28697,-4.54718852521546,-10.3456168459602,-17.3037308308537
1580421253.29097,-4.18097199969475,-10.5287251087204,-17.7309834439611
1580421253.29497,-3.75371938658736,-10.5287251087204,-18.2803082322423
1580421253.29896,-3.50957503624022,-10.7118333714809,-18.9517051956968
1580421253.30296,-3.26543068589308,-10.955977721828,-19.6841382467383
1580421253.30696,-3.14335851071951,-11.2001220721752,-20.4776073853666
1580421253.31096,-3.08232242313261,-11.3832303349354,-21.3931486991683
1580421253.31497,-3.20439459830618,-11.5663385976959,-22.3086900129701
1580421253.31897,-3.38750286106665,-11.7494468604561,-23.468375677119
1580421253.32297,-3.32646677347975,-11.7494468604561,-24.628061341268
1580421253.32697,-3.32646677347975,-11.9325551232166,-25.8487830930037
1580421253.33097,-3.57061112382689,-12.2377355611504,-27.1305409323261
1580421253.33496,-3.81475547417404,-12.4208438239109,-28.3512626840618
1580421253.33896,-3.87579156176093,-12.5429159990845,-29.755092698558
1580421253.34296,-3.99786373693451,-12.664988174258,-31.5251392385749
1580421253.34696,-4.36408026245522,-12.6039520866711,-33.4172579537653
1580421253.35096,-4.7913328755626,-12.7870603494316,-35.3704127565425
1580421253.35496,-4.7913328755626,-13.214312962539,-37.4456397344932
1580421253.35896,-4.42511635004189,-13.7026016632333,-39.3987945372703
1580421253.36296,-4.54718852521546,-13.8246738384069,-41.5960936903946
1580421253.36696,-4.97444113832307,-13.8857099259938,-43.7933928435189
1580421253.37095,-5.76791027695117,-13.9467460135804,-46.2958724345769
1580421253.37495,-6.80552376592664,-13.9467460135804,-48.9204242008088
1580421253.37895,-7.66002899214163,-13.8857099259938,-51.6670481422141
1580421253.38295,-8.6366063935302,-13.9467460135804,-54.7188525215533
1580421253.38695,-10.5897611963073,-13.9467460135804,-57.8927290760662
1580421253.39095,-13.3363851377126,-14.1908903639276,-60.9445334554055
1580421253.39493,-16.2661173418783,-14.373998626688,-63.7521934843976
1580421253.39893,-18.7075608453497,-13.9467460135804,-66.7429617761502
1580421253.40293,-20.5386434729533,-14.068818188754,-70.0999465934233
1580421253.40692,-21.5762569619287,-14.373998626688,-73.7010757610437
1580421253.41092,-21.8204013122759,-14.7402151522087,-77.1801327534904
1580421253.41492,-21.5762569619287,-15.2895399404897,-80.5371175707637
1580421253.41892,-20.8438239108873,-15.5336842908368,-83.588921950103
1580421253.42292,-20.050354772259,-15.4116121156633,-86.3965819790951
1580421253.42692,-19.0737773708704,-15.6557564660104,-89.2652780956739
1580421253.43092,-17.9751277943083,-15.777828641184,-92.133974212253
1580421253.43491,-16.7544060425726,-16.0219729915311,-94.8195620660717
1580421253.43891,-15.228503852903,-16.5712977798123,-97.2610055695432
1580421253.44291,-13.7636377508202,-17.1206225680933,-99.7024490730146
1580421253.44691,-12.0546272983902,-17.6089112687876,-101.777676050965
1580421253.45091,-10.2235446707866,-18.0971999694818,-103.303578240635
1580421253.45491,-9.00282291905091,-18.2803082322423,-104.34119172961
1580421253.45891,-8.39246204318306,-18.2192721446554,-104.890516517891
1580421253.46291,-7.23277637903402,-18.4023804074159,-105.256733043412
1580421253.4669,-4.42511635004189,-18.2192721446554,-105.561913481346
1580421253.4709,0.274662394140478,-18.7685969329366,-105.378805218586
1580421253.47491,5.76791027695117,-19.9893186846723,-104.280155642023
1580421253.47891,8.02624551766235,-20.7217517357137,-102.754253452354
1580421253.48291,5.15754940108332,-19.8062104219118,-101.716639963378
1580421253.48691,0.274662394140478,-17.3037308308537,-102.021820401312
1580421253.49091,-1.67849240863666,-15.1064316777295,-103.181506065461
1580421253.49491,1.55642023346309,-14.068818188754,-103.730830853742
1580421253.49891,8.14831769283592,-14.3129625391011,-102.815289539941
1580421253.5029,14.5571068894483,-15.1064316777295,-100.434882124056
1580421253.5069,18.0361638818952,-16.0219729915311,-97.9934386205846
1580421253.5109,18.2192721446554,-16.083009079118,-96.2844281681546
1580421253.5149,15.7167925535973,-15.1674677653161,-95.5519951171132
1580421253.5189,10.5897611963073,-13.9467460135804,-95.7351033798734
1580421253.5229,3.14335851071951,-12.6039520866711,-96.5896086060884
1580421253.5269,-4.91340505073617,-10.4066529335469,-98.1155107957582
1580421253.5309,-10.1625085831997,-6.31723506523235,-99.6414129854277
1580421253.5349,-9.36903944457163,-1.73952849622333,-100.068665598535
1580421253.53889,-3.14335851071951,1.25123979552905,-98.420691233692
1580421253.54289,5.27962157625689,3.57061112382689,-94.8195620660717
1580421253.54689,11.0780498970016,5.46272983901736,-90.0587472343022
1580421253.55089,13.3974212252995,7.04966811627378,-85.5420767528801
1580421253.55487,13.6415655756466,7.53795681696806,-81.3305867093918
1580421253.55887,13.7026016632333,7.17174029144735,-77.3632410162509
1580421253.56287,14.1908903639276,5.82894636453807,-72.9076066224154
1580421253.56687,14.4350347142747,3.87579156176093,-67.7195391775388
1580421253.57086,13.5805294880597,1.8616006713969,-61.8600747692074
1580421253.57486,11.2611581597619,0.579842832074519,-55.5123216601817
1580421253.57886,7.11070420386045,-0.885023270008332,-48.310063324941
1580421253.58286,-0.823987182421661,-2.41092545967808,-40.9857328145267
1580421253.58686,-14.068818188754,-2.7771419851988,-34.5159075303275
1580421253.59086,-32.3186083772032,-0.823987182421661,-29.6330205233844
1580421253.59486,-52.8267338063631,2.7161058976119,-26.2149996185244
1580421253.59886,-71.3817044327459,5.58480201419093,-23.773556115053
1580421253.60285,-84.8096437018387,7.04966811627378,-20.1724269474325
1580421253.60685,-93.2326237888151,7.35484855420759,-14.6791790646218
1580421253.61085,-99.0920881971467,6.86655985351331,-7.59899290455473
1580421253.61485,-104.15808346685,5.82894636453807,-0.152590218966907
1580421253.61885,-109.4682230869,4.42511635004189,6.80552376592664
1580421253.62285,-115.9380483711,3.26543068589308,12.6039520866711
1580421253.62685,-123.201342793927,1.98367284657047,17.5478751812009
1580421253.63085,-129.854276340887,0.762951094834762,22.1866178377966
1580421253.63486,-134.065766384375,-0.213626306553806,26.8863965819789
1580421253.63886,-134.859235523003,-1.12916762035547,31.8303196765087
1580421253.64285,-132.478828107118,-1.98367284657047,37.0794232089722
1580421253.64685,-128.08422980087,-2.7161058976119,42.6337071793696
1580421253.65085,-122.346837567712,-3.32646677347975,48.3710994125277
1580421253.65485,-115.510795757992,-3.87579156176093,54.2305638208591
1580421253.65885,-107.820248722057,-4.36408026245522,60.3341725795376
1580421253.66285,-99.3972686350805,-4.7913328755626,66.8039978637371
1580421253.66685,-90.3639276722361,-5.52376592660403,73.3958953231099
1580421253.67085,-80.9643701838711,-6.31723506523235,79.8046845197223
1580421253.67484,-71.320668345159,-7.29381246662092,86.152437628748
1580421253.67884,-61.4938582436866,-8.02624551766235,92.6222629129475
1580421253.68284,-51.4229037918669,-8.75867856870377,98.8479438467994
1580421253.68684,-41.4129854276341,-9.06385900663759,104.768444342718
1580421253.69084,-31.3420309758146,-9.18593118181116,110.749980926223
1580421253.69484,-20.9658960860609,-9.12489509422448,116.365300984207
1580421253.69884,-10.2235446707866,-8.6366063935302,122.041657129778
1580421253.70284,1.19020370794237,-7.84313725490188,127.595941100175
1580421253.70683,12.6039520866711,-6.80552376592664,132.845044632639
1580421253.71083,23.468375677119,-5.7068741893645,137.972075989929
1580421253.71481,33.2341496910046,-4.11993591210808,142.915999084459
1580421253.71881,41.4129854276339,-2.47196154726475,147.676813916228
1580421253.72281,48.0048828870067,-0.762951094834762,152.01037613489
1580421253.72681,53.1929503318834,1.12916762035547,155.794613565271
1580421253.73081,56.9771877622643,3.02128633554594,159.395742732891
1580421253.73481,59.2355230029752,4.8523689631495,162.325474937056
1580421253.7388,60.3952086671243,6.5003433279926,164.766918440528
1580421253.7428,60.5172808422976,7.96520943007545,166.720073243305
1580421253.7468,59.357595178149,9.36903944457163,168.245975432975
1580421253.7508,57.038223849851,10.5897611963073,169.10048065919
1580421253.7548,53.4981307698176,11.4442664225223,169.344625009537
1580421253.7588,48.7373159380481,12.1156633859769,169.039444571603
1580421253.7628,42.9388876173036,12.8480964370183,168.123903257801
1580421253.7668,36.530098420691,12.9701686121919,166.598001068131
1580421253.77079,29.0836957351032,13.214312962539,164.522774090181
1580421253.77479,20.2334630350194,13.7636377508202,162.081330586709
1580421253.77879,9.97940032043948,14.3129625391011,159.395742732891
1580421253.78279,-1.25123979552905,14.5571068894483,156.588082703899
1580421253.78679,-13.1532768749523,14.3129625391011,153.597314412146
1580421253.79079,-25.1773861295489,13.5805294880597,150.362401770046
1580421253.79483,-36.5300984206913,12.4818799114976,146.822308690013
1580421253.79883,-46.3569085221638,11.2001220721752,143.160143434806
1580421253.80283,-53.7422751201648,9.97940032043948,139.314869916838
1580421253.80683,-58.6251621271076,9.18593118181116,135.164415960937
1580421253.81082,-60.2731364919509,8.51453421835663,130.891889829862
1580421253.81482,-58.6861982146945,8.33142595559616,126.741435873961
1580421253.81882,-54.291599908446,8.20935378042259,122.896162355993
1580421253.82282,-47.8217746242467,8.20935378042259,119.478141451133
1580421253.82682,-40.0701915007248,7.84313725490188,116.487373159381
1580421253.83082,-32.074464026856,7.35484855420759,113.984893568322
1580421253.83482,-24.2008087281604,7.11070420386045,111.543450064851
1580421253.83882,-17.2426947432668,6.80552376592664,108.979934386206
1580421253.84281,-11.505302510109,6.01205462729831,106.416418707561
1580421253.84681,-7.29381246662092,5.40169375143046,103.913939116503
1580421253.85081,-5.52376592660403,5.09651331349664,101.228351262684
1580421253.85481,-5.88998245212474,6.98863202868688,98.3596551461051
1580421253.85881,-8.08728160524902,10.8949416342411,95.5519951171132
1580421253.86281,-11.5663385976959,11.3832303349354,92.6222629129475
1580421253.86681,-14.373998626688,9.00282291905091,89.7535667963684
1580421253.87081,-14.923323414969,6.86655985351331,87.1900511177237
1580421253.87479,-13.214312962539,6.62241550316617,84.0772106507975
1580421253.87878,-8.5755703059433,5.82894636453807,80.0488288700694
1580421253.88278,-1.31227588311594,4.60822461280236,76.3866636148623
1580421253.88678,6.37827115281902,5.15754940108332,73.4569314106966
1580421253.89078,12.359807736324,6.68345159075307,71.0154879072252
1580421253.89478,16.083009079118,7.84313725490188,68.8181887541009
1580421253.89878,19.195849546044,8.75867856870377,66.8650339513238
1580421253.90278,22.0035095750361,9.85732814526591,65.0949874113071
1580421253.90678,24.8722056916151,10.8339055466545,62.9587243457695
1580421253.91077,26.4591439688716,10.8949416342411,60.2731364919505
1580421253.91477,26.4591439688716,9.91836423285258,57.1602960250248
1580421253.91877,24.9332417792018,8.81971465629044,53.8643472953381
1580421253.92277,22.3086900129701,7.47692072938116,50.3852903028915
1580421253.92677,19.0737773708704,6.43930724040592,46.6010528725108
1580421253.93077,15.6557564660104,5.7068741893645,42.6947432669565
1580421253.93477,11.8715190356297,5.21858548867021,38.4832532234682
1580421253.93877,7.11070420386045,4.48615243762879,33.9665827420461
1580421253.94276,1.12916762035547,4.05889982452118,29.2057679102768
1580421253.94676,-5.7068741893645,3.93682764934761,24.0787365529868
1580421253.95076,-12.6039520866711,3.81475547417404,18.7075608453497
1580421253.95477,-18.7685969329366,3.87579156176093,13.0312046997788
1580421253.95877,-24.0177004654001,3.81475547417404,7.35484855420759
1580421253.96277,-28.2902265964751,3.14335851071951,1.73952849622333
1580421253.96677,-32.4406805523768,1.8616006713969,-3.69268329900046
1580421253.97077,-37.0183871213856,0.579842832074519,-9.12489509422448
1580421253.97477,-41.7792019531548,-0.640878919661191,-14.5571068894483
1580421253.97877,-46.0517280842298,-1.61745632104976,-20.1724269474325
1580421253.98276,-49.5918211642634,-1.67849240863666,-25.7267109178301
1580421253.98676,-52.7656977187762,-1.0681315327688,-31.3420309758146
1580421253.99076,-54.9019607843138,-0.0305180437933359,-36.9573510337989
1580421253.99476,-55.7564660105288,1.98367284657047,-42.328526741436
1580421253.99876,-53.9253833829252,7.04966811627378,-46.9062333104448
1580421254.00276,-43.9765011062791,14.2519264515145,-49.164568551156
1580421254.00676,-20.2334630350194,17.486839093614,-46.1127641718167
1580421254.01075,8.51453421835663,14.9843595025559,-37.5066758220798
1580421254.01475,26.2760357061111,7.41588464179449,-26.9474326695658
1580421254.01875,23.468375677119,-1.0070954451819,-18.0361638818952
1580421254.02275,1.12916762035547,-1.80056458381023,-14.068818188754
1580421254.02675,-27.4357213702601,5.27962157625689,-17.1206225680933
1580421254.03075,-48.9204242008088,15.1674677653161,-26.0318913557639
1580421254.03473,-60.7003891050583,20.2944991226061,-36.6521705958648
1580421254.03873,-64.6677347981995,17.792019531548,-44.586861982147
1580421254.04273,-62.6535439078355,12.2377355611504,-48.310063324941
1580421254.04673,-55.8175020981155,8.08728160524902,-48.3710994125277
1580421254.05072,-45.8686198214696,7.35484855420759,-47.6997024490731
1580421254.05472,-36.041809719997,9.97940032043948,-48.0048828870069
1580421254.05872,-28.9616235599296,14.6791790646218,-49.9580376897841
1580421254.06272,-24.9942778667887,18.646524757763,-52.1553368429084
1580421254.06672,-22.1255817502097,20.1724269474325,-53.437094682231
1580421254.07072,-17.6699473563745,19.195849546044,-53.0098420691234
1580421254.07472,-11.2001220721752,17.1206225680933,-51.0566872663462
1580421254.07871,-3.08232242313261,15.1064316777295,-48.9204242008088
1580421254.08271,5.40169375143046,13.3363851377126,-47.3945220111391
1580421254.08671,12.9701686121919,11.9325551232166,-46.7841611352712
1580421254.09071,19.3789578088044,10.2845807583733,-46.3569085221638
1580421254.09471,24.322880903334,8.45349813076973,-45.441367208362
1580421254.09871,27.2526131074997,7.11070420386045,-43.8544289311055
1580421254.10271,27.9850461585411,6.98863202868688,-41.9623102159153
1580421254.10671,26.5812161440451,8.08728160524902,-40.7415884641796
1580421254.1107,23.1631952391851,9.06385900663759,-40.1922636758984
1580421254.11468,19.0737773708704,9.36903944457163,-40.2532997634853
1580421254.11868,14.3129625391011,10.2235446707866,-40.7415884641796
1580421254.12268,9.4300755321583,11.2001220721752,-41.4129854276341
1580421254.12668,4.30304417486832,11.3221942473488,-42.2674906538491
1580421254.13068,-0.640878919661191,10.5287251087204,-43.1219958800641
1580421254.13468,-5.6458381017776,9.36903944457163,-44.2206454566262
1580421254.13868,-10.5287251087204,8.14831769283592,-45.6244754711224
1580421254.14268,-13.7026016632333,7.47692072938116,-47.0283054856184
1580421254.14667,-13.8246738384069,7.7821011673152,-47.9438467994203
1580421254.15067,-12.0546272983902,8.51453421835663,-48.2490272373541
1580421254.15467,-11.2001220721752,8.75867856870377,-47.6386663614862
1580421254.15867,-11.7494468604561,8.81971465629044,-46.4789806973374
1580421254.16267,-11.9935912108033,10.1625085831997,-45.2582589456017
1580421254.16667,-11.3832303349354,11.5663385976959,-43.9765011062791
1580421254.17067,-9.36903944457163,11.3832303349354,-42.9999237048905
1580421254.17467,-7.04966811627378,10.7728694590676,-42.328526741436
1580421254.17866,-4.97444113832307,9.97940032043948,-41.8402380407417
1580421254.18266,-2.89921416037237,9.24696726939806,-40.8636606393532
1580421254.18666,-0.213626306553806,9.79629205767901,-39.5819028000305
1580421254.19066,3.57061112382689,10.955977721828,-38.3001449607082
1580421254.19467,7.59899290455473,11.9935912108033,-37.0794232089725
1580421254.19867,11.1390859845883,12.9091325246052,-35.9807736324103
1580421254.20267,13.8857099259938,11.9935912108033,-34.8210879682613
1580421254.20667,16.0219729915311,10.8339055466545,-33.4172579537653
1580421254.21067,18.0971999694818,10.5287251087204,-31.8303196765089
1580421254.21466,21.6372930495154,10.2845807583733,-30.609597924773
1580421254.21866,24.1397726405737,10.2235446707866,-29.8771648737315
1580421254.22266,25.7877470054168,9.91836423285258,-29.9992370489051
1580421254.22666,27.3746852826732,9.36903944457163,-30.4264896620125
1580421254.23066,28.1681544213016,9.4300755321583,-30.3654535744258
1580421254.23466,27.0084687571525,10.2235446707866,-30.1823453116654
1580421254.23866,24.1397726405737,11.505302510109,-29.8771648737315
1580421254.24266,21.759365224689,12.4208438239109,-29.5109483482108
1580421254.24665,20.5386434729533,13.2753490501259,-29.2668039978637
1580421254.25065,20.6607156481268,13.519493400473,-29.0836957351032
1580421254.25465,21.210040436408,12.9091325246052,-29.2057679102768
1580421254.25865,19.0737773708704,12.1156633859769,-29.755092698558
1580421254.26265,14.9843595025559,11.3832303349354,-30.2433813992523
1580421254.26665,11.810482948043,11.505302510109,-30.3044174868389
1580421254.27065,10.0404364080262,12.1766994735638,-30.3654535744258
1580421254.27466,8.88075074387734,13.0312046997788,-30.5485618371861
1580421254.27866,7.96520943007545,13.2753490501259,-31.2809948882277
1580421254.28266,6.5003433279926,13.0312046997788,-32.1355001144427
1580421254.28665,4.11993591210808,12.7260242618447,-32.8068970778975
1580421254.29065,2.47196154726475,12.2377355611504,-33.1731136034182
1580421254.29465,0.823987182421661,12.0546272983902,-33.0510414282446
1580421254.29865,0.51880674448762,12.0546272983902,-32.8068970778975
1580421254.30265,2.04470893415737,12.1766994735638,-32.1355001144427
1580421254.30665,3.08232242313261,12.5429159990845,-31.2809948882277
1580421254.31065,5.76791027695117,13.0922407873654,-30.4875257495994
1580421254.31464,9.00282291905091,13.0312046997788,-29.8771648737315
1580421254.31864,9.61318379491877,12.1766994735638,-29.8161287861446
1580421254.32264,9.61318379491877,11.4442664225223,-30.1823453116654
1580421254.32664,8.6366063935302,11.4442664225223,-30.8537422751201
1580421254.33064,5.52376592660403,11.3832303349354,-31.7082475013353
1580421254.33464,1.55642023346309,11.3221942473488,-32.5017166399634
1580421254.33864,-1.37331197070262,11.0170138094147,-32.9900053406577
1580421254.34264,-2.22781719691761,10.650797283894,-33.2341496910049
1580421254.34663,-1.19020370794237,10.4676890211338,-33.1731136034182
1580421254.35063,0.0305180437933359,10.5897611963073,-33.2341496910049
1580421254.35461,-0.152590218966907,10.4676890211338,-33.3562218661784
1580421254.35861,-1.73952849622333,10.1625085831997,-33.8445105668727
1580421254.36261,-4.24200808728165,9.67421988250544,-34.3938353551539
1580421254.36661,-6.74448767833974,8.94178683146401,-34.7600518806746
1580421254.37061,-8.14831769283592,8.39246204318306,-35.0652323186084
1580421254.37461,-8.20935378042259,7.7821011673152,-35.1262684061953
1580421254.37861,-7.11070420386045,7.29381246662092,-35.0652323186084
1580421254.3826,-5.88998245212474,6.74448767833974,-34.8821240558482
1580421254.3866,-5.58480201419093,6.19516289005878,-34.5769436179141
1580421254.3906,-5.52376592660403,5.76791027695117,-34.4548714427406
1580421254.3946,-5.58480201419093,5.21858548867021,-33.9665827420463
1580421254.3986,-4.24200808728165,5.03547722590974,-33.1120775158313
1580421254.4026,-2.10574502174404,4.8523689631495,-31.769283588922
1580421254.4066,0.335698481727377,5.03547722590974,-30.3044174868389
1580421254.4106,1.98367284657047,4.97444113832307,-29.2057679102768
1580421254.41459,2.16678110933094,4.48615243762879,-28.3512626840618
1580421254.41859,1.67849240863666,3.93682764934761,-27.6798657206073
1580421254.42259,2.34988937209118,3.50957503624022,-26.7643244068054
1580421254.42659,3.87579156176093,3.26543068589308,-25.9098191805904
1580421254.43059,5.88998245212474,3.44853894865332,-24.5670252536811
1580421254.4346,7.84313725490188,3.69268329900046,-22.7969787136644
1580421254.4386,9.06385900663759,3.87579156176093,-21.3321126115816
1580421254.4426,9.61318379491877,3.75371938658736,-19.8672465094987
1580421254.4466,11.1390859845883,3.93682764934761,-18.4634164950025
1580421254.45059,13.0922407873654,4.36408026245522,-17.1816586556802
1580421254.45459,15.1674677653161,4.66926070038903,-15.8999008163576
1580421254.45859,18.4023804074159,5.46272983901736,-14.8012512397954
1580421254.46259,22.3697261005568,6.43930724040592,-13.2753490501259
1580421254.46659,25.6656748302432,7.35484855420759,-11.6884107728695
1580421254.47059,27.4967574578468,8.33142595559616,-9.85732814526591
1580421254.47459,28.4122987716487,9.06385900663759,-8.14831769283592
1580421254.47859,29.0226596475165,10.1014724956131,-6.56137941557949
1580421254.48259,29.1447318226901,10.955977721828,-5.21858548867021
1580421254.48658,28.7785152971694,11.810482948043,-4.36408026245522
1580421254.49058,28.7174792095825,12.664988174258,-3.99786373693451
1580421254.49458,29.8771648737315,14.068818188754,-3.63164721141379
1580421254.49858,31.5861753261615,15.4116121156633,-3.08232242313261
1580421254.50258,34.1496910048065,17.1206225680933,-2.04470893415737
1580421254.50658,36.8352788586251,18.8906691081102,-0.640878919661191
1580421254.51058,38.6053253986418,20.1113908598459,0.946059357595232
1580421254.51456,39.0325780117494,20.5996795605402,1.98367284657047
1580421254.51855,37.1404592965589,19.8062104219118,2.7771419851988
1580421254.52255,34.3938353551537,18.646524757763,3.87579156176093
1580421254.52655,31.9523918516823,18.7075608453497,4.97444113832307
1580421254.53055,30.9147783627068,19.3789578088044,5.34065766384379
1580421254.53455,32.3796444647896,19.4399938963911,5.21858548867021
1580421254.53855,35.9807736324101,19.195849546044,4.91340505073617
1580421254.54255,38.5442893110551,18.4023804074159,4.48615243762879
1580421254.54655,38.1780727855344,17.1206225680933,3.99786373693451
1580421254.55054,35.7976653696496,15.8388647287709,3.44853894865332
1580421254.55454,32.5627527275501,15.0453955901426,3.02128633554594
1580421254.55854,30.0602731364918,14.4960708018616,2.65506981002522
1580421254.56254,28.8395513847561,13.8857099259938,2.41092545967808
1580421254.56654,28.5343709468223,13.6415655756466,2.34988937209118
1580421254.57054,28.1681544213016,12.9091325246052,2.34988937209118
1580421254.57454,27.3746852826732,12.4208438239109,1.98367284657047
1580421254.57854,25.6656748302432,11.7494468604561,1.43434805828952
1580421254.58254,24.0787365529868,10.955977721828,1.0070954451819
1580421254.58653,23.2242313267718,9.85732814526591,0.762951094834762
1580421254.59053,23.0411230640116,8.81971465629044,0.640878919661191
1580421254.59454,23.5904478522925,8.14831769283592,1.0070954451819
1580421254.59854,24.0177004654001,7.53795681696806,1.37331197070262
1580421254.60254,23.773556115053,6.86655985351331,1.37331197070262
1580421254.60654,22.9800869764247,5.82894636453807,1.25123979552905
1580421254.61054,22.0035095750361,4.73029678797593,1.12916762035547
1580421254.61454,21.4541847867551,3.57061112382689,1.19020370794237
1580421254.61854,21.210040436408,2.7771419851988,1.31227588311594
1580421254.62253,21.6983291371023,2.16678110933094,1.49538414587619
1580421254.62653,22.7359426260775,1.8616006713969,1.61745632104976
1580421254.63053,23.5294117647059,1.55642023346309,1.8616006713969
1580421254.63453,24.2618448157473,1.12916762035547,2.10574502174404
1580421254.63853,24.9332417792018,1.0070954451819,2.34988937209118
1580421254.64253,25.7877470054168,0.640878919661191,2.53299763485165
1580421254.64653,27.2526131074997,0.0305180437933359,2.83817807278547
1580421254.65053,28.4733348592354,-0.396734569314049,3.02128633554594
1580421254.65452,30.4264896620125,-0.946059357595232,3.38750286106665
1580421254.65852,32.0134279392689,-1.37331197070262,3.75371938658736
1580421254.66252,32.0744640268558,-1.73952849622333,3.87579156176093
1580421254.66652,31.8913557640954,-2.04470893415737,3.57061112382689
1580421254.67052,31.4030670634011,-2.34988937209118,2.83817807278547
1580421254.6745,31.4030670634011,-2.47196154726475,1.8616006713969
1580421254.6785,32.0134279392689,-2.53299763485165,1.0070954451819
1580421254.6825,30.9758144502937,-2.65506981002522,-0.0305180437933359
1580421254.68649,29.2057679102768,-2.96025024795904,-1.49538414587619
1580421254.69049,27.4967574578468,-3.32646677347975,-3.14335851071951
1580421254.69449,26.2760357061111,-3.93682764934761,-4.54718852521546
1580421254.69849,25.7267109178301,-4.05889982452118,-5.6458381017776
1580421254.70249,25.9098191805904,-3.93682764934761,-6.56137941557949
1580421254.70649,26.1539635309375,-3.44853894865332,-7.35484855420759
1580421254.71049,25.7267109178301,-3.08232242313261,-8.5755703059433
1580421254.71449,24.7501335164416,-2.96025024795904,-10.0404364080262
1580421254.71848,23.6514839398794,-3.87579156176093,-11.505302510109
1580421254.72248,22.2476539253832,-5.34065766384379,-13.1532768749523
1580421254.72648,20.050354772259,-6.80552376592664,-14.923323414969
1580421254.73048,17.6699473563745,-7.59899290455473,-16.9985503929197
1580421254.73448,16.1440451667047,-7.84313725490188,-18.9517051956968
1580421254.73848,14.8012512397954,-7.53795681696806,-21.0269321736475
1580421254.74248,14.0077821011673,-7.23277637903402,-22.8580148012511
1580421254.74648,13.7636377508202,-6.86655985351331,-24.322880903334
1580421254.75048,13.0922407873654,-6.86655985351331,-25.5436026550697
1580421254.75449,12.359807736324,-6.98863202868688,-26.8253604943923
1580421254.75848,12.0546272983902,-7.72106507972831,-28.2291905088882
1580421254.76248,11.9935912108033,-8.51453421835663,-29.5719844357975
1580421254.76648,12.5429159990845,-9.18593118181116,-30.3044174868389
1580421254.77048,14.1298542763409,-9.24696726939806,-30.5485618371861
1580421254.77448,16.7544060425726,-8.81971465629044,-30.4875257495994
1580421254.77848,19.1348134584573,-8.81971465629044,-30.3044174868389
1580421254.78248,21.3321126115816,-9.12489509422448,-30.4264896620125
1580421254.78648,23.773556115053,-9.55214770733187,-30.7316700999465
1580421254.79047,26.0318913557639,-10.4066529335469,-30.7316700999465
1580421254.79447,27.7409018081939,-11.0780498970016,-30.5485618371861
1580421254.79847,27.9240100709544,-11.8715190356297,-31.1589227130539
1580421254.80247,26.7643244068054,-13.3363851377126,-32.2575722896163
1580421254.80647,25.4215304798961,-15.4116121156633,-33.2951857785918
1580421254.81047,23.8956282902266,-17.0595864805066,-34.5769436179141
1580421254.81447,21.1490043488211,-17.9140917067216,-36.2249179827575
1580421254.81847,17.9751277943083,-18.1582360570687,-38.056000610361
1580421254.82246,14.6181429770352,-17.7309834439611,-40.2532997634853
1580421254.82646,10.2845807583733,-17.1206225680933,-42.5726710917831
1580421254.83046,6.86655985351331,-16.8764782177461,-44.7699702449074
1580421254.83444,4.30304417486832,-16.632333867399,-46.5400167849241
1580421254.83844,2.04470893415737,-16.5102616922254,-48.2490272373541
1580421254.84244,0.885023270008332,-16.1440451667047,-49.7138933394369
1580421254.84644,-0.0305180437933359,-15.4726482032502,-50.873579003586
1580421254.85044,-0.640878919661191,-15.0453955901426,-51.728084229801
1580421254.85444,-1.0681315327688,-14.6181429770352,-52.4605172808424
1580421254.85843,-1.49538414587619,-14.5571068894483,-53.2539864194705
1580421254.86243,-2.10574502174404,-14.6791790646218,-54.1084916456855
1580421254.86643,-2.96025024795904,-14.923323414969,-55.146105134661
1580421254.87043,-3.50957503624022,-14.923323414969,-56.2447547112231
1580421254.87443,-3.81475547417404,-14.7402151522087,-57.2213321126117
1580421254.87843,-4.54718852521546,-14.9843595025559,-58.2589456015869
1580421254.88243,-5.03547722590974,-15.228503852903,-59.0524147402152
1580421254.88643,-5.46272983901736,-15.5336842908368,-59.7848477912567
1580421254.89042,-5.40169375143046,-15.8999008163576,-60.2731364919509
1580421254.89442,-5.21858548867021,-16.2050812542916,-60.5172808422981
1580421254.89842,-4.7913328755626,-16.4492256046387,-60.7614251926452
1580421254.90242,-3.69268329900046,-16.5712977798123,-61.0055695429924
1580421254.90642,-2.53299763485165,-16.7544060425726,-61.3107499809262
1580421254.91042,-1.43434805828952,-17.1816586556802,-61.3717860685131
1580421254.91443,-0.457770656900948,-17.6699473563745,-61.921110856794
1580421254.91843,0.335698481727377,-18.4023804074159,-62.775616083009
1580421254.92243,1.19020370794237,-19.0127412832837,-63.6911573968109
1580421254.92642,2.41092545967808,-19.4399938963911,-64.9118791485466
1580421254.93042,3.14335851071951,-19.7451743343252,-65.9494926375219
1580421254.93442,2.22781719691761,-20.2944991226061,-66.9871061264973
1580421254.93842,1.67849240863666,-20.8438239108873,-67.902647440299
1580421254.94242,0.51880674448762,-21.0269321736475,-68.8792248416876
1580421254.94642,-1.0070954451819,-21.2710765239947,-70.1609826810102
1580421254.95042,-2.22781719691761,-21.3321126115816,-71.8699931334402
1580421254.95442,-2.16678110933094,-21.210040436408,-73.4569314106966
1580421254.95842,-1.73952849622333,-20.5996795605402,-75.043869687953
1580421254.96241,-1.12916762035547,-19.9893186846723,-76.2035553521018
1580421254.96641,0.335698481727377,-18.646524757763,-76.8139162279697
1580421254.97041,0.946059357595232,-17.1816586556802,-77.1190966659037
1580421254.97441,0.762951094834762,-16.2050812542916,-77.9125658045318
1580421254.97841,0.823987182421661,-15.7167925535973,-79.0722514686809
1580421254.98241,0.946059357595232,-15.1674677653161,-80.5371175707637
1580421254.98641,1.61745632104976,-14.373998626688,-81.7578393224994
1580421254.9904,3.14335851071951,-13.0312046997788,-83.1616693369954
1580421254.99438,5.82894636453807,-11.5663385976959,-84.443427176318
1580421254.99838,8.51453421835663,-10.0404364080262,-85.7251850156404
1580421255.00238,10.7118333714809,-8.81971465629044,-87.0679789425496
1580421255.00638,12.4208438239109,-8.02624551766235,-88.2276646066987
1580421255.01038,13.0922407873654,-7.11070420386045,-89.1432059205003
1580421255.01438,12.5429159990845,-5.82894636453807,-89.6925307087815
1580421255.01838,11.7494468604561,-3.75371938658736,-90.4859998474096
1580421255.02238,11.9935912108033,-1.9226367589838,-92.0119020370794
1580421255.02637,13.8246738384069,-1.12916762035547,-94.3312733653775
1580421255.03037,16.1440451667047,-1.12916762035547,-97.1389333943696
1580421255.03437,19.1348134584573,-1.61745632104976,-99.3362325474939
1580421255.03837,22.064545662623,-1.31227588311594,-100.617990386816
1580421255.04237,24.2008087281604,0.396734569314049,-100.92317082475
1580421255.04637,26.1539635309375,2.7771419851988,-100.984206912337
1580421255.05037,27.8019378957808,5.03547722590974,-101.106279087511
1580421255.05437,29.3278400854504,6.80552376592664,-101.411459525445
1580421255.05836,31.6472114137482,8.5755703059433,-101.411459525445
1580421255.06236,32.8068970778972,10.4066529335469,-100.92317082475
1580421255.06636,31.5251392385746,12.0546272983902,-99.8245212481881
1580421255.07036,31.8303196765087,13.7026016632333,-98.0544747081713
1580421255.07437,33.7834744792858,16.4492256046387,-96.0402838178074
1580421255.07837,34.8210879682611,18.2803082322423,-94.9416342412453
1580421255.08237,34.2107270923932,19.0127412832837,-94.5754177157246
1580421255.08637,33.9665827420461,19.0127412832837,-94.2702372777906
1580421255.09037,37.0794232089722,19.2568856336309,-93.2936598764018
1580421255.09436,42.7557793545432,19.9282825970854,-91.8898298619058
1580421255.09836,47.6997024490729,19.9893186846723,-90.3639276722361
1580421255.10236,50.5073624780648,19.501029983978,-88.8990615701532
1580421255.10636,52.7656977187762,19.0737773708704,-87.3731593804837
1580421255.11036,55.0240329594872,19.195849546044,-86.3355458915082
1580421255.11436,56.8551155870905,19.0737773708704,-85.7862211032273
1580421255.11836,58.3199816891733,18.8906691081102,-85.7862211032273
1580421255.12236,59.6017395284962,18.0361638818952,-85.9082932784008
1580421255.12635,61.9211108567938,16.2050812542916,-85.7862211032273
1580421255.13035,64.7898069733733,14.0077821011673,-85.0537880521858
1580421255.13435,67.5974670023652,11.5663385976959,-84.0161745632104
1580421255.13835,70.2220187685971,9.61318379491877,-82.6123445487144
1580421255.14235,72.7244983596552,8.45349813076973,-81.3305867093918
1580421255.14635,74.555580987259,7.53795681696806,-80.6591897459373
1580421255.15035,75.6542305638209,6.56137941557949,-80.3540093080032
1580421255.15433,75.7763027389947,5.40169375143046,-80.4150453955901
1580421255.15833,74.7997253376061,4.48615243762879,-80.4760814831768
1580421255.16232,73.0907148851761,3.69268329900046,-80.4150453955901
1580421255.16632,70.2220187685971,2.83817807278547,-80.3540093080032
1580421255.17032,66.4377813382166,1.73952849622333,-80.3540093080032
1580421255.17432,61.9821469443805,0.640878919661191,-80.1098649576561
1580421255.17832,56.9771877622643,-0.213626306553806,-79.865720607309
1580421255.18232,51.7280842298005,-0.823987182421661,-79.7436484321354
1580421255.18632,46.1127641718165,-1.25123979552905,-79.5605401693751
1580421255.19032,40.4364080262453,-1.98367284657047,-79.4995040817882
1580421255.19431,34.882124055848,-3.20439459830618,-79.7436484321354
1580421255.19831,28.9616235599296,-4.7913328755626,-80.5981536583504
1580421255.20231,21.0879682612344,-7.11070420386045,-82.1850919356068
1580421255.20631,8.5755703059433,-9.4911116197452,-84.0772106507973
1580421255.21031,-4.73029678797593,-9.91836423285258,-86.9459067673761
1580421255.21431,-15.3505760280766,-9.4300755321583,-89.6314946211946
1580421255.21831,-18.646524757763,-9.4911116197452,-91.3405050736246
1580421255.22231,-10.650797283894,-10.0404364080262,-90.5470359349965
1580421255.22631,5.6458381017776,-10.8339055466545,-84.7486076142518
1580421255.2303,25.1163500419623,-11.6273746852826,-73.5790035858702
1580421255.23431,45.1972228580146,-11.6273746852826,-57.2823682001983
1580421255.23831,63.6911573968109,-12.4208438239109,-37.8728923476006
1580421255.24231,74.6776531624323,-14.4350347142747,-18.341344319829
1580421255.24631,72.9076066224156,-13.7026016632333,-2.47196154726475
1580421255.25031,58.1368734264133,-8.6366063935302,7.90417334248878
1580421255.25431,38.3611810482946,-2.47196154726475,14.4350347142747
1580421255.25831,21.210040436408,-0.0305180437933359,18.0971999694818
1580421255.26231,6.37827115281902,-0.335698481727377,19.4399938963911
1580421255.2663,-8.75867856870377,-2.65506981002522,19.7451743343252
1580421255.2703,-24.7501335164416,-6.98863202868688,20.5386434729533
1580421255.2743,-41.168841077287,-10.1014724956131,22.3086900129701
1580421255.2783,-56.9161516746776,-10.955977721828,24.2008087281604
1580421255.2823,-71.5648126955061,-10.3456168459602,25.6046387426566
1580421255.2863,-84.3823910887311,-9.24696726939806,26.8863965819789
1580421255.2903,-94.5143816281377,-8.5755703059433,28.9616235599296
1580421255.29429,-100.862134737163,-8.5755703059433,32.7458609903103
1580421255.29829,-102.021820401312,-8.75867856870377,38.4222171358815
1580421255.30229,-97.566186007477,-8.75867856870377,46.2348363469901
1580421255.30629,-88.4107728694589,-8.39246204318306,55.7564660105286
1580421255.31029,-75.593194476234,-7.53795681696806,66.6208896009766
1580421255.31427,-61.8600747692074,-6.31723506523235,78.0346379797056
1580421255.31827,-49.164568551156,-4.97444113832307,89.2042420080875
1580421255.32227,-38.3611810482948,-3.44853894865332,99.8245212481879
1580421255.32627,-29.9382009613182,-2.59403372243833,109.773403524834
1580421255.33027,-24.322880903334,-2.28885328450451,118.745708400092
1580421255.33426,-21.3321126115816,-2.96025024795904,127.718013275349
1580421255.33826,-21.4541847867551,-4.05889982452118,135.835812924392
1580421255.34226,-23.4073395895323,-5.52376592660403,143.831540398261
1580421255.34626,-26.6422522316318,-7.41588464179449,151.216906996262
1580421255.35026,-29.9382009613182,-8.6366063935302,158.358129243915
1580421255.35426,-32.074464026856,-9.91836423285258,165.011062790875
1580421255.35826,-32.7458609903106,-10.7728694590676,171.236743724727
1580421255.36225,-30.6706340123596,-11.0170138094147,176.974135957885
1580421255.36625,-26.6422522316318,-10.7118333714809,182.284275577935
1580421255.37025,-20.7827878233004,-10.4066529335469,187.655451285573
1580421255.37425,-13.3363851377126,-9.79629205767901,193.02662699321
1580421255.37825,-4.7913328755626,-9.06385900663759,198.1536583505
1580421255.38225,4.18097199969475,-8.02624551766235,203.158617532617
1580421255.38625,12.1766994735638,-7.11070420386045,208.041504539559
1580421255.39025,18.7075608453497,-6.07309071488521,212.558175020981
1580421255.39426,23.468375677119,-5.34065766384379,217.013809414816
1580421255.39825,26.5201800564582,-4.60822461280236,220.981155107958
1580421255.40225,28.8395513847561,-3.87579156176093,224.704356450752
1580421255.40625,30.3044174868389,-3.02128633554594,228.366521705959
1580421255.41025,31.3420309758144,-1.73952849622333,231.601434348058
1580421255.41425,31.6472114137482,-0.579842832074519,234.653238727398
1580421255.41825,32.0134279392689,0.946059357595232,237.521934843976
1580421255.42225,32.6848249027237,2.7771419851988,240.329594872969
1580421255.42625,33.2951857785915,4.30304417486832,242.893110551614
1580421255.43024,33.6614023041122,5.40169375143046,244.968337529564
1580421255.43424,34.2717631799801,6.68345159075307,246.738384069581
1580421255.43824,34.3938353551537,8.51453421835663,247.837033646143
1580421255.44224,33.2341496910046,10.5287251087204,248.203250171664
1580421255.44624,29.9992370489051,12.2987716487373,247.959105821317
1580421255.45024,24.0177004654001,13.8857099259938,247.165636682689
1580421255.45424,15.3505760280766,15.0453955901426,245.456626230259
1580421255.45824,4.8523689631495,15.8388647287709,243.137254901961
1580421255.46223,-6.80552376592664,16.083009079118,240.329594872969
1580421255.46623,-19.6231021591516,15.9609369039445,237.094682230869
1580421255.47023,-33.4172579537653,15.5336842908368,233.554589150835
1580421255.47421,-46.8451972228581,14.923323414969,229.709315632868
1580421255.47821,-58.6251621271076,14.373998626688,225.986114290074
1580421255.48221,-69.062333104448,13.6415655756466,222.26291294728
1580421255.48621,-78.5839627679866,12.664988174258,218.600747692073
1580421255.49021,-87.9224841687646,11.6273746852826,214.755474174106
1580421255.49421,-97.566186007477,10.5897611963073,210.788128480965
1580421255.4982,-106.843671320668,9.4300755321583,206.637674525063
1580421255.5022,-115.449759670405,8.02624551766235,202.670328831922
1580421255.5062,-123.262378881514,6.31723506523235,198.580910963607
1580421255.5102,-130.708781567102,4.18097199969475,194.674601358053
1580421255.5142,-138.216220340276,1.9226367589838,190.829327840086
1580421255.5182,-145.113298237583,-0.396734569314049,186.800946059358
1580421255.5222,-150.48447394522,-3.26543068589308,182.467383840696
1580421255.5262,-153.109025711452,-6.19516289005878,178.377965972381
1580421255.53019,-152.37659266041,-9.06385900663759,174.166475928893
1580421255.53419,-148.226138704509,-11.8715190356297,170.199130235752
1580421255.53819,-142.000457770657,-13.8857099259938,166.536964980545
1580421255.54219,-134.676127260243,-15.7167925535973,162.813763637751
1580421255.54619,-126.863508049134,-16.9985503929197,159.090562294957
1580421255.55019,-119.356069275959,-17.9140917067216,155.550469214923
1580421255.5542,-112.336919203479,-18.2803082322423,152.01037613489
1580421255.5582,-106.416418707561,-17.792019531548,148.836499580377
1580421255.5622,-101.411459525445,-17.1206225680933,145.35744258793
1580421255.5662,-96.9558251316091,-16.1440451667047,141.634241245136
1580421255.57019,-92.8664072632944,-15.228503852903,137.605859464408
1580421255.57419,-89.1432059205003,-14.5571068894483,132.845044632639
1580421255.57819,-85.6031128404668,-14.068818188754,127.901121538109
1580421255.58219,-81.8188754100861,-14.0077821011673,122.774090180819
1580421255.58619,-77.302204928664,-13.8246738384069,117.769130998703
1580421255.59019,-71.3817044327459,-13.8857099259938,113.130388342107
1580421255.59419,-64.2404821850919,-14.068818188754,108.674753948272
1580421255.59818,-57.3434042877852,-14.8622873273823,104.280155642024
1580421255.60218,-52.0943007553217,-15.4116121156633,99.4583047226674
1580421255.60618,-49.4087129015031,-15.4116121156633,94.0871290150303
1580421255.61018,-48.7373159380484,-15.1674677653161,88.5328450446327
1580421255.61418,-50.0801098649576,-15.3505760280766,82.8564888990618
1580421255.61818,-53.8033112077517,-15.7167925535973,77.1801327534909
1580421255.62218,-59.1744869153888,-15.5947203784237,71.5037766079195
1580421255.62618,-64.5456626230259,-14.9843595025559,65.6443121995881
1580421255.63017,-67.7195391775388,-13.7026016632333,59.9679560540167
1580421255.63416,-68.8181887541009,-12.0546272983902,54.77988860914
1580421255.63815,-67.9636835278859,-10.0404364080262,50.0190737773705
1580421255.64215,-65.7663843747616,-7.59899290455473,45.6855115587089
1580421255.64615,-61.921110856794,-4.91340505073617,41.7792019531546
1580421255.65015,-56.4888990615702,-2.34988937209118,38.0560006103608
1580421255.65415,-49.2866407263296,-0.213626306553806,34.6990157930875
1580421255.65815,-39.8260471503777,1.55642023346309,31.5251392385746
1580421255.66215,-28.5343709468223,3.02128633554594,28.7174792095825
1580421255.66614,-16.1440451667047,4.54718852521546,26.0929274433508
1580421255.67014,-3.14335851071951,5.58480201419093,23.5904478522925
1580421255.67414,8.94178683146401,6.80552376592664,21.5152208743418
1580421255.67814,19.9282825970854,7.72106507972831,19.6841382467383
1580421255.68214,28.7174792095825,8.33142595559616,18.1582360570687
1580421255.68614,35.6145571068894,8.94178683146401,16.3271534294652
1580421255.69014,41.7792019531546,8.88075074387734,14.2519264515145
1580421255.69414,46.6010528725108,8.51453421835663,12.0546272983902
1580421255.69813,49.65285725185,9.18593118181116,9.06385900663759
1580421255.70213,53.3150225070572,10.1625085831997,5.34065766384379
1580421255.70613,58.2589456015867,10.8949416342411,1.12916762035547
1580421255.71013,63.9353017471581,11.6273746852826,-2.96025024795904
1580421255.71414,69.1233691920352,12.2377355611504,-6.98863202868688
1580421255.71814,71.7479209582666,12.8480964370183,-11.0780498970016
1580421255.72214,71.6868848706799,13.519493400473,-15.228503852903
1580421255.72614,68.6961165789276,14.2519264515145,-19.6231021591516
1580421255.73014,63.14183260853,14.5571068894483,-24.1397726405737
1580421255.73413,55.1461051346605,14.1908903639276,-29.1447318226901
1580421255.73813,45.3803311207751,12.9701686121919,-34.2717631799803
1580421255.74213,35.0652323186082,11.5663385976959,-39.5819028000305
1580421255.74613,25.2994583047225,10.8949416342411,-45.1972228580148
1580421255.75013,20.7827878233004,16.5712977798123,-50.2021820401312
1580421255.75413,21.1490043488211,23.5294117647059,-52.7656977187762
1580421255.75813,12.2377355611504,20.7217517357137,-54.4747081712062
1580421255.76213,-6.43930724040592,18.5854886701761,-57.7096208133059
1580421255.76612,-15.3505760280766,17.0595864805066,-61.2497138933395
1580421255.77012,3.57061112382689,8.69764248111687,-61.4328221560997
1580421255.77412,39.5819028000303,-6.62241550316617,-55.0850690470741
1580421255.77812,63.6911573968109,-16.5712977798123,-44.8310063324941
1580421255.78212,55.0240329594872,-15.3505760280766,-36.8352788586253
1580421255.78612,22.3697261005568,-7.29381246662092,-35.6145571068896
1580421255.79012,-12.4818799114976,3.63164721141379,-40.4974441138324
1580421255.7941,-37.2625314717327,14.1298542763409,-48.2490272373541
1580421255.7981,-49.1035324635691,18.7685969329366,-55.3292133974212
1580421255.80209,-50.019073777371,15.3505760280766,-58.8082703898681
1580421255.80609,-45.1361867704281,8.08728160524902,-57.2213321126117
1580421255.81009,-39.1546501869232,1.98367284657047,-53.1319142442969
1580421255.81409,-35.3093766689556,0.335698481727377,-50.2021820401312
1580421255.81809,-34.0276188296332,3.69268329900046,-50.5073624780653
1580421255.82209,-34.6990157930877,11.0780498970016,-53.6202029449912
1580421255.82609,-36.4080262455177,19.501029983978,-57.1602960250248
1580421255.83009,-36.5911345082782,24.2618448157473,-59.4796673533226
1580421255.83408,-31.4030670634013,20.2334630350194,-58.9303425650417
1580421255.83808,-24.5670252536811,11.4442664225223,-55.9395742732891
1580421255.84208,-23.0411230640116,6.80552376592664,-53.9864194705119
1580421255.84608,-25.6046387426566,7.11070420386045,-54.9629968719005
1580421255.85008,-27.8629739833675,10.1625085831997,-58.3199816891738
1580421255.85408,-28.1071183337147,14.9843595025559,-61.3107499809262
1580421255.85808,-27.6188296330204,18.1582360570687,-62.8366521705959
1580421255.86208,-26.6422522316318,17.1206225680933,-62.5925078202488
1580421255.86608,-25.2384222171358,14.2519264515145,-61.5548943312733
1580421255.87007,-21.759365224689,12.1156633859769,-61.4328221560997
1580421255.87408,-15.4116121156633,10.7728694590676,-62.2262912947281
1580421255.87808,-9.30800335698473,9.18593118181116,-63.9353017471581
1580421255.88208,-4.7913328755626,8.20935378042259,-66.193636987869
1580421255.88608,-2.89921416037237,8.14831769283592,-67.7195391775388
1580421255.89008,-3.08232242313261,9.4300755321583,-68.4519722285802
1580421255.89408,-3.69268329900046,11.7494468604561,-68.2688639658197
1580421255.89808,-4.73029678797593,15.2895399404897,-67.5364309147783
1580421255.90207,-4.11993591210808,18.4023804074159,-66.5598535133897
1580421255.90607,-0.51880674448762,19.0737773708704,-65.1560234988938
1580421255.91007,5.7068741893645,17.9751277943083,-62.4093995574883
1580421255.91407,12.7260242618447,16.7544060425726,-58.6251621271076
1580421255.91807,18.7685969329366,15.7167925535973,-54.291599908446
1580421255.92207,22.3697261005568,15.5336842908368,-50.2021820401312
1580421255.92607,23.2852674143587,16.0219729915311,-46.9672693980317
1580421255.93007,21.759365224689,16.8154421301595,-44.4647898069734
1580421255.93406,19.0127412832837,17.2426947432668,-42.3895628290227
1580421255.93806,16.2661173418783,17.3647669184404,-40.6805523765927
1580421255.94206,14.373998626688,17.5478751812009,-39.2156862745098
1580421255.94606,13.0312046997788,18.1582360570687,-37.9949645227741
1580421255.95006,11.9935912108033,18.8296330205233,-36.8352788586253
1580421255.95404,11.9935912108033,20.2334630350194,-35.7366292820632
1580421255.95804,11.8715190356297,21.759365224689,-34.8210879682613
1580421255.96204,10.7118333714809,23.2852674143587,-34.0886549172199
1580421255.96604,8.02624551766235,24.5059891660944,-33.2951857785918
1580421255.97003,4.91340505073617,25.7877470054168,-32.4406805523768
1580421255.97403,2.34988937209118,26.6422522316318,-31.4030670634013
1580421255.97803,0.51880674448762,27.0695048447394,-30.1823453116654
1580421255.98203,-0.457770656900948,27.191577019913,-28.7174792095825
1580421255.98603,-1.12916762035547,26.8863965819789,-27.2526131074997
1580421255.99003,-0.70191500724809,26.0929274433508,-26.2149996185244
1580421255.99403,1.25123979552905,25.2384222171358,-25.4215304798961
1580421255.99803,3.93682764934761,24.3839169909209,-24.6890974288547
1580421256.00202,7.29381246662092,22.0035095750361,-24.2008087281604
1580421256.00602,11.2001220721752,19.6231021591516,-23.773556115053
1580421256.01002,15.228503852903,17.8530556191347,-23.2242313267718
1580421256.01402,18.5854886701761,16.7544060425726,-22.6749065384909
1580421256.01802,21.8204013122759,15.0453955901426,-22.1866178377966
1580421256.02202,25.482566567483,12.5429159990845,-21.5762569619287
1580421256.02602,27.1305409323261,10.0404364080262,-21.1490043488211
1580421256.03002,25.0553139543754,10.650797283894,-21.1490043488211
1580421256.03403,24.0177004654001,10.8949416342411,-21.9424734874494
1580421256.03802,23.773556115053,9.55214770733187,-22.7969787136644
1580421256.04202,23.0411230640116,9.91836423285258,-23.4073395895323
1580421256.04602,21.1490043488211,9.61318379491877,-23.8956282902266
1580421256.05002,18.2803082322423,8.14831769283592,-24.2618448157473
1580421256.05402,15.5947203784237,6.74448767833974,-24.628061341268
1580421256.05802,14.7402151522087,5.34065766384379,-25.1773861295489
1580421256.06202,13.7026016632333,4.42511635004189,-26.1539635309375
1580421256.06602,10.4676890211338,3.08232242313261,-27.9850461585411
1580421256.07002,7.59899290455473,1.0681315327688,-29.9382009613182
1580421256.07401,4.11993591210808,-0.274662394140478,-31.8303196765089
1580421256.07801,-1.55642023346309,-0.335698481727377,-33.6003662165256
1580421256.08201,-6.98863202868688,-0.823987182421661,-35.3093766689556
1580421256.08601,-11.7494468604561,-1.37331197070262,-36.896314946212
1580421256.09001,-16.083009079118,-2.22781719691761,-37.8118562600139
1580421256.09401,-18.4023804074159,-2.65506981002522,-37.9339284351875
1580421256.09801,-19.8672465094987,-1.9226367589838,-37.9949645227741
1580421256.10201,-21.210040436408,-1.37331197070262,-38.3001449607082
1580421256.106,-21.2710765239947,-1.67849240863666,-38.4222171358817
1580421256.11,-20.2334630350194,-2.16678110933094,-38.2391088731213
1580421256.11398,-18.4023804074159,-2.89921416037237,-37.5066758220798
1580421256.11798,-17.1816586556802,-3.20439459830618,-36.4080262455177
1580421256.12198,-15.777828641184,-3.02128633554594,-34.9431601434349
1580421256.12598,-12.4208438239109,-2.34988937209118,-33.6614023041125
1580421256.12998,-8.69764248111687,-1.61745632104976,-32.2575722896163
1580421256.13398,-4.7913328755626,-1.25123979552905,-30.8537422751201
1580421256.13797,-0.335698481727377,-1.0681315327688,-29.2057679102768
1580421256.14197,3.81475547417404,-0.640878919661191,-27.3136491950866
1580421256.14597,8.69764248111687,0.213626306553806,-24.9332417792018
1580421256.14997,13.519493400473,1.37331197070262,-23.2242313267718
1580421256.15397,14.5571068894483,2.04470893415737,-22.613870450904
1580421256.15797,13.1532768749523,1.80056458381023,-22.8580148012511
1580421256.16197,11.6884107728695,1.80056458381023,-23.1021591515982
1580421256.16597,10.7118333714809,2.22781719691761,-23.2242313267718
1580421256.16997,10.5897611963073,2.59403372243833,-23.3463035019454
1580421256.17396,11.0170138094147,2.53299763485165,-23.3463035019454
1580421256.17796,10.650797283894,2.65506981002522,-23.2852674143587
1580421256.18196,9.30800335698473,2.96025024795904,-23.2242313267718
1580421256.18596,7.47692072938116,3.26543068589308,-23.6514839398794
1580421256.18996,5.76791027695117,3.20439459830618,-24.1397726405737
1580421256.19397,4.7913328755626,2.96025024795904,-24.628061341268
1580421256.19797,5.03547722590974,2.47196154726475,-24.5670252536811
1580421256.20197,6.98863202868688,2.89921416037237,-24.0177004654001
1580421256.20597,9.4300755321583,3.32646677347975,-23.1631952391851
1580421256.20996,11.2001220721752,3.44853894865332,-22.3086900129701
1580421256.21396,12.4208438239109,3.38750286106665,-21.6372930495154
1580421256.21796,13.214312962539,3.63164721141379,-20.6607156481268
1580421256.22196,13.7636377508202,3.87579156176093,-19.9893186846723
1580421256.22596,14.373998626688,4.11993591210808,-19.2568856336309
1580421256.22996,15.8999008163576,4.42511635004189,-18.5244525825894
1580421256.23396,17.9751277943083,4.66926070038903,-17.792019531548
1580421256.23796,19.6231021591516,4.97444113832307,-17.1816586556802
1580421256.24195,20.1724269474325,5.40169375143046,-17.1816586556802
1580421256.24595,20.6607156481268,5.6458381017776,-17.4258030060273
1580421256.24995,21.5762569619287,5.6458381017776,-17.8530556191347
1580421256.25395,22.1866178377966,5.40169375143046,-18.2803082322423
1580421256.25795,21.1490043488211,5.21858548867021,-18.7685969329366
1580421256.26195,19.1348134584573,5.09651331349664,-19.501029983978
1580421256.26595,16.0219729915311,5.03547722590974,-20.355535210193
1580421256.26995,12.7260242618447,4.7913328755626,-21.1490043488211
1580421256.27392,10.5897611963073,4.7913328755626,-21.5762569619287
1580421256.27792,9.79629205767901,5.03547722590974,-21.6372930495154
1580421256.28192,9.30800335698473,5.21858548867021,-21.6372930495154
1580421256.28592,9.36903944457163,5.34065766384379,-21.6983291371023
1580421256.28992,10.8339055466545,5.52376592660403,-21.8204013122759
1580421256.29392,12.4818799114976,5.6458381017776,-22.064545662623
1580421256.29792,13.4584573128861,6.01205462729831,-22.1866178377966
1580421256.30192,13.8246738384069,6.43930724040592,-22.3086900129701
1580421256.30591,13.3363851377126,6.98863202868688,-22.5528343633173
1580421256.30991,12.7870603494316,7.59899290455473,-22.613870450904
1580421256.31391,12.1156633859769,7.90417334248878,-22.6749065384909
1580421256.31791,11.3832303349354,8.5755703059433,-22.613870450904
1580421256.32191,10.4066529335469,8.5755703059433,-22.3697261005568
1580421256.32591,10.3456168459602,8.33142595559616,-21.5762569619287
1580421256.32991,11.9325551232166,7.96520943007545,-20.6607156481268
1580421256.33391,15.2895399404897,7.96520943007545,-19.8672465094987
1580421256.33791,19.0737773708704,8.27038986800949,-19.3179217212175
1580421256.3419,22.2476539253832,8.5755703059433,-19.0737773708704
1580421256.3459,23.6514839398794,8.69764248111687,-19.0127412832837
1580421256.3499,24.0787365529868,8.6366063935302,-19.1348134584573
1580421256.35391,23.3463035019454,8.51453421835663,-19.4399938963911
1580421256.35791,21.8204013122759,8.45349813076973,-19.6841382467383
1580421256.36191,20.7827878233004,8.5755703059433,-19.9282825970854
1580421256.36591,19.6231021591516,8.69764248111687,-20.1724269474325
1580421256.36991,19.2568856336309,8.81971465629044,-20.4776073853666
1580421256.37391,19.3179217212175,9.4300755321583,-20.355535210193
1580421256.3779,18.8906691081102,9.97940032043948,-20.5386434729533
1580421256.3819,18.7685969329366,10.5897611963073,-20.8438239108873
1580421256.3859,20.050354772259,11.0780498970016,-21.210040436408
1580421256.3899,22.4307621881437,11.505302510109,-21.3321126115816
1580421256.3939,25.1163500419623,12.1766994735638,-21.0269321736475
1580421256.3979,27.4357213702601,13.0312046997788,-20.355535210193
1580421256.4019,29.3278400854504,13.5805294880597,-19.7451743343252
1580421256.4059,30.4875257495994,13.9467460135804,-19.3179217212175
1580421256.40989,30.8537422751201,14.1298542763409,-19.2568856336309
1580421256.41389,31.0978866254673,14.1298542763409,-19.195849546044
1580421256.41789,31.1589227130539,14.0077821011673,-19.0127412832837
1580421256.42189,31.0368505378804,13.8857099259938,-19.0737773708704
1580421256.42589,31.4030670634011,13.7026016632333,-19.3179217212175
1580421256.42989,31.8913557640954,13.4584573128861,-19.5620660715647
1580421256.43387,32.0744640268558,12.664988174258,-19.9282825970854
1580421256.43787,32.2575722896161,12.2377355611504,-20.4776073853666
1580421256.44187,32.1965362020294,11.505302510109,-20.9658960860609
1580421256.44586,31.7692835889218,10.2235446707866,-21.3931486991683
1580421256.44986,30.9147783627068,8.69764248111687,-21.6983291371023
1580421256.45386,29.4499122606239,6.92759594110021,-22.0035095750361
1580421256.45786,27.5577935454337,5.03547722590974,-22.6749065384909
1580421256.46186,26.4591439688716,3.38750286106665,-23.8345922026397
1580421256.46586,24.322880903334,2.28885328450451,-25.0553139543754
1580421256.46986,21.9424734874494,2.10574502174404,-26.2149996185244
1580421256.47386,20.7827878233004,2.28885328450451,-27.191577019913
1580421256.47785,20.904859998474,2.16678110933094,-27.8019378957808
1580421256.48185,21.210040436408,1.55642023346309,-27.9850461585411
1580421256.48585,21.2710765239947,1.12916762035547,-28.2291905088882
1580421256.48985,20.6607156481268,0.457770656900948,-28.5343709468223
1580421256.49385,19.8062104219118,0.091554131380235,-29.2668039978637
1580421256.49785,19.8062104219118,-0.335698481727377,-29.9382009613182
1580421256.50185,21.4541847867551,-0.762951094834762,-30.0602731364918
1580421256.50585,22.9800869764247,-1.0681315327688,-30.3044174868389
1580421256.50984,24.0177004654001,-1.31227588311594,-30.4264896620125
1580421256.51385,24.628061341268,-1.61745632104976,-30.6706340123596
1580421256.51785,24.8111696040282,-1.98367284657047,-30.9147783627068
1580421256.52185,24.9942778667887,-2.41092545967808,-31.1589227130539
1580421256.52585,26.2760357061111,-3.02128633554594,-31.2809948882277
1580421256.52985,27.191577019913,-3.32646677347975,-31.2809948882277
1580421256.53385,27.5577935454337,-4.05889982452118,-31.5861753261618
1580421256.53785,28.2291905088882,-4.7913328755626,-32.3186083772032
1580421256.54185,28.1681544213016,-5.40169375143046,-33.2951857785918
1580421256.54585,27.6798657206073,-5.95101853971164,-34.4548714427406
1580421256.54984,26.2149996185244,-6.74448767833974,-35.6145571068896
1580421256.55384,24.1397726405737,-7.84313725490188,-36.8352788586253
1580421256.55784,22.2476539253832,-9.24696726939806,-37.6287479972534
1580421256.56184,20.8438239108873,-10.5897611963073,-38.7273975738156
1580421256.56584,19.4399938963911,-11.505302510109,-39.9481193255513
1580421256.56984,17.9140917067216,-11.8715190356297,-41.1078049897003
1580421256.57384,16.9985503929197,-11.7494468604561,-42.4505989166096
1580421256.57783,16.2050812542916,-11.7494468604561,-43.6713206683453
1580421256.58183,16.083009079118,-11.7494468604561,-44.892042420081
1580421256.58583,15.8999008163576,-12.0546272983902,-45.9906919966431
1580421256.58983,15.9609369039445,-12.2987716487373,-47.1503776607919
1580421256.59381,15.8388647287709,-12.4818799114976,-48.0659189745938
1580421256.59781,15.777828641184,-12.9091325246052,-49.1035324635691
1580421256.60181,15.7167925535973,-12.8480964370183,-50.2021820401312
1580421256.60581,15.0453955901426,-13.0312046997788,-51.2397955291067
1580421256.60981,14.5571068894483,-13.3974212252995,-52.3384451056688
1580421256.6138,14.068818188754,-13.8246738384069,-53.5591668574045
1580421256.6178,13.2753490501259,-14.5571068894483,-54.6578164339667
1580421256.6218,12.4208438239109,-14.8622873273823,-55.7564660105288
1580421256.6258,12.0546272983902,-15.0453955901426,-56.6109712367438
1580421256.6298,11.2001220721752,-15.1064316777295,-57.7096208133059
1580421256.6338,9.67421988250544,-15.2895399404897,-58.8693064774548
1580421256.6378,7.53795681696806,-15.5947203784237,-59.9679560540169
1580421256.6418,5.52376592660403,-16.0219729915311,-61.3717860685131
1580421256.64579,3.93682764934761,-16.2661173418783,-62.4704356450752
1580421256.64979,3.02128633554594,-16.5712977798123,-63.5690852216374
1580421256.65379,2.7161058976119,-16.4492256046387,-64.4235904478523
1580421256.65779,2.16678110933094,-16.2050812542916,-65.2170595864804
1580421256.66179,1.55642023346309,-16.1440451667047,-65.9494926375219
1580421256.66579,0.885023270008332,-16.1440451667047,-66.6208896009766
1580421256.66979,0.396734569314049,-16.1440451667047,-67.4753948271916
1580421256.6738,0.335698481727377,-16.1440451667047,-68.207827878233
1580421256.6778,0.640878919661191,-16.2050812542916,-68.757152666514
1580421256.68179,1.37331197070262,-16.1440451667047,-69.3675135423819
1580421256.68579,2.53299763485165,-15.777828641184,-69.8558022430761
1580421256.68979,3.81475547417404,-15.5947203784237,-70.3440909437704
1580421256.69379,5.15754940108332,-15.5336842908368,-70.771343556878
1580421256.69779,6.19516289005878,-15.4726482032502,-71.320668345159
1580421256.70179,6.68345159075307,-15.4116121156633,-72.0531013962004
1580421256.70579,6.74448767833974,-15.4726482032502,-73.029678797589
1580421256.70979,6.68345159075307,-15.6557564660104,-74.2504005493247
1580421256.71378,6.62241550316617,-16.0219729915311,-75.593194476234
1580421256.71778,6.68345159075307,-16.5712977798123,-76.8139162279697
1580421256.72178,7.23277637903402,-16.937514305333,-78.156710154879
1580421256.72578,8.33142595559616,-17.1816586556802,-79.6215762569618
1580421256.72978,9.85732814526591,-17.486839093614,-81.0864423590447
1580421256.73378,12.1156633859769,-17.8530556191347,-82.6123445487144
1580421256.73778,14.6791790646218,-17.9751277943083,-84.1992828259708
1580421256.74178,17.8530556191347,-18.0361638818952,-85.6031128404668
1580421256.74577,21.1490043488211,-17.4258030060273,-86.9459067673761
1580421256.74977,24.628061341268,-16.4492256046387,-88.6549172198061
1580421256.75375,28.7785152971694,-14.923323414969,-90.6691081101701
1580421256.75775,33.2341496910046,-12.9701686121919,-93.1715877012282
1580421256.76175,36.2859540703439,-11.0780498970016,-95.9792477302205
1580421256.76575,37.4456397344929,-9.85732814526591,-99.2141603723203
1580421256.76975,38.239108873121,-8.88075074387734,-102.143892576486
1580421256.77375,39.4598306248567,-6.86655985351331,-104.890516517891
1580421256.77775,40.1922636758982,-4.54718852521546,-107.515068284123
1580421256.78174,41.0467689021132,-1.80056458381023,-110.200656137942
1580421256.78574,41.8402380407415,0.885023270008332,-113.191424429694
1580421256.78974,42.3895628290225,3.20439459830618,-116.12115663386
1580421256.79374,42.8778515297167,5.27962157625689,-118.501564049745
1580421256.79774,42.8778515297167,7.41588464179449,-120.393682764935
1580421256.80174,42.0843823910886,9.30800335698473,-121.919584954604
1580421256.80574,41.1078049897001,11.3832303349354,-123.262378881514
1580421256.80974,40.1312275883115,13.1532768749523,-124.299992370489
1580421256.81374,39.7650110627908,14.1908903639276,-124.727244983597
1580421256.81773,40.4974441138322,15.0453955901426,-125.215533684291
1580421256.82173,42.1454184786753,15.228503852903,-124.971389333944
1580421256.82573,44.4037537193865,15.5947203784237,-124.84931715877
1580421256.82973,47.2724498359653,15.777828641184,-124.361028458076
1580421256.83374,52.0943007553215,16.4492256046387,-123.384451056687
1580421256.83774,58.2589456015867,16.7544060425726,-121.553368429084
1580421256.84174,64.1794460975052,16.5712977798123,-119.233997100786
1580421256.84574,68.8181887541009,16.4492256046387,-116.670481422141
1580421256.84974,72.297245746548,16.2050812542916,-114.22903791867
1580421256.85373,75.0438696879532,15.6557564660104,-112.031738765545
1580421256.85773,77.424277103838,15.2895399404897,-110.383764400702
1580421256.86173,79.5605401693751,15.228503852903,-108.796826123445
1580421256.86573,81.6968032349127,15.1064316777295,-107.331960021363
1580421256.86973,83.4058136873427,15.3505760280766,-105.68398565652
1580421256.87373,85.3589684901199,15.4116121156633,-103.608758678569
1580421256.87773,85.4200045777065,15.5947203784237,-100.74006256199
1580421256.88172,83.4668497749294,16.5102616922254,-97.3830777447167
1580421256.88572,80.4150453955904,17.9140917067216,-93.8429846646832
1580421256.88972,76.7528801403832,18.8296330205233,-90.4859998474096
1580421256.89372,73.1517509727628,18.9517051956968,-87.861448081178
1580421256.89772,70.1609826810104,18.5854886701761,-86.0303654535744
1580421256.90172,68.7571526665142,18.0971999694818,-84.5044632639047
1580421256.90572,70.8934157320518,17.4258030060273,-82.0019836728466
1580421256.90972,74.8607614251928,16.632333867399,-77.8515297169452
1580421256.9137,80.476081483177,15.0453955901426,-71.5648126955061
1580421256.9177,86.7017624170294,11.6884107728695,-62.775616083009
1580421256.92169,89.9977111467156,6.74448767833974,-52.7656977187762
1580421256.92569,86.5796902418556,3.02128633554594,-44.2816815442131
1580421256.92969,77.5463492790113,2.7161058976119,-38.7884336614025
1580421256.93369,68.3299000534066,5.03547722590974,-35.1262684061953
1580421256.93769,60.5783169298847,7.29381246662092,-31.9523918516825
1580421256.94169,54.6578164339662,7.53795681696806,-27.6188296330204
1580421256.94569,49.5918211642634,5.95101853971164,-21.4541847867551
1580421256.94968,43.6713206683451,3.26543068589308,-13.2753490501259
1580421256.95368,34.9431601434346,1.49538414587619,-4.7913328755626
1580421256.95768,23.5904478522925,2.41092545967808,3.20439459830618
1580421256.96168,11.3832303349354,5.27962157625689,9.61318379491877
1580421256.96568,-0.70191500724809,8.51453421835663,14.4350347142747
1580421256.96968,-12.1156633859769,11.2001220721752,18.4634164950025
1580421256.97368,-22.4307621881437,12.8480964370183,21.759365224689
1580421256.97768,-30.8537422751201,13.3363851377126,25.1773861295489
1580421256.98167,-37.3846036469063,13.0312046997788,28.9616235599296
1580421256.98567,-42.2674906538491,12.2987716487373,33.6003662165253
1580421256.98967,-45.8686198214696,11.6884107728695,39.0325780117494
1580421256.99368,-49.2256046387427,11.4442664225223,45.2582589456015
1580421256.99768,-52.3384451056688,11.1390859845883,51.911192492561
1580421257.00168,-55.3292133974212,11.0170138094147,58.747234302281
1580421257.00568,-57.4044403753719,10.8949416342411,65.7053482871752
1580421257.00968,-58.503089951934,10.8949416342411,72.7244983596552
1580421257.01368,-58.3199816891738,10.5897611963073,79.4995040817885
1580421257.01767,-57.7706569008926,9.97940032043948,86.2745098039218
1580421257.02167,-58.0758373388267,9.12489509422448,92.8053711757079
1580421257.02567,-59.1744869153888,8.08728160524902,98.9700160219732
1580421257.02967,-60.5783169298847,6.62241550316617,105.134660868238
1580421257.03367,-62.1652552071412,5.21858548867021,111.116197451744
1580421257.03767,-63.8742656595712,3.87579156176093,116.853589684901
1580421257.04167,-65.6443121995881,2.7771419851988,122.590981918059
1580421257.04567,-67.4143587396047,1.61745632104976,128.08422980087
1580421257.04966,-68.9402609292745,0.762951094834762,133.638513771267
1580421257.05366,-69.8558022430761,-0.0305180437933359,139.497978179599
1580421257.05766,-69.4895857175554,-1.0681315327688,145.479514763103
1580421257.06166,-68.2688639658197,-1.9226367589838,151.338979171435
1580421257.06566,-66.4988174258031,-2.41092545967808,157.076371404593
1580421257.06966,-64.9118791485466,-2.7771419851988,162.569619287403
1580421257.07364,-63.5690852216374,-2.89921416037237,167.940794995041
1580421257.07764,-62.2262912947281,-3.02128633554594,173.250934615091
1580421257.08164,-60.8834973678188,-3.02128633554594,178.561074235141
1580421257.08563,-58.8082703898681,-2.89921416037237,183.932249942779
1580421257.08963,-55.8785381857024,-2.7161058976119,189.364461738003
1580421257.09363,-52.0943007553217,-2.53299763485165,194.857709620814
1580421257.09763,-47.0283054856184,-2.7161058976119,200.411993591211
1580421257.10163,-41.3519493400474,-2.83817807278547,206.149385824369
1580421257.10563,-35.3093766689556,-3.08232242313261,211.886778057526
1580421257.10963,-28.7785152971694,-3.08232242313261,217.563134203098
1580421257.11363,-22.2476539253832,-2.83817807278547,223.178454261082
1580421257.11762,-15.8388647287709,-2.41092545967808,228.488593881132
1580421257.12162,-10.2235446707866,-1.55642023346309,233.798733501183
1580421257.12562,-5.15754940108332,-0.274662394140478,238.803692683299
1580421257.12962,-0.640878919661191,1.19020370794237,243.625543602655
1580421257.13362,3.50957503624022,2.7161058976119,248.569466697185
1580421257.13762,6.86655985351331,4.05889982452118,253.147173266193
1580421257.14162,8.75867856870377,5.58480201419093,257.297627222095
1580421257.14562,9.24696726939806,6.80552376592664,260.837720302129
1580421257.14961,8.14831769283592,7.90417334248878,263.340199893187
1580421257.15363,6.43930724040592,8.94178683146401,265.049210345617
1580421257.15762,4.60822461280236,10.4066529335469,265.781643396658
1580421257.16162,2.7771419851988,11.9935912108033,265.659571221485
1580421257.16562,1.43434805828952,13.214312962539,264.682993820096
1580421257.16962,1.0070954451819,13.8857099259938,262.851911192492
1580421257.17362,1.25123979552905,14.0077821011673,260.471503776608
1580421257.17762,1.0681315327688,13.7026016632333,257.114518959335
1580421257.18162,0.762951094834762,13.3974212252995,253.147173266193
1580421257.18561,-0.579842832074519,13.2753490501259,248.630502784772
1580421257.18961,-3.02128633554594,12.7260242618447,243.930724040589
1580421257.19361,-7.59899290455473,11.9935912108033,239.16990920882
1580421257.19761,-14.7402151522087,11.505302510109,234.409094377051
1580421257.20161,-24.8111696040282,10.650797283894,229.465171282521
1580421257.20561,-36.9573510337989,9.67421988250544,224.643320363165
1580421257.20961,-50.6904707408255,8.81971465629044,219.943541618982
1580421257.21361,-64.4235904478523,7.7821011673152,215.2437628748
1580421257.2176,-76.6308079652094,6.68345159075307,210.788128480965
1580421257.2216,-86.9459067673761,5.40169375143046,206.271457999542
1580421257.2256,-95.002670328832,3.81475547417404,201.75478751812
1580421257.2296,-101.106279087511,2.16678110933094,197.726405737392
1580421257.23358,-105.622949568933,0.091554131380235,193.820096131838
1580421257.23758,-108.857862211032,-2.28885328450451,190.402075226978
1580421257.24158,-111.17723353933,-4.7913328755626,187.350270847639
1580421257.24558,-112.642099641413,-7.47692072938116,184.420538643473
1580421257.24958,-113.313496604868,-10.5287251087204,181.42977035172
1580421257.25357,-113.801785305562,-13.4584573128861,178.255893797208
1580421257.25757,-113.801785305562,-16.0219729915311,174.471656366827
1580421257.26157,-113.313496604868,-17.9140917067216,169.893949797818
1580421257.26557,-111.909666590372,-19.3179217212175,164.766918440528
1580421257.26957,-108.064393072404,-20.1113908598459,159.395742732891
1580421257.27357,-101.228351262684,-20.6607156481268,154.085603112841
1580421257.27757,-93.2936598764018,-21.3931486991683,148.836499580377
1580421257.28157,-87.006942854963,-22.3697261005568,143.709468223087
1580421257.28556,-84.0772106507973,-22.4307621881437,138.704509040971
1580421257.28956,-83.7109941252766,-21.9424734874494,133.333333333333
1580421257.29356,-85.297932402533,-21.759365224689,127.473868925002
1580421257.29756,-87.6173037308308,-21.2710765239947,121.187151903563
1580421257.30156,-90.1808194094758,-20.5996795605402,114.41214618143
1580421257.30556,-92.8664072632944,-19.8062104219118,107.454032196536
1580421257.30956,-95.1857785915925,-18.9517051956968,100.251773861296
1580421257.31357,-96.9558251316091,-18.0361638818952,93.1105516136417
1580421257.31757,-98.725871671626,-17.1816586556802,86.3355458915084
1580421257.32156,-99.5193408102541,-16.7544060425726,79.7436484321356
1580421257.32556,-99.0310521095598,-16.2661173418783,73.7010757610437
1580421257.32956,-97.016861219196,-15.4726482032502,68.0247196154728
1580421257.33356,-93.2936598764018,-14.1908903639276,62.0431830319676
1580421257.33756,-87.6173037308308,-13.214312962539,55.6954299229419
1580421257.34156,-80.170901045243,-12.6039520866711,49.4087129015029
1580421257.34556,-72.175173571374,-12.359807736324,43.2440680552374
1580421257.34956,-64.2404821850919,-12.664988174258,37.1404592965589
1580421257.35355,-56.9161516746776,-13.1532768749523,30.9147783627068
1580421257.35755,-50.6294346532388,-13.1532768749523,24.628061341268
1580421257.36155,-45.0751506828412,-13.214312962539,18.1582360570687
1580421257.36555,-39.1546501869232,-12.664988174258,11.6273746852826
1580421257.36955,-32.7458609903106,-11.8715190356297,5.09651331349664
1580421257.37355,-26.3981078812847,-11.2001220721752,-0.762951094834762
1580421257.37755,-20.6607156481268,-10.650797283894,-6.25619897764545
1580421257.38155,-15.6557564660104,-9.91836423285258,-11.505302510109
1580421257.38555,-12.0546272983902,-9.12489509422448,-16.632333867399
1580421257.38954,-9.36903944457163,-8.39246204318306,-21.759365224689
1580421257.39352,-6.13412680247188,-7.59899290455473,-26.8253604943923
1580421257.39752,-2.7771419851988,-6.74448767833974,-31.8913557640956
1580421257.40152,0.091554131380235,-6.37827115281902,-37.0183871213856
1580421257.40552,2.04470893415737,-6.13412680247188,-42.3895628290227
1580421257.40952,2.59403372243833,-5.40169375143046,-47.8217746242467
1580421257.41352,2.7771419851988,-3.99786373693451,-53.1929503318838
1580421257.41752,3.08232242313261,-0.457770656900948,-58.3810177767605
1580421257.42151,7.47692072938116,9.06385900663759,-61.7380025940338
1580421257.42551,6.80552376592664,14.2519264515145,-63.0807965209431
1580421257.42951,-2.47196154726475,16.8764782177461,-65.5222400244145
1580421257.43351,-8.39246204318306,20.1724269474325,-68.9402609292745
1580421257.43751,6.01205462729831,20.904859998474,-69.7947661554895
1580421257.44151,34.5159075303272,17.4258030060273,-66.8039978637369
1580421257.44551,61.1276417181657,9.61318379491877,-60.5783169298847
1580421257.44951,71.0154879072252,2.28885328450451,-52.9488059815367
1580421257.45351,56.8551155870905,-0.091554131380235,-46.5400167849241
1580421257.4575,27.9240100709544,3.02128633554594,-44.586861982147
1580421257.4615,-0.335698481727377,9.4911116197452,-48.0659189745938
1580421257.4655,-18.7685969329366,15.5947203784237,-55.5733577477683
1580421257.4695,-26.1539635309375,17.1816586556802,-63.2639047837033
1580421257.47351,-24.2008087281604,13.6415655756466,-67.2312504768445
1580421257.47751,-15.5336842908368,9.00282291905091,-66.1326009002823
1580421257.48151,-4.73029678797593,6.86655985351331,-61.7380025940338
1580421257.48551,4.48615243762879,8.94178683146401,-57.4044403753719
1580421257.4895,10.2235446707866,13.0312046997788,-55.3902494850081
1580421257.4935,12.2987716487373,16.0219729915311,-56.0616464484626
1580421257.4975,11.7494468604561,16.8154421301595,-58.0148012512398
1580421257.5015,10.8339055466545,15.3505760280766,-60.0289921416038
1580421257.5055,12.5429159990845,13.0922407873654,-61.1886778057526
1580421257.5095,17.7309834439611,13.1532768749523,-60.8834973678188
1580421257.5135,24.5059891660944,16.1440451667047,-59.6017395284962
1580421257.5175,31.2199588006408,18.8906691081102,-58.1979095140002
1580421257.52149,38.4222171358815,17.3037308308537,-56.3668268863967
1580421257.52549,41.4740215152208,13.519493400473,-54.3526359960326
1580421257.52949,37.8118562600137,12.5429159990845,-53.8033112077517
1580421257.53349,29.3888761730373,15.0453955901426,-55.5733577477683
1580421257.53749,19.9893186846723,17.792019531548,-58.4420538643474
1580421257.54149,11.7494468604561,19.501029983978,-61.1886778057526
1580421257.54549,5.27962157625689,21.0269321736475,-62.5925078202488
1580421257.54949,-1.55642023346309,22.6749065384909,-62.8976882581826
1580421257.55347,-11.0780498970016,23.4073395895323,-62.9587243457695
1580421257.55746,-21.0879682612344,23.468375677119,-64.0573739223316
1580421257.56146,-26.5812161440451,22.1866178377966,-66.0715648126954
1580421257.56546,-27.9240100709544,19.9893186846723,-68.2688639658197
1580421257.56946,-27.8019378957808,17.6089112687876,-69.7947661554895
1580421257.57346,-27.9850461585411,15.228503852903,-70.771343556878
1580421257.57746,-28.2902265964751,13.519493400473,-70.5882352941176
1580421257.58146,-28.9616235599296,13.5805294880597,-69.8558022430761
1580421257.58546,-30.1213092240787,15.1064316777295,-69.1233691920347
1580421257.58945,-31.6472114137484,16.7544060425726,-68.3299000534066
1580421257.59345,-32.1965362020296,18.4023804074159,-67.2922865644312
1580421257.59745,-32.2575722896163,20.2334630350194,-65.7053482871747
1580421257.60145,-32.5627527275503,21.759365224689,-63.9353017471581
1580421257.60545,-33.1120775158313,22.7359426260775,-62.2262912947281
1580421257.60945,-33.0510414282446,22.8580148012511,-60.0289921416038
1580421257.61345,-31.5861753261618,22.1255817502097,-57.7706569008926
1580421257.61745,-28.4733348592354,20.9658960860609,-55.0850690470741
1580421257.62144,-24.3839169909209,19.4399938963911,-52.0943007553217
1580421257.62544,-20.4165712977797,17.9140917067216,-48.9204242008088
1580421257.62944,-17.2426947432668,16.632333867399,-45.9296559090562
1580421257.63345,-14.6181429770352,16.2661173418783,-43.4271763179981
1580421257.63745,-12.7260242618447,16.7544060425726,-41.2909132524605
1580421257.64145,-10.7118333714809,17.4258030060273,-39.3987945372703
1580421257.64545,-8.39246204318306,17.8530556191347,-37.5066758220798
1580421257.64945,-5.52376592660403,17.7309834439611,-35.3704127565425
1580421257.65345,-2.04470893415737,17.0595864805066,-33.0510414282446
1580421257.65745,2.28885328450451,16.2661173418783,-30.7316700999465
1580421257.66144,6.62241550316617,15.2895399404897,-28.3512626840618
1580421257.66544,10.8339055466545,14.4960708018616,-26.2149996185244
1580421257.66944,14.4960708018616,14.0077821011673,-24.2618448157473
1580421257.67344,17.8530556191347,13.6415655756466,-22.1866178377966
1580421257.67744,21.0879682612344,13.1532768749523,-20.4165712977797
1580421257.68144,24.5670252536811,12.8480964370183,-18.5244525825894
1580421257.68544,27.9240100709544,12.7260242618447,-16.6933699549859
1580421257.68944,30.8537422751201,12.9701686121919,-14.9843595025559
1580421257.69343,34.2107270923932,13.0312046997788,-13.6415655756466
1580421257.69743,37.5066758220796,13.3974212252995,-12.6039520866711
1580421257.70143,40.5584802014189,13.8246738384069,-11.505302510109
1580421257.70543,41.7792019531546,14.6181429770352,-10.7728694590676
1580421257.70943,41.7181658655679,15.5336842908368,-10.650797283894
1580421257.71341,40.2532997634851,16.7544060425726,-10.7118333714809
1580421257.71741,37.9339284351872,17.8530556191347,-10.8339055466545
1580421257.72141,35.4314488441289,18.4634164950025,-10.955977721828
1580421257.7254,32.5017166399632,19.1348134584573,-10.8949416342411
1580421257.7294,28.7785152971694,19.5620660715647,-10.955977721828
1580421257.7334,24.0787365529868,20.5386434729533,-11.3221942473488
1580421257.7374,18.7685969329366,21.8204013122759,-11.9325551232166
1580421257.7414,13.8857099259938,22.8580148012511,-12.9091325246052
1580421257.7454,9.73525597009234,23.5294117647059,-13.8857099259938
1580421257.7494,6.62241550316617,23.4073395895323,-14.8012512397954
1580421257.7534,3.38750286106665,23.1021591515982,-15.6557564660104
1580421257.7574,0.579842832074519,22.7969787136644,-16.5102616922254
1580421257.76139,-1.61745632104976,22.7359426260775,-17.3037308308537
1580421257.76539,-3.69268329900046,23.3463035019454,-18.2803082322423
1580421257.76939,-6.31723506523235,23.773556115053,-19.6841382467383
1580421257.77339,-9.36903944457163,23.7125200274661,-20.9658960860609
1580421257.77739,-11.7494468604561,23.468375677119,-21.6372930495154
1580421257.78139,-12.4818799114976,23.3463035019454,-21.5762569619287
1580421257.78539,-11.2001220721752,22.919050888838,-21.210040436408
1580421257.78938,-8.39246204318306,21.210040436408,-20.904859998474
1580421257.7934,-3.99786373693451,18.8906691081102,-20.5996795605402
1580421257.79739,2.04470893415737,16.5712977798123,-19.9893186846723
1580421257.80139,8.02624551766235,14.4350347142747,-19.2568856336309
1580421257.80539,13.3974212252995,12.7870603494316,-18.2192721446554
1580421257.80939,17.3647669184404,11.9325551232166,-16.5712977798123
1580421257.81339,19.2568856336309,11.9325551232166,-14.7402151522087
1580421257.81739,21.1490043488211,12.1766994735638,-12.9701686121919
1580421257.82139,24.0787365529868,11.4442664225223,-11.6273746852826
1580421257.82539,27.8629739833675,8.75867856870377,-10.4676890211338
1580421257.82938,31.6472114137482,3.99786373693451,-9.36903944457163
1580421257.83338,35.3093766689553,-0.457770656900948,-8.39246204318306
1580421257.83738,37.7508201724268,-3.63164721141379,-7.7821011673152
1580421257.84138,38.0560006103608,-6.19516289005878,-8.02624551766235
1580421257.84538,36.7742427710382,-8.08728160524902,-9.00282291905091
1580421257.84938,34.2107270923932,-9.61318379491877,-10.5287251087204
1580421257.85338,31.0368505378804,-11.2001220721752,-12.7870603494316
1580421257.85738,28.7174792095825,-12.7260242618447,-14.8622873273823
1580421257.86137,27.1305409323261,-13.7026016632333,-16.632333867399
1580421257.86537,22.3086900129701,-13.1532768749523,-18.2803082322423
1580421257.86937,15.9609369039445,-12.0546272983902,-19.3789578088044
1580421257.87335,10.8339055466545,-11.0780498970016,-20.2944991226061
1580421257.87735,6.5003433279926,-9.06385900663759,-21.5152208743418
1580421257.88135,3.93682764934761,-7.35484855420759,-22.6749065384909
1580421257.88535,2.59403372243833,-6.80552376592664,-23.5294117647059
1580421257.88935,0.823987182421661,-6.01205462729831,-23.7125200274661
1580421257.89334,0.640878919661191,-4.54718852521546,-23.468375677119
1580421257.89734,1.98367284657047,-3.26543068589308,-23.4073395895323
1580421257.90134,1.67849240863666,-2.16678110933094,-23.2242313267718
1580421257.90534,-0.885023270008332,-1.43434805828952,-22.919050888838
1580421257.90934,-4.24200808728165,0.152590218966907,-22.3086900129701
1580421257.91334,-5.6458381017776,2.41092545967808,-22.1255817502097
1580421257.91734,-6.01205462729831,3.63164721141379,-22.2476539253832
1580421257.92134,-6.98863202868688,4.24200808728165,-22.919050888838
1580421257.92534,-7.53795681696806,3.26543068589308,-23.8956282902266
1580421257.92933,-5.7068741893645,1.61745632104976,-24.4449530785075
1580421257.93333,-2.96025024795904,0.579842832074519,-24.0787365529868
1580421257.93733,-1.80056458381023,-0.396734569314049,-23.7125200274661
1580421257.94133,-1.43434805828952,-1.67849240863666,-23.9566643778132
1580421257.94533,0.885023270008332,-2.28885328450451,-24.322880903334
1580421257.94933,6.07309071488521,-2.28885328450451,-24.0177004654001
1580421257.95334,12.5429159990845,-1.31227588311594,-22.6749065384909
1580421257.95734,17.9751277943083,0.823987182421661,-20.6607156481268
1580421257.96134,21.3321126115816,2.7161058976119,-18.2803082322423
1580421257.96533,22.3086900129701,3.75371938658736,-16.3881895170518
1580421257.96933,22.2476539253832,3.81475547417404,-15.3505760280766
1580421257.97333,22.8580148012511,3.50957503624022,-15.2895399404897
1580421257.97733,24.9332417792018,3.63164721141379,-15.5336842908368
1580421257.98133,26.9474326695658,3.81475547417404,-15.9609369039445
1580421257.98533,27.9850461585411,4.05889982452118,-16.3271534294652
1580421257.98933,26.9474326695658,4.18097199969475,-16.937514305333
1580421257.99333,23.8345922026397,4.11993591210808,-17.9751277943083
1580421257.99732,19.195849546044,4.11993591210808,-19.1348134584573
1580421258.00132,13.0922407873654,3.63164721141379,-20.7827878233004
1580421258.00532,7.53795681696806,2.83817807278547,-22.4917982757304
1580421258.00932,3.38750286106665,2.22781719691761,-23.8956282902266
1580421258.01332,1.12916762035547,2.28885328450451,-24.8722056916151
1580421258.01732,0.70191500724809,2.53299763485165,-25.6656748302432
1580421258.02132,0.335698481727377,2.59403372243833,-26.2760357061111
1580421258.02532,0.457770656900948,2.83817807278547,-26.4591439688716
1580421258.02931,1.0070954451819,3.38750286106665,-26.1539635309375
1580421258.03329,1.61745632104976,3.81475547417404,-25.6046387426566
1580421258.03729,2.7161058976119,3.75371938658736,-25.1773861295489
1580421258.04129,3.08232242313261,3.75371938658736,-24.7501335164416
1580421258.04529,3.69268329900046,3.32646677347975,-24.5059891660944
1580421258.04929,4.91340505073617,3.20439459830618,-24.0177004654001
1580421258.05329,7.41588464179449,3.63164721141379,-23.2852674143587
1580421258.05729,9.97940032043948,3.99786373693451,-22.1866178377966
1580421258.06129,12.8480964370183,4.48615243762879,-20.6607156481268
1580421258.06528,14.6181429770352,5.15754940108332,-19.195849546044
1580421258.06928,15.6557564660104,5.58480201419093,-18.0361638818952
1580421258.07328,16.6933699549859,5.76791027695117,-17.1816586556802
1580421258.07728,17.7309834439611,5.52376592660403,-16.632333867399
1580421258.08128,19.0737773708704,4.8523689631495,-16.083009079118
1580421258.08528,20.355535210193,4.18097199969475,-15.4116121156633
1580421258.08928,21.9424734874494,3.44853894865332,-14.8622873273823
1580421258.09328,22.8580148012511,2.53299763485165,-14.373998626688
1580421258.09727,22.4917982757304,1.8616006713969,-14.4960708018616
1580421258.10127,20.6607156481268,1.31227588311594,-14.9843595025559
1580421258.10527,17.8530556191347,0.70191500724809,-15.9609369039445
1580421258.10927,15.7167925535973,0.213626306553806,-17.1206225680933
1580421258.11328,14.1298542763409,-0.213626306553806,-18.2803082322423
1580421258.11728,12.7870603494316,-0.70191500724809,-19.501029983978
1580421258.12128,11.6884107728695,-0.823987182421661,-20.5386434729533
1580421258.12528,10.8949416342411,-0.946059357595232,-21.5152208743418
1580421258.12928,10.1014724956131,-1.19020370794237,-22.6749065384909
1580421258.13328,9.67421988250544,-1.55642023346309,-23.7125200274661
1580421258.13727,9.91836423285258,-1.98367284657047,-24.5670252536811
1580421258.14127,10.650797283894,-2.16678110933094,-24.9942778667887
1580421258.14527,11.4442664225223,-1.55642023346309,-25.1163500419623
1580421258.14927,12.4818799114976,-0.885023270008332,-24.9942778667887
1580421258.15327,13.1532768749523,-0.762951094834762,-25.2384222171358
1580421258.15727,12.7260242618447,-1.0681315327688,-25.9708552681773
1580421258.16127,12.5429159990845,-1.73952849622333,-27.0084687571525
1580421258.16526,12.9091325246052,-2.04470893415737,-28.1681544213016
1580421258.16926,13.6415655756466,-2.04470893415737,-29.1447318226901
1580421258.17326,14.6791790646218,-1.80056458381023,-30.0602731364918
1580421258.17726,15.6557564660104,-1.73952849622333,-30.9758144502937
1580421258.18126,15.9609369039445,-2.10574502174404,-31.8303196765089
1580421258.18526,15.5336842908368,-2.41092545967808,-32.6848249027239
1580421258.18926,14.8622873273823,-2.89921416037237,-33.783474479286
1580421258.19324,14.1298542763409,-3.26543068589308,-34.8210879682613
1580421258.19724,12.5429159990845,-3.93682764934761,-36.041809719997
1580421258.20123,11.3221942473488,-4.7913328755626,-37.2625314717327
1580421258.20523,10.4066529335469,-5.6458381017776,-38.8494697489891
1580421258.20923,9.4300755321583,-6.19516289005878,-40.2532997634853
1580421258.21323,8.20935378042259,-6.92759594110021,-41.7792019531548
1580421258.21723,6.74448767833974,-7.29381246662092,-42.877851529717
1580421258.22123,5.27962157625689,-7.66002899214163,-44.037537193866
1580421258.22523,4.54718852521546,-8.14831769283592,-45.1972228580148
1580421258.22923,4.48615243762879,-8.6366063935302,-46.2958724345769
1580421258.23322,5.27962157625689,-8.81971465629044,-47.2114137483788
1580421258.23722,6.86655985351331,-8.75867856870377,-47.8217746242467
1580421258.24122,8.69764248111687,-8.51453421835663,-48.1879911497674
1580421258.24522,9.85732814526591,-8.33142595559616,-48.310063324941
1580421258.24922,10.1014724956131,-8.02624551766235,-48.5542076752881
1580421258.25322,10.5287251087204,-7.96520943007545,-49.1035324635691
1580421258.25722,11.2001220721752,-7.96520943007545,-49.7138933394369
1580421258.26122,12.1766994735638,-7.96520943007545,-50.2632181277181
1580421258.26521,12.4818799114976,-7.96520943007545,-51.1787594415198
1580421258.26921,12.6039520866711,-7.7821011673152,-51.9722285801481
1580421258.27322,12.2987716487373,-7.72106507972831,-52.8267338063631
1580421258.27722,11.7494468604561,-7.7821011673152,-53.6812390325781
1580421258.28122,11.4442664225223,-7.7821011673152,-54.4136720836195
1580421258.28522,11.0780498970016,-7.96520943007545,-55.2071412222476
1580421258.28922,10.7118333714809,-7.84313725490188,-56.000610360876
1580421258.29322,10.7728694590676,-7.66002899214163,-56.7940794995041
1580421258.29722,11.0170138094147,-7.59899290455473,-57.648584725719
1580421258.30121,10.8339055466545,-7.47692072938116,-58.6251621271076
1580421258.30521,10.650797283894,-7.53795681696806,-59.4186312657359
1580421258.30921,10.8949416342411,-7.41588464179449,-60.1510643167774
1580421258.31321,11.6273746852826,-7.35484855420759,-61.1276417181659
1580421258.31721,13.214312962539,-7.29381246662092,-61.6769665064469
1580421258.32121,15.7167925535973,-7.23277637903402,-62.0431830319676
1580421258.32521,18.5244525825894,-7.17174029144735,-62.0431830319676
1580421258.32921,21.4541847867551,-6.80552376592664,-61.9821469443809
