Timestamp_seconds,Accel_X_g,Accel_Y_g,Accel_Z_g
1580421251.42765,-0.97584496833753,-0.077393759060044,-0.194094758525978
1580421251.43165,-0.97584496833753,-0.0729991607537954,-0.196536202029449
1580421251.43565,-0.975356679636835,-0.0725108720531011,-0.193118181124589
1580421251.43965,-0.976821545738918,-0.070557717250324,-0.192141603723201
1580421251.44365,-0.97926298924239,-0.067139696345464,-0.187747005416952
1580421251.44764,-0.97926298924239,-0.0725108720531011,-0.185793850614175
1580421251.45164,-0.979751277943084,-0.0734874494544897,-0.193118181124589
1580421251.45564,-0.981216144045167,-0.0759288929579611,-0.196047913328755
1580421251.45964,-0.978774700541695,-0.0783703364614325,-0.197024490730143
1580421251.46364,-0.979751277943084,-0.0764171816586554,-0.199954222934309
1580421251.46764,-0.978286411841001,-0.070557717250324,-0.198001068131532
1580421251.47164,-0.978774700541695,-0.0656748302433812,-0.203860532539863
1580421251.47565,-0.975356679636835,-0.0573739223315783,-0.207278553444723
1580421251.47965,-0.971938658731975,-0.0549324788281069,-0.218020904859998
1580421251.48364,-0.970473792629893,-0.0568856336308841,-0.218509193560692
1580421251.48764,-0.968520637827115,-0.0627450980392155,-0.218509193560692
1580421251.49164,-0.966079194323644,-0.0700694285496297,-0.212161440451666
1580421251.49564,-0.967544060425727,-0.0778820477607383,-0.204837109941252
1580421251.49964,-0.970962081330587,-0.0871595330739297,-0.206790264744029
1580421251.50364,-0.970473792629893,-0.0876478217746239,-0.203372243839169
1580421251.50764,-0.977309834439613,-0.0905775539787896,-0.215091172655832
1580421251.51163,-0.983169298847944,-0.0979018844892039,-0.214114595254443
1580421251.51563,-0.984145876249332,-0.10083161669337,-0.219485770962081
1580421251.51963,-0.985122453650721,-0.106691081101701,-0.215091172655832
1580421251.52363,-0.981216144045167,-0.106202792401007,-0.211673151750972
1580421251.52763,-0.983657587548638,-0.11108567940795,-0.209231708247501
1580421251.53163,-0.987075608453498,-0.114015411612115,-0.209719996948195
1580421251.53563,-0.981704432745861,-0.115968566414892,-0.210208285648889
1580421251.53963,-0.980727855344472,-0.12133974212253,-0.207766842145418
1580421251.54362,-0.978774700541695,-0.121828030823224,-0.211673151750972
1580421251.54762,-0.97926298924239,-0.124269474326695,-0.206790264744029
1580421251.55162,-0.982192721446555,-0.120851453421835,-0.205813687342641
1580421251.5556,-0.98609903105211,-0.123292896925307,-0.209231708247501
1580421251.5596,-0.988052185854887,-0.122316319523918,-0.212161440451666
1580421251.5636,-0.990493629358358,-0.128175783932249,-0.215091172655832
1580421251.5676,-0.995864805065995,-0.135500114442664,-0.209719996948195
1580421251.5716,-0.994888227664607,-0.143801022354467,-0.207278553444723
1580421251.5756,-0.995864805065995,-0.140871290150301,-0.213626306553749
1580421251.57959,-0.993911650263218,-0.138918135347524,-0.217532616159303
1580421251.58359,-0.991958495460441,-0.128664072632944,-0.213626306553749
1580421251.58759,-0.989028763256275,-0.118898298619058,-0.215091172655832
1580421251.59159,-0.988540474555581,-0.118410009918364,-0.215091172655832
1580421251.59559,-0.990005340657664,-0.115480277714198,-0.214602883955138
1580421251.59959,-0.987563897154192,-0.121828030823224,-0.214114595254443
1580421251.60359,-0.987563897154192,-0.113038834210727,-0.226810101472495
1580421251.60759,-0.98268101014725,-0.114991989013504,-0.232181277180132
1580421251.61158,-0.984634164950027,-0.103273060196841,-0.232669565880826
1580421251.61558,-0.98268101014725,-0.0915541313801782,-0.233646143282215
1580421251.61958,-0.981704432745861,-0.0852063782711525,-0.23657587548638
1580421251.62358,-0.97926298924239,-0.0832532234683754,-0.233646143282215
1580421251.62758,-0.976333257038224,-0.0788586251621268,-0.229251544975966
1580421251.63158,-0.973891813534753,-0.0759288929579611,-0.229739833676661
1580421251.63559,-0.973891813534753,-0.0759288929579611,-0.227298390173189
1580421251.63959,-0.972915236133364,-0.077393759060044,-0.228274967574578
1580421251.64359,-0.972915236133364,-0.0822766460669868,-0.232669565880826
1580421251.64758,-0.973891813534753,-0.0822766460669868,-0.229251544975966
1580421251.65158,-0.973403524834058,-0.0866712443732354,-0.225833524071106
1580421251.65558,-0.973891813534753,-0.0900892652780954,-0.223880369268329
1580421251.65958,-0.978286411841001,-0.0930189974822611,-0.230228122377355
1580421251.66358,-0.981216144045167,-0.0983901731898982,-0.227786678873883
1580421251.66758,-0.983657587548638,-0.0954604409857325,-0.230228122377355
1580421251.67158,-0.984634164950027,-0.0969253070878153,-0.223392080567635
1580421251.67558,-0.985122453650721,-0.0983901731898982,-0.222415503166246
1580421251.67958,-0.983657587548638,-0.0969253070878153,-0.227786678873883
1580421251.68357,-0.98268101014725,-0.0910658426794839,-0.227786678873883
1580421251.68757,-0.981216144045167,-0.0876478217746239,-0.220950637064163
1580421251.69157,-0.98268101014725,-0.0832532234683754,-0.222415503166246
1580421251.69557,-0.97926298924239,-0.0749523155565726,-0.223880369268329
1580421251.69957,-0.977309834439613,-0.0729991607537954,-0.216067750057221
1580421251.70357,-0.977309834439613,-0.0734874494544897,-0.216556038757915
1580421251.70757,-0.97926298924239,-0.0720225833524069,-0.216067750057221
1580421251.71157,-0.974868390936141,-0.0759288929579611,-0.216067750057221
1580421251.71554,-0.979751277943084,-0.0769054703593497,-0.214602883955138
1580421251.71954,-0.97926298924239,-0.0837415121690697,-0.217044327458609
1580421251.72354,-0.977309834439613,-0.080811779964904,-0.211673151750972
1580421251.72754,-0.981704432745861,-0.0852063782711525,-0.215091172655832
1580421251.73154,-0.983657587548638,-0.0803234912642097,-0.213626306553749
1580421251.73554,-0.985122453650721,-0.0817883573662925,-0.216556038757915
1580421251.73954,-0.987075608453498,-0.0793469138628211,-0.215579461356526
1580421251.74354,-0.98609903105211,-0.073975738155184,-0.220462348363469
1580421251.74753,-0.985610742351415,-0.0749523155565726,-0.219485770962081
1580421251.75153,-0.985122453650721,-0.0700694285496297,-0.219485770962081
1580421251.75553,-0.986587319752804,-0.0725108720531011,-0.217532616159303
1580421251.75953,-0.984145876249332,-0.0729991607537954,-0.221927214465552
1580421251.76353,-0.98609903105211,-0.0749523155565726,-0.221438925764858
1580421251.76753,-0.98268101014725,-0.077393759060044,-0.223880369268329
1580421251.77153,-0.983657587548638,-0.0798352025635154,-0.223392080567635
1580421251.77553,-0.980727855344472,-0.0817883573662925,-0.223880369268329
1580421251.77953,-0.976821545738918,-0.0813000686655982,-0.221927214465552
1580421251.78352,-0.979751277943084,-0.080811779964904,-0.215579461356526
1580421251.78752,-0.977798123140307,-0.0832532234683754,-0.216067750057221
1580421251.79152,-0.977309834439613,-0.0842298008697639,-0.223392080567635
1580421251.79553,-0.977309834439613,-0.0881361104753182,-0.224368657969023
1580421251.79953,-0.978774700541695,-0.0944838635843439,-0.227298390173189
1580421251.80353,-0.98268101014725,-0.096437018387121,-0.225345235370412
1580421251.80753,-0.983657587548638,-0.0988784618905925,-0.225833524071106
1580421251.81153,-0.985122453650721,-0.0993667505912867,-0.227298390173189
1580421251.81553,-0.984634164950027,-0.0969253070878153,-0.230716411078049
1580421251.81952,-0.979751277943084,-0.0939955748836496,-0.228274967574578
1580421251.82352,-0.984145876249332,-0.0866712443732354,-0.226810101472495
1580421251.82752,-0.984145876249332,-0.0847180895704582,-0.23315785458152
1580421251.83152,-0.983657587548638,-0.0817883573662925,-0.231204699778743
1580421251.83552,-0.980727855344472,-0.0754406042572668,-0.232669565880826
1580421251.83952,-0.977309834439613,-0.070557717250324,-0.230228122377355
1580421251.84352,-0.981216144045167,-0.0686045624475469,-0.228274967574578
1580421251.84752,-0.980727855344472,-0.070557717250324,-0.232181277180132
1580421251.85151,-0.977309834439613,-0.070557717250324,-0.234622720683603
1580421251.85551,-0.973403524834058,-0.0666514076447697,-0.234134431982909
1580421251.85951,-0.974868390936141,-0.0720225833524069,-0.234622720683603
1580421251.86351,-0.978286411841001,-0.0744640268558783,-0.227298390173189
1580421251.86751,-0.978286411841001,-0.073975738155184,-0.225345235370412
1580421251.87151,-0.977798123140307,-0.0783703364614325,-0.221927214465552
1580421251.87549,-0.979751277943084,-0.0783703364614325,-0.226810101472495
1580421251.87949,-0.981704432745861,-0.0817883573662925,-0.226810101472495
1580421251.88348,-0.97926298924239,-0.0822766460669868,-0.223880369268329
1580421251.88748,-0.978774700541695,-0.0793469138628211,-0.225345235370412
1580421251.89148,-0.981216144045167,-0.080811779964904,-0.224856946669718
1580421251.89548,-0.978286411841001,-0.0803234912642097,-0.221927214465552
1580421251.89948,-0.981704432745861,-0.0788586251621268,-0.223392080567635
1580421251.90348,-0.981216144045167,-0.0729991607537954,-0.219485770962081
1580421251.90748,-0.983657587548638,-0.0729991607537954,-0.224856946669718
1580421251.91148,-0.985610742351415,-0.0744640268558783,-0.222903791866941
1580421251.91547,-0.988540474555581,-0.073975738155184,-0.221927214465552
1580421251.91947,-0.98609903105211,-0.073975738155184,-0.216556038757915
1580421251.92347,-0.988052185854887,-0.0764171816586554,-0.218997482261386
1580421251.92747,-0.984634164950027,-0.0788586251621268,-0.222415503166246
1580421251.93147,-0.987075608453498,-0.0764171816586554,-0.227786678873883
1580421251.93547,-0.985122453650721,-0.077393759060044,-0.232669565880826
1580421251.93947,-0.987563897154192,-0.0803234912642097,-0.231204699778743
1580421251.94347,-0.984145876249332,-0.0817883573662925,-0.225833524071106
1580421251.94747,-0.983657587548638,-0.0866712443732354,-0.227298390173189
1580421251.95146,-0.978286411841001,-0.0866712443732354,-0.230716411078049
1580421251.95547,-0.978774700541695,-0.0847180895704582,-0.236087586785686
1580421251.95947,-0.97926298924239,-0.0900892652780954,-0.234134431982909
1580421251.96347,-0.976821545738918,-0.0861829556725411,-0.230228122377355
1580421251.96747,-0.978286411841001,-0.0866712443732354,-0.230228122377355
1580421251.97147,-0.976821545738918,-0.0847180895704582,-0.235599298084992
1580421251.97547,-0.97584496833753,-0.0837415121690697,-0.235111009384298
1580421251.97947,-0.976821545738918,-0.0817883573662925,-0.232181277180132
1580421251.98347,-0.976333257038224,-0.0842298008697639,-0.231692988479438
1580421251.98746,-0.976821545738918,-0.0866712443732354,-0.235599298084992
1580421251.99146,-0.976821545738918,-0.0852063782711525,-0.237064164187075
1580421251.99546,-0.978774700541695,-0.0852063782711525,-0.237552452887769
1580421251.99946,-0.979751277943084,-0.0856946669718468,-0.238040741588463
1580421252.00346,-0.981704432745861,-0.0856946669718468,-0.229739833676661
1580421252.00746,-0.983657587548638,-0.0861829556725411,-0.228763256275272
1580421252.01146,-0.985122453650721,-0.0847180895704582,-0.229739833676661
1580421252.01546,-0.983657587548638,-0.0837415121690697,-0.228274967574578
1580421252.01945,-0.982192721446555,-0.0817883573662925,-0.231204699778743
1580421252.02345,-0.983657587548638,-0.0827649347676811,-0.231692988479438
1580421252.02745,-0.98609903105211,-0.0827649347676811,-0.233646143282215
1580421252.03145,-0.98268101014725,-0.0861829556725411,-0.232669565880826
1580421252.03543,-0.980727855344472,-0.0896009765774011,-0.228274967574578
1580421252.03943,-0.984145876249332,-0.0910658426794839,-0.226321812771801
1580421252.04343,-0.979751277943084,-0.0915541313801782,-0.227298390173189
1580421252.04743,-0.977309834439613,-0.0896009765774011,-0.226810101472495
1580421252.05143,-0.978774700541695,-0.0861829556725411,-0.220462348363469
1580421252.05542,-0.978774700541695,-0.0817883573662925,-0.225833524071106
1580421252.05942,-0.982192721446555,-0.0793469138628211,-0.221438925764858
1580421252.06342,-0.983657587548638,-0.0759288929579611,-0.225833524071106
1580421252.06742,-0.981704432745861,-0.0827649347676811,-0.227786678873883
1580421252.07142,-0.985610742351415,-0.0852063782711525,-0.225345235370412
1580421252.07542,-0.984145876249332,-0.0896009765774011,-0.233646143282215
1580421252.07942,-0.986587319752804,-0.0939955748836496,-0.226321812771801
1580421252.08342,-0.98268101014725,-0.0944838635843439,-0.229251544975966
1580421252.08741,-0.983657587548638,-0.0959487296864268,-0.227298390173189
1580421252.09141,-0.981216144045167,-0.0915541313801782,-0.222415503166246
1580421252.09541,-0.981216144045167,-0.0886243991760125,-0.220462348363469
1580421252.09941,-0.980727855344472,-0.0827649347676811,-0.220462348363469
1580421252.10341,-0.981216144045167,-0.0759288929579611,-0.225833524071106
1580421252.10741,-0.97926298924239,-0.0764171816586554,-0.227298390173189
1580421252.11141,-0.976333257038224,-0.0783703364614325,-0.221438925764858
1580421252.11542,-0.978774700541695,-0.0822766460669868,-0.226810101472495
1580421252.11942,-0.979751277943084,-0.0886243991760125,-0.225345235370412
1580421252.12341,-0.977309834439613,-0.0886243991760125,-0.225345235370412
1580421252.12741,-0.984145876249332,-0.0876478217746239,-0.215091172655832
1580421252.13141,-0.980727855344472,-0.0822766460669868,-0.215091172655832
1580421252.13541,-0.983657587548638,-0.0832532234683754,-0.223392080567635
1580421252.13941,-0.984634164950027,-0.0749523155565726,-0.220950637064163
1580421252.14341,-0.98268101014725,-0.0754406042572668,-0.224856946669718
1580421252.14741,-0.985122453650721,-0.0778820477607383,-0.227786678873883
1580421252.15141,-0.984145876249332,-0.080811779964904,-0.223880369268329
1580421252.15541,-0.983169298847944,-0.0832532234683754,-0.225833524071106
1580421252.1594,-0.981216144045167,-0.0866712443732354,-0.218997482261386
1580421252.1634,-0.982192721446555,-0.0915541313801782,-0.218997482261386
1580421252.1674,-0.983657587548638,-0.096437018387121,-0.215091172655832
1580421252.1714,-0.97926298924239,-0.096437018387121,-0.216556038757915
1580421252.1754,-0.978774700541695,-0.0983901731898982,-0.215579461356526
1580421252.1794,-0.980727855344472,-0.0988784618905925,-0.212649729152361
1580421252.1834,-0.982192721446555,-0.0910658426794839,-0.210208285648889
1580421252.18739,-0.981216144045167,-0.0866712443732354,-0.210208285648889
1580421252.19139,-0.985122453650721,-0.0837415121690697,-0.218020904859998
1580421252.19537,-0.983657587548638,-0.0837415121690697,-0.219974059662775
1580421252.19937,-0.983169298847944,-0.0852063782711525,-0.221438925764858
1580421252.20337,-0.984145876249332,-0.0827649347676811,-0.218020904859998
1580421252.20737,-0.985122453650721,-0.0891126878767068,-0.217044327458609
1580421252.21137,-0.984145876249332,-0.0871595330739297,-0.220462348363469
1580421252.21537,-0.985610742351415,-0.0896009765774011,-0.212161440451666
1580421252.21937,-0.984145876249332,-0.0847180895704582,-0.218509193560692
1580421252.22336,-0.981216144045167,-0.0842298008697639,-0.223392080567635
1580421252.22736,-0.981216144045167,-0.0856946669718468,-0.225833524071106
1580421252.23136,-0.981704432745861,-0.0861829556725411,-0.221927214465552
1580421252.23536,-0.977798123140307,-0.0881361104753182,-0.219974059662775
1580421252.23936,-0.976333257038224,-0.0905775539787896,-0.219485770962081
1580421252.24336,-0.978286411841001,-0.0896009765774011,-0.217532616159303
1580421252.24736,-0.977309834439613,-0.0959487296864268,-0.222415503166246
1580421252.25136,-0.977798123140307,-0.096437018387121,-0.219485770962081
1580421252.25535,-0.980727855344472,-0.0944838635843439,-0.219485770962081
1580421252.25935,-0.984634164950027,-0.0886243991760125,-0.209719996948195
1580421252.26335,-0.987563897154192,-0.0827649347676811,-0.218997482261386
1580421252.26735,-0.987075608453498,-0.0822766460669868,-0.219485770962081
1580421252.27135,-0.984145876249332,-0.0847180895704582,-0.222415503166246
1580421252.27536,-0.980239566643778,-0.0891126878767068,-0.228274967574578
1580421252.27936,-0.981704432745861,-0.0915541313801782,-0.221438925764858
1580421252.28336,-0.980727855344472,-0.0954604409857325,-0.220462348363469
1580421252.28736,-0.975356679636835,-0.0944838635843439,-0.221438925764858
1580421252.29135,-0.97926298924239,-0.0949721522850382,-0.217044327458609
1580421252.29535,-0.978286411841001,-0.0925307087815668,-0.218997482261386
1580421252.29935,-0.980239566643778,-0.0866712443732354,-0.221927214465552
1580421252.30335,-0.985122453650721,-0.0813000686655982,-0.215091172655832
1580421252.30735,-0.981704432745861,-0.0817883573662925,-0.220462348363469
1580421252.31135,-0.979751277943084,-0.0822766460669868,-0.220462348363469
1580421252.31535,-0.980727855344472,-0.0910658426794839,-0.213626306553749
1580421252.31935,-0.98268101014725,-0.0896009765774011,-0.213138017853055
1580421252.32334,-0.985610742351415,-0.0896009765774011,-0.210208285648889
1580421252.32734,-0.984145876249332,-0.0861829556725411,-0.210696574349583
1580421252.33134,-0.985610742351415,-0.0847180895704582,-0.210208285648889
1580421252.33534,-0.983169298847944,-0.0876478217746239,-0.212161440451666
1580421252.33934,-0.980727855344472,-0.0881361104753182,-0.213138017853055
1580421252.34334,-0.982192721446555,-0.0876478217746239,-0.210696574349583
1580421252.34734,-0.984145876249332,-0.0866712443732354,-0.212161440451666
1580421252.35134,-0.983657587548638,-0.0920424200808725,-0.216556038757915
1580421252.35532,-0.980727855344472,-0.0930189974822611,-0.218020904859998
1580421252.35931,-0.980727855344472,-0.0993667505912867,-0.216556038757915
1580421252.36331,-0.983169298847944,-0.101808194094758,-0.210696574349583
1580421252.36731,-0.984634164950027,-0.0988784618905925,-0.209719996948195
1580421252.37131,-0.984145876249332,-0.0954604409857325,-0.210208285648889
1580421252.37531,-0.986587319752804,-0.0915541313801782,-0.215579461356526
1580421252.37931,-0.984634164950027,-0.0925307087815668,-0.217044327458609
1580421252.38331,-0.986587319752804,-0.0915541313801782,-0.215579461356526
1580421252.38731,-0.989028763256275,-0.0910658426794839,-0.210696574349583
1580421252.3913,-0.987075608453498,-0.0925307087815668,-0.215579461356526
1580421252.3953,-0.984634164950027,-0.0949721522850382,-0.220462348363469
1580421252.3993,-0.983169298847944,-0.103761348897535,-0.218509193560692
1580421252.4033,-0.983169298847944,-0.10424963759823,-0.222415503166246
1580421252.4073,-0.981704432745861,-0.104737926298924,-0.215091172655832
1580421252.4113,-0.981704432745861,-0.101808194094758,-0.204348821240558
1580421252.4153,-0.980239566643778,-0.0983901731898982,-0.207766842145418
1580421252.4193,-0.980727855344472,-0.0979018844892039,-0.209719996948195
1580421252.4233,-0.98268101014725,-0.096437018387121,-0.207278553444723
1580421252.42729,-0.979751277943084,-0.0905775539787896,-0.204837109941252
1580421252.43129,-0.983169298847944,-0.0891126878767068,-0.203860532539863
1580421252.4353,-0.987563897154192,-0.080811779964904,-0.210696574349583
1580421252.4393,-0.990493629358358,-0.0769054703593497,-0.210208285648889
1580421252.4433,-0.988540474555581,-0.0813000686655982,-0.211184863050278
1580421252.4473,-0.989028763256275,-0.0871595330739297,-0.211184863050278
1580421252.4513,-0.987075608453498,-0.0959487296864268,-0.212649729152361
1580421252.4553,-0.986587319752804,-0.101808194094758,-0.214114595254443
1580421252.4593,-0.984145876249332,-0.10766765850309,-0.206301976043335
1580421252.46329,-0.98268101014725,-0.102784771496147,-0.206790264744029
1580421252.46729,-0.981216144045167,-0.106202792401007,-0.202883955138475
1580421252.47129,-0.97926298924239,-0.102296482795452,-0.204837109941252
1580421252.47529,-0.977798123140307,-0.103273060196841,-0.208255130846112
1580421252.47929,-0.978286411841001,-0.102784771496147,-0.210208285648889
1580421252.48329,-0.979751277943084,-0.107179369802395,-0.206790264744029
1580421252.48729,-0.980727855344472,-0.103761348897535,-0.206301976043335
1580421252.49128,-0.97926298924239,-0.101808194094758,-0.203860532539863
1580421252.49528,-0.983169298847944,-0.099855039291981,-0.202883955138475
1580421252.49928,-0.981704432745861,-0.0974135957885096,-0.202883955138475
1580421252.50328,-0.98268101014725,-0.0979018844892039,-0.205325398641946
1580421252.50728,-0.980239566643778,-0.099855039291981,-0.204837109941252
1580421252.51128,-0.978774700541695,-0.0988784618905925,-0.203372243839169
1580421252.51526,-0.980727855344472,-0.0925307087815668,-0.206790264744029
1580421252.51926,-0.98268101014725,-0.0925307087815668,-0.203860532539863
1580421252.52326,-0.97926298924239,-0.0925307087815668,-0.204348821240558
1580421252.52725,-0.980727855344472,-0.10083161669337,-0.208255130846112
1580421252.53125,-0.983657587548638,-0.103761348897535,-0.207766842145418
1580421252.53525,-0.981704432745861,-0.104737926298924,-0.207766842145418
1580421252.53925,-0.982192721446555,-0.104737926298924,-0.201419089036392
1580421252.54325,-0.986587319752804,-0.0974135957885096,-0.199954222934309
1580421252.54725,-0.986587319752804,-0.0954604409857325,-0.201907377737086
1580421252.55125,-0.983657587548638,-0.0920424200808725,-0.202883955138475
1580421252.55525,-0.984634164950027,-0.0949721522850382,-0.204348821240558
1580421252.55924,-0.983169298847944,-0.0954604409857325,-0.207278553444723
1580421252.56324,-0.979751277943084,-0.099855039291981,-0.202883955138475
1580421252.56724,-0.981216144045167,-0.0983901731898982,-0.205813687342641
1580421252.57124,-0.976821545738918,-0.101808194094758,-0.201907377737086
1580421252.57524,-0.97584496833753,-0.102784771496147,-0.204837109941252
1580421252.57924,-0.97584496833753,-0.10083161669337,-0.205813687342641
1580421252.58324,-0.974380102235447,-0.102296482795452,-0.207278553444723
1580421252.58724,-0.980239566643778,-0.099855039291981,-0.203372243839169
1580421252.59123,-0.980239566643778,-0.0983901731898982,-0.203860532539863
1580421252.59524,-0.978774700541695,-0.0974135957885096,-0.204837109941252
1580421252.59924,-0.980727855344472,-0.0983901731898982,-0.202883955138475
1580421252.60324,-0.980239566643778,-0.099855039291981,-0.210696574349583
1580421252.60724,-0.978286411841001,-0.101808194094758,-0.207766842145418
1580421252.61124,-0.978774700541695,-0.106202792401007,-0.202883955138475
1580421252.61524,-0.979751277943084,-0.106691081101701,-0.201907377737086
1580421252.61924,-0.978286411841001,-0.105226214999618,-0.201907377737086
1580421252.62324,-0.978774700541695,-0.106202792401007,-0.203860532539863
1580421252.62723,-0.979751277943084,-0.106202792401007,-0.202395666437781
1580421252.63123,-0.982192721446555,-0.107179369802395,-0.199465934233615
1580421252.63523,-0.981216144045167,-0.107179369802395,-0.198001068131532
1580421252.63923,-0.982192721446555,-0.105226214999618,-0.199954222934309
1580421252.64323,-0.984634164950027,-0.10424963759823,-0.203372243839169
1580421252.64723,-0.988540474555581,-0.107179369802395,-0.201907377737086
1580421252.65123,-0.985122453650721,-0.105226214999618,-0.201907377737086
1580421252.65523,-0.980727855344472,-0.105714503700312,-0.200442511635003
1580421252.65922,-0.984634164950027,-0.107179369802395,-0.199954222934309
1580421252.66322,-0.982192721446555,-0.111573968108644,-0.195071335927366
1580421252.66722,-0.983657587548638,-0.111573968108644,-0.198977645532921
1580421252.67122,-0.983657587548638,-0.113527122911421,-0.202395666437781
1580421252.6752,-0.983657587548638,-0.114015411612115,-0.201907377737086
1580421252.6792,-0.982192721446555,-0.113527122911421,-0.203860532539863
1580421252.6832,-0.979751277943084,-0.113527122911421,-0.199954222934309
1580421252.6872,-0.977798123140307,-0.11108567940795,-0.198001068131532
1580421252.6912,-0.983169298847944,-0.10424963759823,-0.198977645532921
1580421252.69519,-0.983169298847944,-0.103273060196841,-0.200442511635003
1580421252.69919,-0.983169298847944,-0.099855039291981,-0.209719996948195
1580421252.70319,-0.98268101014725,-0.106202792401007,-0.213138017853055
1580421252.70719,-0.977798123140307,-0.112550545510032,-0.202883955138475
1580421252.71119,-0.978286411841001,-0.116456855115587,-0.198977645532921
1580421252.71519,-0.98268101014725,-0.119874876020447,-0.195071335927366
1580421252.71919,-0.977798123140307,-0.122316319523918,-0.199954222934309
1580421252.72319,-0.980239566643778,-0.123781185626001,-0.198977645532921
1580421252.72719,-0.980727855344472,-0.117433432516975,-0.204348821240558
1580421252.73118,-0.982192721446555,-0.113527122911421,-0.196536202029449
1580421252.73518,-0.984145876249332,-0.114991989013504,-0.198977645532921
1580421252.73918,-0.983657587548638,-0.115968566414892,-0.200442511635003
1580421252.74318,-0.98609903105211,-0.113038834210727,-0.201907377737086
1580421252.74718,-0.984634164950027,-0.109132524605172,-0.206790264744029
1580421252.75118,-0.983657587548638,-0.10766765850309,-0.196047913328755
1580421252.75519,-0.984145876249332,-0.102784771496147,-0.201907377737086
1580421252.75919,-0.980239566643778,-0.105714503700312,-0.200442511635003
1580421252.76319,-0.987075608453498,-0.105714503700312,-0.196047913328755
1580421252.76718,-0.981704432745861,-0.105226214999618,-0.202883955138475
1580421252.77118,-0.982192721446555,-0.105714503700312,-0.199954222934309
1580421252.77518,-0.984634164950027,-0.101319905394064,-0.200442511635003
1580421252.77918,-0.981704432745861,-0.101319905394064,-0.207278553444723
1580421252.78318,-0.982192721446555,-0.102784771496147,-0.200930800335698
1580421252.78718,-0.984145876249332,-0.0983901731898982,-0.200930800335698
1580421252.79118,-0.985610742351415,-0.0993667505912867,-0.200442511635003
1580421252.79517,-0.979751277943084,-0.099855039291981,-0.201419089036392
1580421252.79917,-0.984145876249332,-0.099855039291981,-0.200442511635003
1580421252.80317,-0.985122453650721,-0.104737926298924,-0.201419089036392
1580421252.80717,-0.983169298847944,-0.10766765850309,-0.196536202029449
1580421252.81117,-0.983169298847944,-0.10424963759823,-0.201907377737086
1580421252.81517,-0.980727855344472,-0.106691081101701,-0.198489356832226
1580421252.81917,-0.984634164950027,-0.102784771496147,-0.197024490730143
1580421252.82317,-0.985610742351415,-0.0993667505912867,-0.198001068131532
1580421252.82716,-0.983657587548638,-0.101319905394064,-0.203372243839169
1580421252.83116,-0.98268101014725,-0.104737926298924,-0.198977645532921
1580421252.83514,-0.98609903105211,-0.113038834210727,-0.205813687342641
1580421252.83914,-0.983169298847944,-0.116945143816281,-0.202395666437781
1580421252.84314,-0.984634164950027,-0.122316319523918,-0.198489356832226
1580421252.84714,-0.981704432745861,-0.123781185626001,-0.197024490730143
1580421252.85114,-0.981216144045167,-0.123781185626001,-0.190676737621118
1580421252.85514,-0.981216144045167,-0.123781185626001,-0.198489356832226
1580421252.85914,-0.98268101014725,-0.129640650034332,-0.195071335927366
1580421252.86313,-0.985610742351415,-0.123781185626001,-0.199465934233615
1580421252.86713,-0.981704432745861,-0.12475776302739,-0.197024490730143
1580421252.87113,-0.981704432745861,-0.120851453421835,-0.201907377737086
1580421252.87513,-0.979751277943084,-0.119874876020447,-0.196047913328755
1580421252.87913,-0.980239566643778,-0.120363164721141,-0.200442511635003
1580421252.88313,-0.983169298847944,-0.12133974212253,-0.197024490730143
1580421252.88713,-0.981216144045167,-0.123781185626001,-0.197512779430838
1580421252.89113,-0.983657587548638,-0.120851453421835,-0.199954222934309
1580421252.89512,-0.983657587548638,-0.122804608224612,-0.193118181124589
1580421252.89912,-0.981216144045167,-0.118898298619058,-0.194583047226672
1580421252.90312,-0.978286411841001,-0.120363164721141,-0.198001068131532
1580421252.90712,-0.97926298924239,-0.119874876020447,-0.192141603723201
1580421252.91112,-0.979751277943084,-0.121828030823224,-0.193118181124589
1580421252.91513,-0.974868390936141,-0.120363164721141,-0.190676737621118
1580421252.91913,-0.976821545738918,-0.120363164721141,-0.191653315022506
1580421252.92313,-0.977798123140307,-0.119386587319752,-0.192141603723201
1580421252.92713,-0.974868390936141,-0.122316319523918,-0.186770428015564
1580421252.93112,-0.976821545738918,-0.130128938735027,-0.191653315022506
1580421252.93512,-0.976821545738918,-0.134523537041275,-0.187747005416952
1580421252.93912,-0.976333257038224,-0.138918135347524,-0.177004654001678
1580421252.94312,-0.97926298924239,-0.142824444953078,-0.179446097505149
1580421252.94712,-0.983657587548638,-0.149172198062104,-0.178957808804455
1580421252.95112,-0.982192721446555,-0.150637064164187,-0.181887541008621
1580421252.95512,-0.985122453650721,-0.149660486762798,-0.181399252307926
1580421252.95912,-0.987563897154192,-0.148683909361409,-0.186282139314869
1580421252.96311,-0.985122453650721,-0.142824444953078,-0.183840695811398
1580421252.96711,-0.98609903105211,-0.138429846646829,-0.187747005416952
1580421252.97111,-0.984634164950027,-0.129640650034332,-0.186282139314869
1580421252.97511,-0.980239566643778,-0.126222629129472,-0.184817273212786
1580421252.97911,-0.97926298924239,-0.120363164721141,-0.186770428015564
1580421252.98311,-0.981216144045167,-0.113038834210727,-0.188723582818341
1580421252.98711,-0.981704432745861,-0.105226214999618,-0.182864118410009
1580421252.99111,-0.984145876249332,-0.0935072861829553,-0.190676737621118
1580421252.99509,-0.980727855344472,-0.0817883573662925,-0.190188448920424
1580421252.99908,-0.984634164950027,-0.0754406042572668,-0.196047913328755
1580421253.00308,-0.989028763256275,-0.0725108720531011,-0.202395666437781
1580421253.00708,-0.990005340657664,-0.0734874494544897,-0.205325398641946
1580421253.01108,-0.991958495460441,-0.077393759060044,-0.204837109941252
1580421253.01508,-0.987563897154192,-0.0856946669718468,-0.206790264744029
1580421253.01908,-0.98951705195697,-0.0856946669718468,-0.197024490730143
1580421253.02308,-0.989028763256275,-0.0974135957885096,-0.197512779430838
1580421253.02708,-0.990005340657664,-0.103273060196841,-0.201907377737086
1580421253.03108,-0.986587319752804,-0.102784771496147,-0.196047913328755
1580421253.03507,-0.988052185854887,-0.10424963759823,-0.198977645532921
1580421253.03907,-0.987563897154192,-0.10766765850309,-0.197512779430838
1580421253.04307,-0.98951705195697,-0.108644235904478,-0.194583047226672
1580421253.04707,-0.98609903105211,-0.10424963759823,-0.194094758525978
1580421253.05107,-0.990005340657664,-0.0983901731898982,-0.200930800335698
1580421253.05507,-0.987075608453498,-0.0910658426794839,-0.197024490730143
1580421253.05907,-0.988540474555581,-0.0822766460669868,-0.203372243839169
1580421253.06306,-0.994399938963912,-0.0754406042572668,-0.212649729152361
1580421253.06706,-0.994888227664607,-0.073975738155184,-0.216556038757915
1580421253.07106,-0.993911650263218,-0.0793469138628211,-0.212649729152361
1580421253.07507,-0.98951705195697,-0.0915541313801782,-0.204348821240558
1580421253.07907,-0.990981918059052,-0.0993667505912867,-0.208743419546806
1580421253.08307,-0.98609903105211,-0.0983901731898982,-0.201907377737086
1580421253.08707,-0.988052185854887,-0.10083161669337,-0.193606469825284
1580421253.09107,-0.985610742351415,-0.0959487296864268,-0.191653315022506
1580421253.09507,-0.984145876249332,-0.0944838635843439,-0.192629892423895
1580421253.09906,-0.983169298847944,-0.0920424200808725,-0.189700160219729
1580421253.10306,-0.983169298847944,-0.0930189974822611,-0.194583047226672
1580421253.10706,-0.984634164950027,-0.0939955748836496,-0.190676737621118
1580421253.11106,-0.988540474555581,-0.0969253070878153,-0.187747005416952
1580421253.11506,-0.992446784161135,-0.105714503700312,-0.188723582818341
1580421253.11906,-0.991958495460441,-0.106202792401007,-0.183840695811398
1580421253.12306,-0.990493629358358,-0.106691081101701,-0.187747005416952
1580421253.12706,-0.990981918059052,-0.103761348897535,-0.183352407110704
1580421253.13105,-0.988540474555581,-0.0983901731898982,-0.179446097505149
1580421253.13505,-0.987075608453498,-0.0969253070878153,-0.175539787899595
1580421253.13905,-0.980727855344472,-0.0988784618905925,-0.173098344396124
1580421253.14305,-0.977798123140307,-0.096437018387121,-0.171145189593346
1580421253.14705,-0.980239566643778,-0.100343327992675,-0.174074921797512
1580421253.15105,-0.979751277943084,-0.108155947203784,-0.173098344396124
1580421253.155,-0.981704432745861,-0.109132524605172,-0.177004654001678
1580421253.159,-0.986587319752804,-0.111573968108644,-0.176516365300984
1580421253.163,-0.990005340657664,-0.110597390707255,-0.179446097505149
1580421253.16699,-0.989028763256275,-0.11450370031281,-0.181399252307926
1580421253.17099,-0.99293507286183,-0.112550545510032,-0.187747005416952
1580421253.17499,-0.990981918059052,-0.114991989013504,-0.183840695811398
1580421253.17899,-0.987563897154192,-0.115968566414892,-0.192141603723201
1580421253.18299,-0.984145876249332,-0.119874876020447,-0.192141603723201
1580421253.18699,-0.984634164950027,-0.118898298619058,-0.192629892423895
1580421253.19099,-0.976821545738918,-0.105714503700312,-0.196047913328755
1580421253.19499,-0.975356679636835,-0.096437018387121,-0.198977645532921
1580421253.19898,-0.977798123140307,-0.0944838635843439,-0.198001068131532
1580421253.20298,-0.980239566643778,-0.0988784618905925,-0.184328984512092
1580421253.20698,-0.983169298847944,-0.102784771496147,-0.173586633096818
1580421253.21098,-0.978286411841001,-0.112550545510032,-0.177981231403066
1580421253.21498,-0.980239566643778,-0.119386587319752,-0.184817273212786
1580421253.21898,-0.981704432745861,-0.125246051728084,-0.181887541008621
1580421253.22298,-0.987563897154192,-0.119386587319752,-0.178469520103761
1580421253.22698,-0.988540474555581,-0.113527122911421,-0.183352407110704
1580421253.23097,-0.988052185854887,-0.10766765850309,-0.178957808804455
1580421253.23498,-0.987563897154192,-0.0993667505912867,-0.183840695811398
1580421253.23898,-0.989028763256275,-0.0959487296864268,-0.189700160219729
1580421253.24298,-0.990493629358358,-0.0900892652780954,-0.184817273212786
1580421253.24698,-0.994888227664607,-0.0852063782711525,-0.181399252307926
1580421253.25098,-0.997817959868772,-0.0798352025635154,-0.184328984512092
1580421253.25498,-0.998306248569467,-0.0803234912642097,-0.189211871519035
1580421253.25898,-0.991470206759747,-0.0866712443732354,-0.197512779430838
1580421253.26298,-0.98609903105211,-0.0939955748836496,-0.199954222934309
1580421253.26697,-0.987075608453498,-0.10424963759823,-0.190676737621118
1580421253.27097,-0.986587319752804,-0.111573968108644,-0.185793850614175
1580421253.27497,-0.990005340657664,-0.11450370031281,-0.174074921797512
1580421253.27897,-0.991470206759747,-0.115968566414892,-0.176516365300984
1580421253.28297,-0.988052185854887,-0.119874876020447,-0.180910963607232
1580421253.28697,-0.988540474555581,-0.118898298619058,-0.186282139314869
1580421253.29097,-0.990493629358358,-0.114991989013504,-0.183840695811398
1580421253.29497,-0.994888227664607,-0.110597390707255,-0.181399252307926
1580421253.29896,-0.995376516365301,-0.106691081101701,-0.176516365300984
1580421253.30296,-0.994888227664607,-0.106691081101701,-0.171633478294041
1580421253.30696,-0.993423361562524,-0.104737926298924,-0.168215457389181
1580421253.31096,-0.995864805065995,-0.103761348897535,-0.171145189593346
1580421253.31497,-0.995864805065995,-0.103761348897535,-0.171633478294041
1580421253.31897,-0.994399938963912,-0.101808194094758,-0.172610055695429
1580421253.32297,-0.998794537270161,-0.0939955748836496,-0.171145189593346
1580421253.32697,-0.997329671168078,-0.0871595330739297,-0.176028076600289
1580421253.33097,-0.998306248569467,-0.0837415121690697,-0.170656900892652
1580421253.33496,-1.00074769207294,-0.0788586251621268,-0.165285725185015
1580421253.33896,-0.99635309376669,-0.0759288929579611,-0.167238879987792
1580421253.34296,-0.997817959868772,-0.0778820477607383,-0.166750591287098
1580421253.34696,-0.994399938963912,-0.0769054703593497,-0.164797436484321
1580421253.35096,-0.993911650263218,-0.0720225833524069,-0.164797436484321
1580421253.35496,-0.994399938963912,-0.0651865415426869,-0.160402838178072
1580421253.35896,-0.996841382467384,-0.0578622110322726,-0.161379415579461
1580421253.36296,-0.997329671168078,-0.0549324788281069,-0.161379415579461
1580421253.36696,-0.994888227664607,-0.0476081483176927,-0.168215457389181
1580421253.37095,-0.997817959868772,-0.0417486839093613,-0.172121766994735
1580421253.37495,-0.997329671168078,-0.041260395208667,-0.178469520103761
1580421253.37895,-1.00074769207294,-0.0383306630045013,-0.172610055695429
1580421253.38295,-1.00611886778058,-0.024170290684367,-0.160891126878766
1580421253.38695,-1.01686121919585,-0.00415045395590141,-0.149660486762798
1580421253.39095,-1.01734950789654,0.0100099183642328,-0.145754177157244
1580421253.39493,-1.01490806439307,0.01196307316701,-0.154543373769741
1580421253.39893,-1.01393148699168,-0.00512703135728998,-0.172121766994735
1580421253.40293,-1.01344319829099,-0.0251468680857556,-0.171145189593346
1580421253.40692,-1.01881437399863,-0.0456549935149155,-0.164309147783626
1580421253.41092,-1.02467383840696,-0.0583504997329669,-0.159426260776684
1580421253.41492,-1.03199816891737,-0.0632333867399097,-0.153566796368352
1580421253.41892,-1.03639276722362,-0.0715342946517126,-0.142336156252384
1580421253.42292,-1.04127565423056,-0.0764171816586554,-0.150148775463492
1580421253.42692,-1.0471351186389,-0.0822766460669868,-0.145265888456549
1580421253.43092,-1.05152971694514,-0.0915541313801782,-0.152590218966964
1580421253.43491,-1.05592431525139,-0.102784771496147,-0.147707331960021
1580421253.43891,-1.05397116044862,-0.118898298619058,-0.155519951171129
1580421253.44291,-1.06031891355764,-0.129152361333638,-0.155031662470435
1580421253.44691,-1.07838559548333,-0.136476691844052,-0.145265888456549
1580421253.45091,-1.09889372091249,-0.141359578850995,-0.149660486762798
1580421253.45491,-1.11744869153887,-0.151613641565575,-0.143801022354467
1580421253.45891,-1.13600366216525,-0.172121766994735,-0.133546959639887
1580421253.46291,-1.17018387121385,-0.196047913328755,-0.129640650034332
1580421253.4669,-1.22340733958953,-0.208255130846112,-0.119386587319752
1580421253.4709,-1.28004882887007,-0.202395666437781,-0.109132524605172
1580421253.47491,-1.31862363622492,-0.210208285648889,-0.128175783932249
1580421253.47891,-1.33424887464714,-0.2434119172961,-0.173586633096818
1580421253.48291,-1.34743266956588,-0.302494850080111,-0.238040741588463
1580421253.48691,-1.37380025940337,-0.342046234836348,-0.284428168154422
1580421253.49091,-1.40016784924086,-0.336186770428016,-0.321049820706493
1580421253.49491,-1.42507057297627,-0.289311055161365,-0.344487678339819
1580421253.49891,-1.43532463569085,-0.223880369268329,-0.349858854047456
1580421253.5029,-1.4309300373846,-0.161867704280155,-0.33667505912871
1580421253.5069,-1.41237506675822,-0.120851453421835,-0.318608377203022
1580421253.5109,-1.37770656900893,-0.113527122911421,-0.310307469291219
1580421253.5149,-1.33180743114366,-0.146730754558632,-0.316166933699551
1580421253.5189,-1.27663080796521,-0.211673151750972,-0.308842603189136
1580421253.5229,-1.21657129777981,-0.307377737087053,-0.314213778896773
1580421253.5269,-1.15602349889372,-0.416266117341879,-0.333745326924545
1580421253.5309,-1.1062180514229,-0.495857175555047,-0.367925535973145
1580421253.5349,-1.08229190508888,-0.520271610589761,-0.369390402075227
1580421253.53889,-1.072526131075,-0.487556267643244,-0.348393987945373
1580421253.54289,-1.05055313954376,-0.426520180056459,-0.320073243305105
1580421253.54689,-1.01783779659724,-0.362554360265507,-0.294682230869002
1580421253.55089,-0.993911650263218,-0.314213778896773,-0.278080415045396
1580421253.55487,-0.970473792629893,-0.256595712214848,-0.259525444419014
1580421253.55887,-0.956801709010453,-0.188235294117646,-0.231692988479438
1580421253.56287,-0.948012512397955,-0.103761348897535,-0.201907377737086
1580421253.56687,-0.935317006179904,-0.00659189745937283,-0.175539787899595
1580421253.57086,-0.916273746852827,0.0988784618905925,-0.167238879987792
1580421253.57486,-0.893324177920196,0.200930800335698,-0.152101930266269
1580421253.57886,-0.862073701075762,0.30493629358358,-0.129152361333638
1580421253.58286,-0.82203402761883,0.371831845578697,-0.106691081101701
1580421253.58686,-0.763439383535516,0.374761577782863,-0.123292896925307
1580421253.59086,-0.699961852445258,0.343511100938429,-0.174563210498206
1580421253.59486,-0.660898756389715,0.301029983978026,-0.219974059662775
1580421253.59886,-0.646738384069581,0.286869611657892,-0.243900205996795
1580421253.60285,-0.646250095368886,0.308842603189134,-0.260013733119708
1580421253.60685,-0.652597848477912,0.341069657434957,-0.263920042725262
1580421253.61085,-0.660898756389715,0.377203021286334,-0.252201113908599
1580421253.61485,-0.666269932097352,0.388433661402303,-0.243900205996795
1580421253.61885,-0.677988860914015,0.379156176089111,-0.235599298084992
1580421253.62285,-0.69117265583276,0.347417410543983,-0.220462348363469
1580421253.62685,-0.705821316853589,0.299565117875943,-0.198977645532921
1580421253.63085,-0.720958266575112,0.242435339894712,-0.188235294117646
1580421253.63486,-0.7390249485008,0.184328984512092,-0.169192034790569
1580421253.63886,-0.755138475623713,0.129640650034332,-0.152101930266269
1580421253.64285,-0.77418173495079,0.0803234912642097,-0.150148775463492
1580421253.64685,-0.786388952468148,0.0354009308003356,-0.158449683375295
1580421253.65085,-0.796154726482033,0.00219729915312428,-0.160402838178072
1580421253.65485,-0.805920500495919,-0.0227054245822842,-0.162844281681544
1580421253.65885,-0.816174563210499,-0.0427252613107498,-0.165774013885709
1580421253.66285,-0.821057450217442,-0.0627450980392155,-0.161379415579461
1580421253.66685,-0.828381780727856,-0.0827649347676811,-0.156984817273212
1580421253.67085,-0.832776379034105,-0.108155947203784,-0.155519951171129
1580421253.67484,-0.845471885252156,-0.131593804837109,-0.139894712748912
1580421253.67884,-0.859143968871596,-0.160891126878766,-0.128175783932249
1580421253.68284,-0.871839475089647,-0.189211871519035,-0.119874876020447
1580421253.68684,-0.885999847409781,-0.214114595254443,-0.117433432516975
1580421253.69084,-0.898695353627833,-0.23999389639124,-0.115480277714198
1580421253.69484,-0.913344014648661,-0.262455176623179,-0.116456855115587
1580421253.69884,-0.923598077363241,-0.276127260242619,-0.122804608224612
1580421253.70284,-0.938735027084764,-0.284428168154422,-0.123781185626001
1580421253.70683,-0.948012512397955,-0.282963302052339,-0.131105516136415
1580421253.71083,-0.955825131609064,-0.274662394140536,-0.145265888456549
1580421253.71481,-0.969497215228504,-0.263431754024568,-0.165285725185015
1580421253.71881,-0.98268101014725,-0.255130846112765,-0.184328984512092
1580421253.72281,-1.00270084687572,-0.244388494697489,-0.199954222934309
1580421253.72681,-1.02174410620279,-0.233646143282215,-0.217532616159303
1580421253.73081,-1.04469367513542,-0.222903791866941,-0.227298390173189
1580421253.73481,-1.06569008926528,-0.208743419546806,-0.239017318989852
1580421253.7388,-1.08278019378958,-0.196047913328755,-0.242435339894712
1580421253.7428,-1.08131532768749,-0.181887541008621,-0.252201113908599
1580421253.7468,-1.08131532768749,-0.165285725185015,-0.252689402609294
1580421253.7508,-1.07692072938125,-0.150637064164187,-0.264408331425956
1580421253.7548,-1.07399099717708,-0.135988403143358,-0.266849774929428
1580421253.7588,-1.06764324406805,-0.127687495231555,-0.274174105439842
1580421253.7628,-1.06959639887083,-0.123292896925307,-0.272709239337759
1580421253.7668,-1.07496757457847,-0.123781185626001,-0.274662394140536
1580421253.77079,-1.08570992599374,-0.122804608224612,-0.275638971541925
1580421253.77479,-1.09938200961318,-0.133546959639887,-0.277592126344702
1580421253.77879,-1.11061264972915,-0.148683909361409,-0.272709239337759
1580421253.78279,-1.12819104295415,-0.175051499198901,-0.265384908827345
1580421253.78679,-1.14332799267567,-0.213138017853055,-0.253177691309988
1580421253.79079,-1.15016403448539,-0.251224536507211,-0.247806515602349
1580421253.79483,-1.15504692149233,-0.306889448386359,-0.238040741588463
1580421253.79883,-1.15504692149233,-0.363530937666896,-0.230716411078049
1580421253.80283,-1.15553521019303,-0.422613870450904,-0.233646143282215
1580421253.80683,-1.15162890058747,-0.47681391622797,-0.221927214465552
1580421253.81082,-1.14332799267567,-0.523689631494621,-0.208255130846112
1580421253.81482,-1.13844510566873,-0.551522087434195,-0.203372243839169
1580421253.81882,-1.13551537346456,-0.571053635461967,-0.196536202029449
1580421253.82282,-1.13356221866178,-0.570077058060578,-0.188723582818341
1580421253.82682,-1.13551537346456,-0.558358129243915,-0.193118181124589
1580421253.83082,-1.13405050736248,-0.535896849011978,-0.183840695811398
1580421253.83482,-1.13063248645762,-0.506599526970321,-0.183840695811398
1580421253.83882,-1.1237964446479,-0.477302204928664,-0.175539787899595
1580421253.84281,-1.11403067063401,-0.44263370717937,-0.159426260776684
1580421253.84681,-1.0979171435111,-0.416266117341879,-0.163332570382238
1580421253.85081,-1.07008468757153,-0.404058899824522,-0.182864118410009
1580421253.85481,-1.04078736552987,-0.401129167620356,-0.251224536507211
1580421253.85881,-1.03981078812848,-0.387457084000916,-0.228763256275272
1580421253.86281,-1.05348287174792,-0.369390402075227,-0.157961394674601
1580421253.86681,-1.05152971694514,-0.373785000381476,-0.113038834210727
1580421253.87081,-1.0471351186389,-0.431403067063401,-0.0993667505912867
1580421253.87479,-1.05787747005417,-0.501228351262684,-0.0627450980392155
1580421253.87878,-1.07008468757153,-0.536385137712672,-0.0046387426565957
1580421253.88278,-1.06178377965972,-0.549080643930724,0.00219729915312428
1580421253.88678,-1.03541618982223,-0.54175631342031,-0.0285648889906156
1580421253.89078,-0.999282825970855,-0.530037384603647,-0.0554207675288012
1580421253.89478,-0.967544060425727,-0.501716639963378,-0.0588387884336612
1580421253.89878,-0.936293583581293,-0.465094987411307,-0.0598153658350498
1580421253.90278,-0.917250324254216,-0.437262531471733,-0.0642099641412983
1580421253.90678,-0.907972838941024,-0.414801251239796,-0.0490730144197755
1580421253.91077,-0.912367437247273,-0.394293125810636,-0.0334477759975584
1580421253.91477,-0.928480964370184,-0.380621042191196,-0.0163576714732585
1580421253.91877,-0.942153047989624,-0.367925535973145,-0.00317387655451284
1580421253.92277,-0.953383688105593,-0.362066071564813,-0.000732433051041426
1580421253.92677,-0.964614328221561,-0.354253452353705,-0.00268558785381856
1580421253.93077,-0.969497215228504,-0.345952544441902,-0.00415045395590141
1580421253.93477,-0.975356679636835,-0.339604791332876,-0.00903334096284425
1580421253.93877,-0.978286411841001,-0.337163347829405,-0.0183108262760356
1580421253.94276,-0.978774700541695,-0.34009308003357,-0.0388189517051956
1580421253.94676,-0.978286411841001,-0.344975967040513,-0.0612802319371326
1580421253.95076,-0.971450370031281,-0.354741741054399,-0.0832532234683754
1580421253.95477,-0.963637750820173,-0.362554360265507,-0.0876478217746239
1580421253.95877,-0.952895399404898,-0.371343556878005,-0.099855039291981
1580421253.96277,-0.94508278019379,-0.38110933089189,-0.0974135957885096
1580421253.96677,-0.933363851377127,-0.403082322423133,-0.10083161669337
1580421253.97077,-0.921644922560464,-0.433844510566873,-0.099855039291981
1580421253.97477,-0.919691767757687,-0.469001297016861,-0.0939955748836496
1580421253.97877,-0.912855725947967,-0.517341878385595,-0.096437018387121
1580421253.98276,-0.906996261539636,-0.569588769359884,-0.110109102006561
1580421253.98676,-0.896253910124361,-0.618417639429312,-0.129640650034332
1580421253.99076,-0.878675516899367,-0.661875333791103,-0.156496528572518
1580421253.99476,-0.860608834973679,-0.692637521934843,-0.229251544975966
1580421253.99876,-0.838147554741742,-0.67750057221332,-0.363042648966202
1580421254.00276,-0.864026855878539,-0.502204928664073,-0.468024719615473
1580421254.00676,-0.932875562676433,-0.141847867551689,-0.462165255207141
1580421254.01075,-0.994399938963912,0.230228122377355,-0.334233615625239
1580421254.01475,-1.06031891355764,0.496345464255739,-0.164309147783626
1580421254.01875,-1.09938200961318,0.583260852979326,-0.117433432516975
1580421254.02275,-1.10768291752499,0.487067978942548,-0.145754177157244
1580421254.02675,-1.10280003051804,0.283939879453726,-0.235111009384298
1580421254.03075,-1.1062180514229,0.0969253070878153,-0.307866025787748
1580421254.03473,-1.14869916838331,0.00854505226214997,-0.307377737087053
1580421254.03873,-1.21022354467079,-0.0178225375753414,-0.266849774929428
1580421254.04273,-1.24733348592355,-0.041260395208667,-0.223880369268329
1580421254.04673,-1.25465781643397,-0.103761348897535,-0.181887541008621
1580421254.05072,-1.22731364919509,-0.184328984512092,-0.190676737621118
1580421254.05472,-1.18239108873121,-0.261478599221791,-0.253665980010682
1580421254.05872,-1.14235141527428,-0.286381322957199,-0.309819180590525
1580421254.06272,-1.11744869153887,-0.255130846112765,-0.331792172121768
1580421254.06672,-1.09889372091249,-0.190676737621118,-0.310795757991913
1580421254.07072,-1.08229190508888,-0.131593804837109,-0.271244373235676
1580421254.07472,-1.06276035706111,-0.101319905394064,-0.233646143282215
1580421254.07871,-1.04567025253681,-0.106202792401007,-0.213626306553749
1580421254.08271,-1.02760357061112,-0.122804608224612,-0.214602883955138
1580421254.08671,-1.01441977569238,-0.131105516136415,-0.223880369268329
1580421254.09071,-1.01100175478752,-0.122316319523918,-0.218509193560692
1580421254.09471,-1.01002517738613,-0.103273060196841,-0.205813687342641
1580421254.09871,-0.99977111467155,-0.0793469138628211,-0.188235294117646
1580421254.10271,-0.988540474555581,-0.0627450980392155,-0.178957808804455
1580421254.10671,-0.979751277943084,-0.0515144579232469,-0.183840695811398
1580421254.1107,-0.974380102235447,-0.041260395208667,-0.188723582818341
1580421254.11468,-0.973403524834058,-0.0183108262760356,-0.206790264744029
1580421254.11868,-0.983169298847944,0.0075684748607614,-0.224368657969023
1580421254.12268,-0.988052185854887,0.0319829098954756,-0.23999389639124
1580421254.12668,-0.991958495460441,0.0476081483176927,-0.240970473792629
1580421254.13068,-0.98951705195697,0.0441901274128327,-0.237552452887769
1580421254.13468,-0.98609903105211,0.0222171358815899,-0.222415503166246
1580421254.13868,-0.987563897154192,-0.00415045395590141,-0.216067750057221
1580421254.14268,-0.98951705195697,-0.0148928053711757,-0.219974059662775
1580421254.14667,-0.988052185854887,-0.0173342488746471,-0.227298390173189
1580421254.15067,-0.983657587548638,-0.0222171358815899,-0.231204699778743
1580421254.15467,-0.978774700541695,-0.0300297550926985,-0.223392080567635
1580421254.15867,-0.968032349126421,-0.044678416113527,-0.221438925764858
1580421254.16267,-0.960708018616007,-0.0686045624475469,-0.222415503166246
1580421254.16667,-0.960219729915313,-0.10424963759823,-0.230716411078049
1580421254.17067,-0.957778286411841,-0.128175783932249,-0.245853360799572
1580421254.17467,-0.963149462119478,-0.148683909361409,-0.249271381704432
1580421254.17866,-0.966079194323644,-0.151613641565575,-0.224856946669718
1580421254.18266,-0.966079194323644,-0.151125352864881,-0.213626306553749
1580421254.18666,-0.961196307316701,-0.146730754558632,-0.218020904859998
1580421254.19066,-0.94850080109865,-0.152590218966964,-0.229739833676661
1580421254.19467,-0.942153047989624,-0.158449683375295,-0.237064164187075
1580421254.19867,-0.943129625391013,-0.158937972075989,-0.231204699778743
1580421254.20267,-0.952895399404898,-0.147219043259327,-0.225833524071106
1580421254.20667,-0.955825131609064,-0.129640650034332,-0.241458762493323
1580421254.21067,-0.956801709010453,-0.118898298619058,-0.287846189059282
1580421254.21466,-0.937758449683376,-0.110597390707255,-0.327885862516213
1580421254.21866,-0.928969253070878,-0.100343327992675,-0.321538109407188
1580421254.22266,-0.926527809567407,-0.0764171816586554,-0.294682230869002
1580421254.22666,-0.933852140077821,-0.0559090562294955,-0.257572289616236
1580421254.23066,-0.940688181887541,-0.048096437018387,-0.223392080567635
1580421254.23466,-0.946059357595178,-0.0559090562294955,-0.199954222934309
1580421254.23866,-0.954848554207675,-0.0690928511482412,-0.199954222934309
1580421254.24266,-0.960219729915313,-0.0847180895704582,-0.222415503166246
1580421254.24665,-0.968520637827115,-0.0949721522850382,-0.250736247806516
1580421254.25065,-0.964126039520867,-0.0983901731898982,-0.276615548943314
1580421254.25465,-0.964614328221561,-0.0856946669718468,-0.270267795834288
1580421254.25865,-0.967055771725033,-0.0695811398489354,-0.255130846112765
1580421254.26265,-0.973403524834058,-0.0661631189440754,-0.249271381704432
1580421254.26665,-0.974868390936141,-0.0725108720531011,-0.263920042725262
1580421254.27065,-0.975356679636835,-0.0891126878767068,-0.270756084534982
1580421254.27466,-0.98268101014725,-0.105226214999618,-0.271732661936371
1580421254.27866,-0.988540474555581,-0.113038834210727,-0.268314641031511
1580421254.28266,-0.990493629358358,-0.108155947203784,-0.262943465323874
1580421254.28665,-0.980727855344472,-0.102296482795452,-0.242923628595406
1580421254.29065,-0.96900892652781,-0.102296482795452,-0.229739833676661
1580421254.29465,-0.969985503929198,-0.115968566414892,-0.225345235370412
1580421254.29865,-0.974868390936141,-0.138429846646829,-0.236087586785686
1580421254.30265,-0.980239566643778,-0.145754177157244,-0.250247959105822
1580421254.30665,-0.980239566643778,-0.152590218966964,-0.278080415045396
1580421254.31065,-0.972915236133364,-0.153078507667658,-0.313237201495385
1580421254.31464,-0.967544060425727,-0.138918135347524,-0.314213778896773
1580421254.31864,-0.964126039520867,-0.117433432516975,-0.309819180590525
1580421254.32264,-0.966079194323644,-0.0959487296864268,-0.302494850080111
1580421254.32664,-0.968520637827115,-0.0886243991760125,-0.304936293583582
1580421254.33064,-0.973403524834058,-0.100343327992675,-0.306889448386359
1580421254.33464,-0.982192721446555,-0.120851453421835,-0.302983138780805
1580421254.33864,-0.989028763256275,-0.128175783932249,-0.296635385671779
1580421254.34264,-0.992446784161135,-0.119386587319752,-0.288822766460671
1580421254.34663,-0.98951705195697,-0.11450370031281,-0.282963302052339
1580421254.35063,-0.983657587548638,-0.112062256809338,-0.288334477759976
1580421254.35461,-0.978774700541695,-0.11792172121767,-0.300053406576639
1580421254.35861,-0.983169298847944,-0.126222629129472,-0.304448004882888
1580421254.36261,-0.990981918059052,-0.143312733653772,-0.310795757991913
1580421254.36661,-0.98951705195697,-0.158937972075989,-0.317143511100939
1580421254.37061,-0.990005340657664,-0.169680323491264,-0.322026398107882
1580421254.37461,-0.988052185854887,-0.177492942702372,-0.32642099641413
1580421254.37861,-0.972915236133364,-0.177004654001678,-0.323979552910659
1580421254.3826,-0.95875486381323,-0.180910963607232,-0.327885862516213
1580421254.3866,-0.945571068894484,-0.191165026321812,-0.335698481727322
1580421254.3906,-0.942153047989624,-0.204837109941252,-0.332280460822462
1580421254.3946,-0.947524223697261,-0.216067750057221,-0.324956130312048
1580421254.3986,-0.956801709010453,-0.218509193560692,-0.313725490196079
1580421254.4026,-0.966567483024338,-0.210696574349583,-0.321538109407188
1580421254.4066,-0.971450370031281,-0.214114595254443,-0.328374151216908
1580421254.4106,-0.977309834439613,-0.223880369268329,-0.337163347829405
1580421254.41459,-0.985122453650721,-0.239505607690546,-0.324467841611353
1580421254.41859,-0.993423361562524,-0.247318226901655,-0.317143511100939
1580421254.42259,-1.00025940337224,-0.254642557412071,-0.302983138780805
1580421254.42659,-1.00123598077363,-0.256107423514154,-0.302983138780805
1580421254.43059,-0.995864805065995,-0.260013733119708,-0.309819180590525
1580421254.4346,-0.984145876249332,-0.269291218432899,-0.314702067597468
1580421254.4386,-0.978286411841001,-0.279056992446785,-0.298588540474556
1580421254.4426,-0.972915236133364,-0.277103837644008,-0.284916456855116
1580421254.4466,-0.963149462119478,-0.282963302052339,-0.280033569848174
1580421254.45059,-0.964614328221561,-0.286381322957199,-0.274174105439842
1580421254.45459,-0.967544060425727,-0.289311055161365,-0.255130846112765
1580421254.45859,-0.966567483024338,-0.281010147249562,-0.233646143282215
1580421254.46259,-0.964126039520867,-0.273685816739148,-0.23315785458152
1580421254.46659,-0.96900892652781,-0.280521858548868,-0.236087586785686
1580421254.47059,-0.968520637827115,-0.296635385671779,-0.232669565880826
1580421254.47459,-0.975356679636835,-0.312748912794691,-0.23999389639124
1580421254.47859,-0.971938658731975,-0.337163347829405,-0.249759670405126
1580421254.48259,-0.968520637827115,-0.353276874952316,-0.252201113908599
1580421254.48658,-0.958266575112535,-0.354741741054399,-0.244876783398183
1580421254.49058,-0.945571068894484,-0.34351110093843,-0.221438925764858
1580421254.49458,-0.947524223697261,-0.323979552910659,-0.216556038757915
1580421254.49858,-0.954360265506981,-0.302006561379416,-0.212161440451666
1580421254.50258,-0.960708018616007,-0.291264209964142,-0.231204699778743
1580421254.50658,-0.956801709010453,-0.286869611657893,-0.256107423514154
1580421254.51058,-0.948989089799344,-0.284916456855116,-0.282963302052339
1580421254.51456,-0.94166475928893,-0.264896620126651,-0.294682230869002
1580421254.51855,-0.949965667200733,-0.238040741588463,-0.291752498664836
1580421254.52255,-0.952895399404898,-0.213626306553749,-0.295658808270391
1580421254.52655,-0.948989089799344,-0.222903791866941,-0.307866025787748
1580421254.53055,-0.95191882200351,-0.241947051194018,-0.298100251773862
1580421254.53455,-0.956801709010453,-0.237552452887769,-0.289799343862059
1580421254.53855,-0.947524223697261,-0.226810101472495,-0.316655222400245
1580421254.54255,-0.936293583581293,-0.217532616159303,-0.338628213931488
1580421254.54655,-0.928969253070878,-0.205813687342641,-0.356694895857176
1580421254.55054,-0.92115663385977,-0.197024490730143,-0.363530937666896
1580421254.55454,-0.916273746852827,-0.190676737621118,-0.344487678339819
1580421254.55854,-0.916762035553521,-0.185793850614175,-0.332280460822462
1580421254.56254,-0.917250324254216,-0.185305561913481,-0.331792172121768
1580421254.56654,-0.912855725947967,-0.187258716716258,-0.338139925230793
1580421254.57054,-0.903578240634776,-0.189211871519035,-0.341069657434959
1580421254.57454,-0.899671931029221,-0.193118181124589,-0.345464255741208
1580421254.57854,-0.90064850843061,-0.204348821240558,-0.345464255741208
1580421254.58254,-0.905043106736859,-0.211184863050278,-0.340581368734265
1580421254.58653,-0.912367437247273,-0.210208285648889,-0.327885862516213
1580421254.59053,-0.92115663385977,-0.201419089036392,-0.336186770428016
1580421254.59454,-0.922621499961853,-0.200930800335698,-0.340581368734265
1580421254.59854,-0.923109788662547,-0.204348821240558,-0.344975967040513
1580421254.60254,-0.927016098268101,-0.213138017853055,-0.344487678339819
1580421254.60654,-0.933363851377127,-0.216556038757915,-0.328862439917602
1580421254.61054,-0.946547646295873,-0.221927214465552,-0.32300297550927
1580421254.61454,-0.954848554207675,-0.225833524071106,-0.317631799801633
1580421254.61854,-0.956801709010453,-0.235111009384298,-0.312260624093996
1580421254.62253,-0.953383688105593,-0.23999389639124,-0.311772335393302
1580421254.62653,-0.950453955901427,-0.241458762493323,-0.307866025787748
1580421254.63053,-0.946059357595178,-0.244876783398183,-0.302006561379416
1580421254.63453,-0.940688181887541,-0.246341649500266,-0.309330891889831
1580421254.63853,-0.939711604486153,-0.248294804303043,-0.308842603189136
1580421254.64253,-0.932875562676433,-0.248783093003738,-0.307866025787748
1580421254.64653,-0.935805294880598,-0.243900205996795,-0.311772335393302
1580421254.65053,-0.93824673838407,-0.231204699778743,-0.308842603189136
1580421254.65452,-0.93141069657435,-0.217044327458609,-0.314702067597468
1580421254.65852,-0.930922407873656,-0.210208285648889,-0.320561532005799
1580421254.66252,-0.930922407873656,-0.204348821240558,-0.32300297550927
1580421254.66652,-0.937270160982681,-0.198489356832226,-0.320561532005799
1580421254.67052,-0.949477378500038,-0.183840695811398,-0.315190356298162
1580421254.6745,-0.953383688105593,-0.158937972075989,-0.324467841611353
1580421254.6785,-0.944594491493095,-0.149660486762798,-0.337651636530099
1580421254.6825,-0.93824673838407,-0.149172198062104,-0.33325703822385
1580421254.68649,-0.944594491493095,-0.148195620660715,-0.332768749523156
1580421254.69049,-0.950453955901427,-0.149172198062104,-0.32983901731899
1580421254.69449,-0.952407110704204,-0.145265888456549,-0.31958495460441
1580421254.69849,-0.948989089799344,-0.142824444953078,-0.316166933699551
1580421254.70249,-0.943129625391013,-0.140871290150301,-0.318608377203022
1580421254.70649,-0.932875562676433,-0.137941557946135,-0.320561532005799
1580421254.71049,-0.92799267566949,-0.134035248340581,-0.319096665903716
1580421254.71449,-0.930434119172961,-0.125734340428778,-0.334233615625239
1580421254.71848,-0.928969253070878,-0.115480277714198,-0.342534523537042
1580421254.72248,-0.926039520866713,-0.113038834210727,-0.348393987945373
1580421254.72648,-0.928480964370184,-0.112062256809338,-0.343999389639125
1580421254.73048,-0.930434119172961,-0.119386587319752,-0.344975967040513
1580421254.73448,-0.933852140077821,-0.128664072632944,-0.346440833142596
1580421254.73848,-0.939711604486153,-0.145265888456549,-0.343022812237736
1580421254.74248,-0.94850080109865,-0.157961394674601,-0.327397573815519
1580421254.74648,-0.953871976806287,-0.163820859082932,-0.323491264209965
1580421254.75048,-0.952407110704204,-0.183352407110704,-0.334721904325933
1580421254.75449,-0.950942244602121,-0.211673151750972,-0.32642099641413
1580421254.75848,-0.957778286411841,-0.233646143282215,-0.304448004882888
1580421254.76248,-0.972915236133364,-0.24682993820096,-0.285893034256505
1580421254.76648,-0.982192721446555,-0.252689402609294,-0.279056992446785
1580421254.77048,-0.981216144045167,-0.263920042725262,-0.284916456855116
1580421254.77448,-0.977309834439613,-0.272709239337759,-0.292729076066225
1580421254.77848,-0.973403524834058,-0.283939879453728,-0.289311055161365
1580421254.78248,-0.970473792629893,-0.281010147249562,-0.288334477759976
1580421254.78648,-0.972915236133364,-0.261478599221791,-0.279056992446785
1580421254.79047,-0.973891813534753,-0.230716411078049,-0.291264209964142
1580421254.79447,-0.968032349126421,-0.213138017853055,-0.303471427481499
1580421254.79847,-0.967544060425727,-0.200930800335698,-0.293217364766919
1580421254.80247,-0.971450370031281,-0.187258716716258,-0.299076829175251
1580421254.80647,-0.974380102235447,-0.171633478294041,-0.315190356298162
1580421254.81047,-0.967544060425727,-0.158449683375295,-0.315678644998856
1580421254.81447,-0.964126039520867,-0.146242465857938,-0.311284046692608
1580421254.81847,-0.959243152513924,-0.144777599755855,-0.325932707713436
1580421254.82246,-0.960708018616007,-0.152590218966964,-0.314702067597468
1580421254.82646,-0.966079194323644,-0.161379415579461,-0.302983138780805
1580421254.83046,-0.973403524834058,-0.176028076600289,-0.302983138780805
1580421254.83444,-0.975356679636835,-0.196047913328755,-0.291264209964142
1580421254.83844,-0.983657587548638,-0.215091172655832,-0.281986724650951
1580421254.84244,-0.985610742351415,-0.229739833676661,-0.281010147249562
1580421254.84644,-0.987563897154192,-0.238529030289158,-0.275638971541925
1580421254.85044,-0.989028763256275,-0.249271381704432,-0.283451590753033
1580421254.85444,-0.993423361562524,-0.257572289616236,-0.299565117875945
1580421254.85843,-0.997817959868772,-0.266849774929428,-0.305424582284276
1580421254.86243,-1.00270084687572,-0.268802929732205,-0.311284046692608
1580421254.86643,-1.0036774242771,-0.267826352330816,-0.311284046692608
1580421254.87043,-1.00318913557641,-0.274174105439842,-0.315190356298162
1580421254.87443,-1.00465400167849,-0.281986724650951,-0.320561532005799
1580421254.87843,-1.01002517738613,-0.289311055161365,-0.310307469291219
1580421254.88243,-1.01881437399863,-0.296147096971085,-0.315678644998856
1580421254.88643,-1.0207675288014,-0.305424582284276,-0.306401159685665
1580421254.89042,-1.01490806439307,-0.323491264209965,-0.304448004882888
1580421254.89442,-1.01637293049516,-0.32983901731899,-0.299565117875945
1580421254.89842,-1.01441977569238,-0.337651636530099,-0.286869611657893
1580421254.90242,-1.01979095140002,-0.336186770428016,-0.281498435950256
1580421254.90642,-1.01930266269932,-0.337651636530099,-0.275150682841231
1580421254.91042,-1.02858014801251,-0.334233615625239,-0.275638971541925
1580421254.91443,-1.03981078812848,-0.335210193026628,-0.275150682841231
1580421254.91843,-1.04518196383612,-0.331303883421073,-0.277592126344702
1580421254.92243,-1.04469367513542,-0.323491264209965,-0.280521858548868
1580421254.92642,-1.04908827344167,-0.310307469291219,-0.275150682841231
1580421254.93042,-1.04957656214237,-0.296147096971085,-0.264896620126651
1580421254.93442,-1.05494773785,-0.283939879453728,-0.263431754024568
1580421254.93842,-1.05690089265278,-0.267826352330816,-0.264408331425956
1580421254.94242,-1.05494773785,-0.266361486228734,-0.265873197528039
1580421254.94642,-1.04859998474098,-0.285893034256505,-0.271732661936371
1580421254.95042,-1.04225223163195,-0.304936293583582,-0.271732661936371
1580421254.95442,-1.03932249942779,-0.323491264209965,-0.261966887922485
1580421254.95842,-1.03981078812848,-0.324956130312048,-0.232669565880826
1580421254.96241,-1.04371709773404,-0.317143511100939,-0.235111009384298
1580421254.96641,-1.03443961242084,-0.309330891889831,-0.24682993820096
1580421254.97041,-1.02565041580835,-0.311284046692608,-0.257572289616236
1580421254.97441,-1.02516212710765,-0.319096665903716,-0.256107423514154
1580421254.97841,-1.03248645761807,-0.326909285114825,-0.259037155718319
1580421254.98241,-1.03346303501946,-0.335698481727322,-0.256107423514154
1580421254.98641,-1.03150988021668,-0.345952544441902,-0.260990310521096
1580421254.9904,-1.02369726100557,-0.350835431448845,-0.281010147249562
1580421254.99438,-1.01344319829099,-0.362066071564813,-0.298588540474556
1580421254.99838,-1.00758373388266,-0.366948958571756,-0.310795757991913
1580421255.00238,-1.0124666208896,-0.35376516365301,-0.318608377203022
1580421255.00638,-1.02174410620279,-0.323979552910659,-0.312748912794691
1580421255.01038,-1.03053330281529,-0.285893034256505,-0.305912870984971
1580421255.01438,-1.03395132372015,-0.270756084534982,-0.313237201495385
1580421255.01838,-1.04029907682918,-0.286381322957199,-0.294193942168308
1580421255.02238,-1.04859998474098,-0.316655222400245,-0.269779507133594
1580421255.02637,-1.05104142824445,-0.353276874952316,-0.246341649500266
1580421255.03037,-1.06910811017014,-0.373785000381476,-0.213138017853055
1580421255.03437,-1.08473334859235,-0.374761577782865,-0.200442511635003
1580421255.03837,-1.08815136949721,-0.375738155184253,-0.208255130846112
1580421255.04237,-1.07594415197986,-0.38794537270161,-0.217044327458609
1580421255.04637,-1.0554360265507,-0.408941786831464,-0.230716411078049
1580421255.05037,-1.03102159151598,-0.429449912260624,-0.228274967574578
1580421255.05437,-1.01393148699168,-0.444586861982147,-0.228274967574578
1580421255.05836,-0.993911650263218,-0.45288776989395,-0.221438925764858
1580421255.06236,-0.983169298847944,-0.448493171587701,-0.205813687342641
1580421255.06636,-0.984145876249332,-0.430914778362707,-0.194094758525978
1580421255.07036,-0.971938658731975,-0.41870756084535,-0.217044327458609
1580421255.07437,-0.94508278019379,-0.429938200961319,-0.228274967574578
1580421255.07837,-0.939711604486153,-0.455817502098116,-0.214602883955138
1580421255.08237,-0.956801709010453,-0.475349050125887,-0.190188448920424
1580421255.08637,-0.986587319752804,-0.479255359731441,-0.178469520103761
1580421255.09037,-1.0036774242771,-0.477790493629358,-0.192629892423895
1580421255.09436,-1.01637293049516,-0.478767071030747,-0.204837109941252
1580421255.09836,-1.0295567254139,-0.47681391622797,-0.194583047226672
1580421255.10236,-1.04420538643473,-0.471442740520333,-0.191653315022506
1580421255.10636,-1.05006485084306,-0.460700389105059,-0.201419089036392
1580421255.11036,-1.05738918135348,-0.455817502098116,-0.210208285648889
1580421255.11436,-1.05885404745556,-0.458258945601587,-0.220462348363469
1580421255.11836,-1.06861982146944,-0.457282368200199,-0.226321812771801
1580421255.12236,-1.08326848249027,-0.455329213397421,-0.220950637064163
1580421255.12635,-1.10328831921874,-0.446540016784924,-0.207766842145418
1580421255.13035,-1.11696040283818,-0.429449912260624,-0.188235294117646
1580421255.13435,-1.13405050736248,-0.420172426947433,-0.181887541008621
1580421255.13835,-1.13698023956664,-0.412848096437019,-0.189211871519035
1580421255.14235,-1.13356221866178,-0.416754406042573,-0.207278553444723
1580421255.14635,-1.1320973525597,-0.418219272144656,-0.215091172655832
1580421255.15035,-1.12916762035553,-0.409430075532159,-0.220950637064163
1580421255.15433,-1.12770275425345,-0.395269703212024,-0.226810101472495
1580421255.15833,-1.1233081559472,-0.383062485694667,-0.240970473792629
1580421255.16232,-1.11158922713054,-0.370366979476616,-0.248294804303043
1580421255.16632,-1.10133516441596,-0.362554360265507,-0.249271381704432
1580421255.17032,-1.0891279468986,-0.36060120546273,-0.248783093003738
1580421255.17432,-1.07008468757153,-0.361577782864119,-0.241947051194018
1580421255.17832,-1.05250629434653,-0.372320134279393,-0.237552452887769
1580421255.18232,-1.03297474631876,-0.390875104905776,-0.233646143282215
1580421255.18632,-1.01100175478752,-0.415777828641184,-0.228763256275272
1580421255.19032,-0.982192721446555,-0.445563439383536,-0.223880369268329
1580421255.19431,-0.950942244602121,-0.479255359731441,-0.215091172655832
1580421255.19831,-0.916273746852827,-0.519295033188373,-0.207278553444723
1580421255.20231,-0.873792629892424,-0.566659037155718,-0.185793850614175
1580421255.20631,-0.831799801632716,-0.645273517967498,-0.201419089036392
1580421255.21031,-0.800061036087587,-0.740489814602883,-0.23999389639124
1580421255.21431,-0.77076371404593,-0.83228809033341,-0.253665980010682
1580421255.21831,-0.740489814602883,-0.901136797131304,-0.260013733119708
1580421255.22231,-0.722911421377889,-0.896253910124361,-0.278568703746091
1580421255.22631,-0.715587090867475,-0.795666437781339,-0.285404745555811
1580421255.2303,-0.708751049057755,-0.608651865415426,-0.264896620126651
1580421255.23431,-0.702891584649423,-0.352300297550928,-0.227786678873883
1580421255.23831,-0.677012283512626,-0.0852063782711525,-0.164309147783626
1580421255.24231,-0.621347371633478,0.0983901731898982,-0.168703746089875
1580421255.24631,-0.562752727550164,0.170168612191958,-0.236087586785686
1580421255.25031,-0.521736476691844,0.196047913328755,-0.283939879453728
1580421255.25431,-0.502693217364767,0.229739833676661,-0.295170519569696
1580421255.25831,-0.503181506065461,0.265384908827343,-0.271732661936371
1580421255.26231,-0.519295033188373,0.290775921263446,-0.196536202029449
1580421255.2663,-0.540779736018921,0.310307469291217,-0.112062256809338
1580421255.2703,-0.552498664835584,0.317143511100937,-0.0822766460669868
1580421255.2743,-0.547127489127947,0.285893034256503,-0.0944838635843439
1580421255.2783,-0.53492027161059,0.216556038757915,-0.122316319523918
1580421255.2823,-0.516853589684901,0.122316319523918,-0.165285725185015
1580421255.2863,-0.494880598153658,0.0305180437933927,-0.194094758525978
1580421255.2903,-0.47681391622797,-0.0490730144197755,-0.200930800335698
1580421255.29429,-0.458747234302281,-0.115968566414892,-0.186282139314869
1580421255.29829,-0.441657129777981,-0.162844281681544,-0.178469520103761
1580421255.30229,-0.432867933165484,-0.192629892423895,-0.165774013885709
1580421255.30629,-0.434332799267567,-0.203860532539863,-0.158449683375295
1580421255.31029,-0.44263370717937,-0.192629892423895,-0.160402838178072
1580421255.31427,-0.454840924696727,-0.157473105973907,-0.158449683375295
1580421255.31827,-0.47339589532311,-0.110597390707255,-0.155519951171129
1580421255.32227,-0.495857175555047,-0.0573739223315783,-0.146242465857938
1580421255.32627,-0.516853589684901,-0.00854505226214997,-0.134035248340581
1580421255.33027,-0.537850003814755,0.0329594872968642,-0.123292896925307
1580421255.33426,-0.557869840543221,0.0549324788281069,-0.109132524605172
1580421255.33826,-0.580819409475852,0.0612802319371326,-0.10083161669337
1580421255.34226,-0.604257267109178,0.044678416113527,-0.0891126878767068
1580421255.34626,-0.631601434348058,0.00561532005798426,-0.0842298008697639
1580421255.35026,-0.657480735484855,-0.0544441901274126,-0.0754406042572668
1580421255.35426,-0.683360036621652,-0.119386587319752,-0.0798352025635154
1580421255.35826,-0.717051956969557,-0.180910963607232,-0.0764171816586554
1580421255.36225,-0.748790722514686,-0.237552452887769,-0.0769054703593497
1580421255.36625,-0.782482642862593,-0.279056992446785,-0.0813000686655982
1580421255.37025,-0.81177996490425,-0.308842603189136,-0.0842298008697639
1580421255.37425,-0.835217822537576,-0.327885862516213,-0.0886243991760125
1580421255.37825,-0.851819638361182,-0.338628213931488,-0.100343327992675
1580421255.38225,-0.867933165484093,-0.339116502632182,-0.112062256809338
1580421255.38625,-0.875745784695201,-0.33325703822385,-0.137453269245441
1580421255.39025,-0.88355840390631,-0.32642099641413,-0.149660486762798
1580421255.39426,-0.900160219729916,-0.319096665903716,-0.169192034790569
1580421255.39825,-0.914808880750744,-0.308842603189136,-0.172610055695429
1580421255.40225,-0.944106202792401,-0.306889448386359,-0.177981231403066
1580421255.40625,-0.971450370031281,-0.308842603189136,-0.185793850614175
1580421255.41025,-1.00709544518196,-0.323979552910659,-0.194583047226672
1580421255.41425,-1.04567025253681,-0.34009308003357,-0.207766842145418
1580421255.41825,-1.08619821469444,-0.36060120546273,-0.218509193560692
1580421255.42225,-1.12623788815137,-0.380132753490502,-0.222903791866941
1580421255.42625,-1.16481269550622,-0.400640878919662,-0.224856946669718
1580421255.43024,-1.20241092545968,-0.413336385137713,-0.223392080567635
1580421255.43424,-1.23366140230411,-0.407965209430076,-0.226321812771801
1580421255.43824,-1.2522163729305,-0.390386816205082,-0.236087586785686
1580421255.44224,-1.26686503395132,-0.363042648966202,-0.239017318989852
1580421255.44624,-1.2771190966659,-0.336186770428016,-0.2434119172961
1580421255.45024,-1.28542000457771,-0.308842603189136,-0.249271381704432
1580421255.45424,-1.30202182040131,-0.288822766460671,-0.247806515602349
1580421255.45824,-1.32594796673533,-0.275638971541925,-0.2434119172961
1580421255.46223,-1.35329213397421,-0.278080415045396,-0.248783093003738
1580421255.46623,-1.38405432211795,-0.295658808270391,-0.247806515602349
1580421255.47023,-1.41042191195544,-0.320073243305105,-0.248783093003738
1580421255.47421,-1.43581292439155,-0.354253452353705,-0.244388494697489
1580421255.47821,-1.44997329671168,-0.385503929198139,-0.249271381704432
1580421255.48221,-1.45827420462348,-0.410894941634242,-0.256107423514154
1580421255.48621,-1.45973907072557,-0.434332799267567,-0.265384908827345
1580421255.49021,-1.45339131761654,-0.454840924696727,-0.283451590753033
1580421255.49421,-1.44753185320821,-0.469001297016861,-0.297611963073168
1580421255.4982,-1.44362554360266,-0.478767071030747,-0.297123674372473
1580421255.5022,-1.43630121309224,-0.48706797894255,-0.304448004882888
1580421255.5062,-1.43434805828946,-0.494392309452964,-0.300053406576639
1580421255.5102,-1.4314183260853,-0.511482413977264,-0.291264209964142
1580421255.5142,-1.42848859388113,-0.54175631342031,-0.283939879453728
1580421255.5182,-1.4314183260853,-0.588143739986267,-0.270267795834288
1580421255.5222,-1.43190661478599,-0.636972610055695,-0.253665980010682
1580421255.5262,-1.42702372777905,-0.685801480125123,-0.239505607690546
1580421255.53019,-1.41725795376516,-0.720958266575112,-0.229739833676661
1580421255.53419,-1.39479667353323,-0.74244296940566,-0.226321812771801
1580421255.53819,-1.35573357747768,-0.751232166018159,-0.235599298084992
1580421255.54219,-1.32350652323186,-0.748302433813992,-0.242435339894712
1580421255.54619,-1.28444342717632,-0.737560082398717,-0.262943465323874
1580421255.55019,-1.25026321812772,-0.71509880216678,-0.280521858548868
1580421255.5542,-1.21950102998398,-0.692149233234149,-0.295658808270391
1580421255.5582,-1.19752803845273,-0.669687953002212,-0.308354314488442
1580421255.5622,-1.1750667582208,-0.652597848477912,-0.315678644998856
1580421255.5662,-1.15407034409094,-0.643808651865415,-0.318120088502328
1580421255.57019,-1.13551537346456,-0.637949187457084,-0.31958495460441
1580421255.57419,-1.1233081559472,-0.641367208361943,-0.320561532005799
1580421255.57819,-1.1150072480354,-0.644785229266803,-0.317143511100939
1580421255.58219,-1.11354238193332,-0.647714961470969,-0.329350728618296
1580421255.58619,-1.11012436102846,-0.638925764858472,-0.333745326924545
1580421255.59019,-1.1150072480354,-0.618417639429312,-0.337163347829405
1580421255.59419,-1.10817120622568,-0.581307698176547,-0.343999389639125
1580421255.59818,-1.09205767910277,-0.54175631342031,-0.349858854047456
1580421255.60218,-1.0642252231632,-0.498298619058518,-0.350835431448845
1580421255.60618,-1.04029907682918,-0.453376058594644,-0.352300297550928
1580421255.61018,-1.0129549095903,-0.414801251239796,-0.347417410543985
1580421255.61418,-0.986587319752804,-0.392828259708553,-0.35376516365301
1580421255.61818,-0.96559090562295,-0.38110933089189,-0.363530937666896
1580421255.62218,-0.943129625391013,-0.390875104905776,-0.368902113374533
1580421255.62618,-0.93141069657435,-0.410406652933547,-0.356206607156482
1580421255.63017,-0.919691767757687,-0.430426489662013,-0.337651636530099
1580421255.63416,-0.915297169451438,-0.455329213397421,-0.314702067597468
1580421255.63815,-0.912367437247273,-0.48706797894255,-0.294193942168308
1580421255.64215,-0.900160219729916,-0.528572518501564,-0.263920042725262
1580421255.64615,-0.896253910124361,-0.566659037155718,-0.245853360799572
1580421255.65015,-0.889906157015336,-0.596444647898069,-0.227786678873883
1580421255.65415,-0.884046692607004,-0.619394216830701,-0.212649729152361
1580421255.65815,-0.875257495994507,-0.631113145647364,-0.198001068131532
1580421255.66215,-0.877210650797284,-0.635019455252918,-0.179446097505149
1580421255.66614,-0.872816052491036,-0.621835660334172,-0.169680323491264
1580421255.67014,-0.867933165484093,-0.612558175020981,-0.159426260776684
1580421255.67414,-0.86988632028687,-0.589608606088349,-0.154055085069047
1580421255.67814,-0.867933165484093,-0.563241016250858,-0.162355992980849
1580421255.68214,-0.865980010681316,-0.542732890821698,-0.160891126878766
1580421255.68614,-0.868421454184787,-0.517341878385595,-0.156496528572518
1580421255.69014,-0.875257495994507,-0.498786907759213,-0.170656900892652
1580421255.69414,-0.881116960402839,-0.498298619058518,-0.186770428015564
1580421255.69813,-0.885023270008393,-0.50074006256199,-0.192141603723201
1580421255.70213,-0.892347600518807,-0.498298619058518,-0.191653315022506
1580421255.70613,-0.898207064927139,-0.487556267643244,-0.186770428015564
1580421255.71013,-0.901625085831999,-0.46655985351339,-0.190188448920424
1580421255.71414,-0.896253910124361,-0.439703974975204,-0.192141603723201
1580421255.71814,-0.890882734416724,-0.407476920729382,-0.177981231403066
1580421255.72214,-0.879163805600061,-0.373296711680782,-0.171633478294041
1580421255.72614,-0.86988632028687,-0.342534523537042,-0.163332570382238
1580421255.73014,-0.857679102769513,-0.322026398107882,-0.157473105973907
1580421255.73413,-0.854261081864653,-0.313725490196079,-0.143801022354467
1580421255.73813,-0.850843060959793,-0.316655222400245,-0.126222629129472
1580421255.74213,-0.845471885252156,-0.32300297550927,-0.118898298619058
1580421255.74613,-0.84254215304799,-0.341557946135653,-0.168703746089875
1580421255.75013,-0.86305027847715,-0.285404745555811,-0.282475013351645
1580421255.75413,-0.96900892652781,-0.123292896925307,-0.132082093537804
1580421255.75813,-1.01149004348821,-0.0905775539787896,-0.0793469138628211
1580421255.76213,-0.986587319752804,-0.163820859082932,-0.137453269245441
1580421255.76612,-1.06569008926528,-0.0969253070878153,-0.175539787899595
1580421255.77012,-1.23952086671244,0.190188448920424,0.0134279392690928
1580421255.77412,-1.36794079499504,0.524177920195317,0.209231708247501
1580421255.77812,-1.37917143511101,0.705821316853591,0.204837109941252
1580421255.78212,-1.27565423056382,0.668223086900131,0.0920424200808725
1580421255.78612,-1.11256580453193,0.489021133745325,-0.0529793240253298
1580421255.79012,-0.956313420309758,0.291752498664835,-0.215579461356526
1580421255.7941,-0.864026855878539,0.156984817273212,-0.33667505912871
1580421255.7981,-0.877210650797284,0.121828030823224,-0.359624628061342
1580421255.80209,-0.946547646295873,0.159426260776684,-0.302983138780805
1580421255.80609,-1.00709544518196,0.186770428015564,-0.202883955138475
1580421255.81009,-1.02858014801251,0.146730754558632,-0.122316319523918
1580421255.81409,-1.00123598077363,0.048096437018387,-0.106691081101701
1580421255.81809,-0.95875486381323,-0.0563973449301898,-0.176516365300984
1580421255.82209,-0.91432059205005,-0.121828030823224,-0.304448004882888
1580421255.82609,-0.902113374532693,-0.0979018844892039,-0.378667887388419
1580421255.83009,-0.94166475928893,0.01196307316701,-0.310307469291219
1580421255.83408,-1.03883421072709,0.145754177157244,-0.176028076600289
1580421255.83808,-1.12086671244373,0.141847867551689,-0.145754177157244
1580421255.84208,-1.18922713054093,0.0197756923781185,-0.175539787899595
1580421255.84608,-1.24000915541314,-0.111573968108644,-0.219485770962081
1580421255.85008,-1.2522163729305,-0.177492942702372,-0.302006561379416
1580421255.85408,-1.23073167009995,-0.185793850614175,-0.375738155184253
1580421255.85808,-1.2004577706569,-0.155519951171129,-0.377203021286336
1580421255.86208,-1.16823071641108,-0.137453269245441,-0.375249866483559
1580421255.86608,-1.14625772487983,-0.159914549477378,-0.349370565346762
1580421255.87007,-1.14576943617914,-0.200442511635003,-0.321049820706493
1580421255.87408,-1.16969558251316,-0.215579461356526,-0.248783093003738
1580421255.87808,-1.19069199664301,-0.205813687342641,-0.186282139314869
1580421255.88208,-1.19069199664301,-0.202395666437781,-0.164309147783626
1580421255.88608,-1.1750667582208,-0.202883955138475,-0.155031662470435
1580421255.89008,-1.14283970397497,-0.224368657969023,-0.161867704280155
1580421255.89408,-1.0979171435111,-0.264896620126651,-0.207766842145418
1580421255.89808,-1.04811169604028,-0.303471427481499,-0.249759670405126
1580421255.90207,-1.01588464179446,-0.314213778896773,-0.270267795834288
1580421255.90607,-1.0041657129778,-0.301518272678722,-0.276127260242619
1580421255.91007,-1.00221255817502,-0.270756084534982,-0.262455176623179
1580421255.91407,-1.01051346608682,-0.219974059662775,-0.226810101472495
1580421255.91807,-1.00856031128405,-0.173586633096818,-0.200930800335698
1580421255.92207,-0.992446784161135,-0.135500114442664,-0.188723582818341
1580421255.92607,-0.971938658731975,-0.122804608224612,-0.194583047226672
1580421255.93007,-0.948989089799344,-0.117433432516975,-0.196536202029449
1580421255.93406,-0.933852140077821,-0.120363164721141,-0.203372243839169
1580421255.93806,-0.92115663385977,-0.122804608224612,-0.216556038757915
1580421255.94206,-0.915297169451438,-0.118898298619058,-0.227786678873883
1580421255.94606,-0.91432059205005,-0.107179369802395,-0.236087586785686
1580421255.95006,-0.912367437247273,-0.0896009765774011,-0.240482185091935
1580421255.95404,-0.908461127641718,-0.0666514076447697,-0.239505607690546
1580421255.95804,-0.913344014648661,-0.0441901274128327,-0.230716411078049
1580421255.96204,-0.928480964370184,-0.0266117341878385,-0.215091172655832
1580421255.96604,-0.944594491493095,-0.0109864957656214,-0.199465934233615
1580421255.97003,-0.957289997711147,0.000732433051041426,-0.197512779430838
1580421255.97403,-0.971450370031281,-0.00219729915312428,-0.202883955138475
1580421255.97803,-0.97584496833753,-0.0178225375753414,-0.214602883955138
1580421255.98203,-0.968520637827115,-0.0432135500114441,-0.235111009384298
1580421255.98603,-0.964614328221561,-0.0715342946517126,-0.241947051194018
1580421255.99003,-0.962661173418784,-0.0954604409857325,-0.265873197528039
1580421255.99403,-0.969497215228504,-0.115968566414892,-0.285404745555811
1580421255.99803,-0.978286411841001,-0.124269474326695,-0.288822766460671
1580421256.00202,-0.998306248569467,-0.116945143816281,-0.276615548943314
1580421256.00602,-1.01637293049516,-0.0979018844892039,-0.270756084534982
1580421256.01002,-1.02467383840696,-0.077393759060044,-0.285404745555811
1580421256.01402,-1.0300450141146,-0.0568856336308841,-0.289799343862059
1580421256.01802,-1.02662699320974,-0.0397955291065841,-0.300541695277333
1580421256.02202,-1.01637293049516,-0.0280766002899213,-0.330815594720379
1580421256.02602,-0.991470206759747,-0.034424353398947,-0.346440833142596
1580421256.03002,-0.978286411841001,-0.0607919432364383,-0.311284046692608
1580421256.03403,-0.981704432745861,-0.0827649347676811,-0.296635385671779
1580421256.03802,-0.984145876249332,-0.0861829556725411,-0.319096665903716
1580421256.04202,-0.982192721446555,-0.0920424200808725,-0.339116502632182
1580421256.04602,-0.989028763256275,-0.0817883573662925,-0.32300297550927
1580421256.05002,-0.994399938963912,-0.0573739223315783,-0.311284046692608
1580421256.05402,-0.992446784161135,-0.0334477759975584,-0.314702067597468
1580421256.05802,-0.984145876249332,-0.0227054245822842,-0.334721904325933
1580421256.06202,-0.970962081330587,-0.0192874036774242,-0.331792172121768
1580421256.06602,-0.980727855344472,-0.0153810940718699,-0.317631799801633
1580421256.07002,-0.983169298847944,-0.00952162966353853,-0.314702067597468
1580421256.07401,-0.979751277943084,-0.00610360875867855,-0.306889448386359
1580421256.07801,-0.980239566643778,-0.0231937132829785,-0.300541695277333
1580421256.08201,-0.982192721446555,-0.0432135500114441,-0.304936293583582
1580421256.08601,-0.996841382467384,-0.0471198596169984,-0.287357900358588
1580421256.09001,-1.00953688868544,-0.0529793240253298,-0.274662394140536
1580421256.09401,-1.01149004348821,-0.070557717250324,-0.282475013351645
1580421256.09801,-1.00807202258335,-0.103761348897535,-0.283939879453728
1580421256.10201,-1.0041657129778,-0.143801022354467,-0.286869611657893
1580421256.106,-1.01002517738613,-0.175051499198901,-0.293705653467613
1580421256.11,-1.01686121919585,-0.190676737621118,-0.286869611657893
1580421256.11398,-1.01637293049516,-0.201419089036392,-0.263920042725262
1580421256.11798,-1.00856031128405,-0.203372243839169,-0.253177691309988
1580421256.12198,-0.99635309376669,-0.218997482261386,-0.259037155718319
1580421256.12598,-0.981704432745861,-0.234134431982909,-0.268314641031511
1580421256.12998,-0.973403524834058,-0.247318226901655,-0.254642557412071
1580421256.13398,-0.973891813534753,-0.245365072098878,-0.244876783398183
1580421256.13797,-0.974380102235447,-0.226321812771801,-0.239505607690546
1580421256.14197,-0.978774700541695,-0.197512779430838,-0.244876783398183
1580421256.14597,-0.969985503929198,-0.174563210498206,-0.259037155718319
1580421256.14997,-0.957778286411841,-0.158937972075989,-0.270267795834288
1580421256.15397,-0.952895399404898,-0.147219043259327,-0.271732661936371
1580421256.15797,-0.960708018616007,-0.132570382238498,-0.273685816739148
1580421256.16197,-0.966567483024338,-0.128664072632944,-0.280033569848174
1580421256.16597,-0.973891813534753,-0.122804608224612,-0.268314641031511
1580421256.16997,-0.983657587548638,-0.116456855115587,-0.253665980010682
1580421256.17396,-0.990005340657664,-0.103761348897535,-0.247318226901655
1580421256.17796,-0.988052185854887,-0.102784771496147,-0.247318226901655
1580421256.18196,-0.984634164950027,-0.111573968108644,-0.260502021820402
1580421256.18596,-0.976333257038224,-0.131105516136415,-0.272220950637065
1580421256.18996,-0.975356679636835,-0.153078507667658,-0.275150682841231
1580421256.19397,-0.976821545738918,-0.162355992980849,-0.265873197528039
1580421256.19797,-0.978774700541695,-0.170168612191958,-0.258548867017625
1580421256.20197,-0.969497215228504,-0.174074921797512,-0.259037155718319
1580421256.20597,-0.957778286411841,-0.180910963607232,-0.255619134813459
1580421256.20996,-0.953383688105593,-0.185793850614175,-0.256107423514154
1580421256.21396,-0.954360265506981,-0.193606469825284,-0.251712825207905
1580421256.21796,-0.955825131609064,-0.201419089036392,-0.247318226901655
1580421256.22196,-0.95875486381323,-0.213626306553749,-0.245365072098878
1580421256.22596,-0.962661173418784,-0.215579461356526,-0.243900205996795
1580421256.22996,-0.966079194323644,-0.214114595254443,-0.242923628595406
1580421256.23396,-0.967544060425727,-0.204837109941252,-0.245365072098878
1580421256.23796,-0.959243152513924,-0.197024490730143,-0.254642557412071
1580421256.24195,-0.956313420309758,-0.185793850614175,-0.262455176623179
1580421256.24595,-0.955825131609064,-0.169680323491264,-0.268314641031511
1580421256.24995,-0.960219729915313,-0.150148775463492,-0.267826352330816
1580421256.25395,-0.961196307316701,-0.128175783932249,-0.267826352330816
1580421256.25795,-0.960708018616007,-0.120851453421835,-0.272709239337759
1580421256.26195,-0.954848554207675,-0.120851453421835,-0.267826352330816
1580421256.26595,-0.957289997711147,-0.131593804837109,-0.253177691309988
1580421256.26995,-0.964126039520867,-0.142824444953078,-0.249271381704432
1580421256.27392,-0.964614328221561,-0.160402838178072,-0.243900205996795
1580421256.27792,-0.965102616922255,-0.181399252307926,-0.247318226901655
1580421256.28192,-0.96900892652781,-0.205813687342641,-0.253665980010682
1580421256.28592,-0.96559090562295,-0.213138017853055,-0.246341649500266
1580421256.28992,-0.959243152513924,-0.211184863050278,-0.242435339894712
1580421256.29392,-0.952407110704204,-0.198977645532921,-0.246341649500266
1580421256.29792,-0.943129625391013,-0.190676737621118,-0.249759670405126
1580421256.30192,-0.942153047989624,-0.182864118410009,-0.253665980010682
1580421256.30591,-0.946547646295873,-0.180422674906538,-0.256107423514154
1580421256.30991,-0.948012512397955,-0.181399252307926,-0.257084000915542
1580421256.31391,-0.956801709010453,-0.183352407110704,-0.257084000915542
1580421256.31791,-0.964614328221561,-0.194583047226672,-0.257084000915542
1580421256.32191,-0.972915236133364,-0.215579461356526,-0.269779507133594
1580421256.32591,-0.980239566643778,-0.238040741588463,-0.279056992446785
1580421256.32991,-0.989028763256275,-0.24682993820096,-0.277103837644008
1580421256.33391,-0.986587319752804,-0.251224536507211,-0.273685816739148
1580421256.33791,-0.977798123140307,-0.234134431982909,-0.280521858548868
1580421256.3419,-0.967544060425727,-0.220462348363469,-0.287846189059282
1580421256.3459,-0.956801709010453,-0.206790264744029,-0.293217364766919
1580421256.3499,-0.954360265506981,-0.196047913328755,-0.288822766460671
1580421256.35391,-0.953871976806287,-0.184817273212786,-0.284428168154422
1580421256.35791,-0.956801709010453,-0.187258716716258,-0.289311055161365
1580421256.36191,-0.960708018616007,-0.192141603723201,-0.287357900358588
1580421256.36591,-0.96559090562295,-0.196536202029449,-0.274174105439842
1580421256.36991,-0.968032349126421,-0.205813687342641,-0.277103837644008
1580421256.37391,-0.96900892652781,-0.219974059662775,-0.280521858548868
1580421256.3779,-0.970473792629893,-0.244876783398183,-0.268802929732205
1580421256.3819,-0.976821545738918,-0.260013733119708,-0.257084000915542
1580421256.3859,-0.97584496833753,-0.267338063630122,-0.239017318989852
1580421256.3899,-0.973891813534753,-0.256595712214848,-0.23999389639124
1580421256.3939,-0.970962081330587,-0.252201113908599,-0.248783093003738
1580421256.3979,-0.961196307316701,-0.250736247806516,-0.268802929732205
1580421256.4019,-0.957289997711147,-0.245365072098878,-0.269291218432899
1580421256.4059,-0.959731441214618,-0.235599298084992,-0.274174105439842
1580421256.40989,-0.960708018616007,-0.228763256275272,-0.281010147249562
1580421256.41389,-0.96900892652781,-0.227298390173189,-0.281498435950256
1580421256.41789,-0.974380102235447,-0.221438925764858,-0.282963302052339
1580421256.42189,-0.977798123140307,-0.226810101472495,-0.291264209964142
1580421256.42589,-0.979751277943084,-0.229251544975966,-0.302494850080111
1580421256.42989,-0.978286411841001,-0.231692988479438,-0.307866025787748
1580421256.43387,-0.97584496833753,-0.230228122377355,-0.313237201495385
1580421256.43787,-0.972915236133364,-0.224856946669718,-0.317143511100939
1580421256.44187,-0.968032349126421,-0.214114595254443,-0.321538109407188
1580421256.44586,-0.96559090562295,-0.199465934233615,-0.325444419012742
1580421256.44986,-0.953871976806287,-0.192141603723201,-0.34692912184329
1580421256.45386,-0.947524223697261,-0.182864118410009,-0.340581368734265
1580421256.45786,-0.946059357595178,-0.170656900892652,-0.330815594720379
1580421256.46186,-0.954848554207675,-0.163332570382238,-0.326909285114825
1580421256.46586,-0.961196307316701,-0.176516365300984,-0.324956130312048
1580421256.46986,-0.965102616922255,-0.200442511635003,-0.331303883421073
1580421256.47386,-0.967544060425727,-0.220462348363469,-0.337651636530099
1580421256.47785,-0.97242694743267,-0.227298390173189,-0.332280460822462
1580421256.48185,-0.977798123140307,-0.233646143282215,-0.320073243305105
1580421256.48585,-0.97926298924239,-0.245365072098878,-0.31958495460441
1580421256.48985,-0.97926298924239,-0.256107423514154,-0.308354314488442
1580421256.49385,-0.981704432745861,-0.260502021820402,-0.294682230869002
1580421256.49785,-0.98268101014725,-0.257084000915542,-0.299076829175251
1580421256.50185,-0.974380102235447,-0.256595712214848,-0.304448004882888
1580421256.50585,-0.964614328221561,-0.261966887922485,-0.308354314488442
1580421256.50984,-0.956313420309758,-0.272709239337759,-0.308354314488442
1580421256.51385,-0.954360265506981,-0.274174105439842,-0.302494850080111
1580421256.51785,-0.951430533302815,-0.276615548943314,-0.280521858548868
1580421256.52185,-0.956801709010453,-0.272709239337759,-0.266849774929428
1580421256.52585,-0.965102616922255,-0.270267795834288,-0.259525444419014
1580421256.52985,-0.966079194323644,-0.271244373235676,-0.261966887922485
1580421256.53385,-0.967055771725033,-0.268802929732205,-0.270267795834288
1580421256.53785,-0.964614328221561,-0.258548867017625,-0.281010147249562
1580421256.54185,-0.961196307316701,-0.248294804303043,-0.281010147249562
1580421256.54585,-0.956801709010453,-0.235111009384298,-0.290775921263448
1580421256.54984,-0.957289997711147,-0.23315785458152,-0.284428168154422
1580421256.55384,-0.956313420309758,-0.233646143282215,-0.289311055161365
1580421256.55784,-0.957778286411841,-0.241947051194018,-0.300541695277333
1580421256.56184,-0.953871976806287,-0.247806515602349,-0.289311055161365
1580421256.56584,-0.954360265506981,-0.247806515602349,-0.281010147249562
1580421256.56984,-0.948012512397955,-0.253177691309988,-0.284428168154422
1580421256.57384,-0.943617914091707,-0.265384908827345,-0.287357900358588
1580421256.57783,-0.939223315785458,-0.275638971541925,-0.291264209964142
1580421256.58183,-0.947524223697261,-0.280521858548868,-0.287357900358588
1580421256.58583,-0.945571068894484,-0.283451590753033,-0.285893034256505
1580421256.58983,-0.948989089799344,-0.285404745555811,-0.292240787365531
1580421256.59381,-0.948989089799344,-0.279056992446785,-0.286381322957199
1580421256.59781,-0.94850080109865,-0.273685816739148,-0.287357900358588
1580421256.60181,-0.948989089799344,-0.274662394140536,-0.290775921263448
1580421256.60581,-0.95533684290837,-0.279056992446785,-0.295658808270391
1580421256.60981,-0.967055771725033,-0.284428168154422,-0.298100251773862
1580421256.6138,-0.976821545738918,-0.283939879453728,-0.308354314488442
1580421256.6178,-0.981704432745861,-0.287846189059282,-0.312260624093996
1580421256.6218,-0.991958495460441,-0.284428168154422,-0.313237201495385
1580421256.6258,-0.99293507286183,-0.281498435950256,-0.324467841611353
1580421256.6298,-0.997817959868772,-0.278080415045396,-0.331792172121768
1580421256.6338,-1.00856031128405,-0.285404745555811,-0.330815594720379
1580421256.6378,-1.01832608529793,-0.289799343862059,-0.330815594720379
1580421256.6418,-1.02760357061112,-0.298588540474556,-0.320561532005799
1580421256.64579,-1.03590447852293,-0.305912870984971,-0.309330891889831
1580421256.64979,-1.03932249942779,-0.308354314488442,-0.300541695277333
1580421256.65379,-1.03443961242084,-0.309330891889831,-0.299076829175251
1580421256.65779,-1.02760357061112,-0.317143511100939,-0.290287632562753
1580421256.66179,-1.0212558175021,-0.326909285114825,-0.283451590753033
1580421256.66579,-1.00953688868544,-0.335210193026628,-0.265873197528039
1580421256.66979,-1.0036774242771,-0.343999389639125,-0.252689402609294
1580421256.6738,-0.99635309376669,-0.355230029755093,-0.240482185091935
1580421256.6778,-0.993423361562524,-0.36401922636759,-0.225345235370412
1580421256.68179,-0.989028763256275,-0.371831845578699,-0.220950637064163
1580421256.68579,-0.98951705195697,-0.376226443884947,-0.218509193560692
1580421256.68979,-0.984634164950027,-0.370366979476616,-0.224368657969023
1580421256.69379,-0.987563897154192,-0.366948958571756,-0.222415503166246
1580421256.69779,-0.991470206759747,-0.361089494163425,-0.23315785458152
1580421256.70179,-0.994888227664607,-0.354741741054399,-0.239505607690546
1580421256.70579,-1.00025940337224,-0.354253452353705,-0.246341649500266
1580421256.70979,-1.00563057907988,-0.35034714274815,-0.251224536507211
1580421256.71378,-1.00611886778058,-0.352300297550928,-0.258548867017625
1580421256.71778,-1.01393148699168,-0.351812008850233,-0.269291218432899
1580421256.72178,-1.01979095140002,-0.354253452353705,-0.277592126344702
1580421256.72578,-1.02809185931182,-0.356206607156482,-0.295658808270391
1580421256.72978,-1.03395132372015,-0.361577782864119,-0.311772335393302
1580421256.73378,-1.04567025253681,-0.361577782864119,-0.330327306019685
1580421256.73778,-1.06324864576181,-0.352300297550928,-0.35034714274815
1580421256.74178,-1.0808270389868,-0.339604791332876,-0.361089494163425
1580421256.74577,-1.09742885481041,-0.32983901731899,-0.374761577782865
1580421256.74977,-1.11989013504234,-0.329350728618296,-0.386480506599527
1580421256.75375,-1.13942168307011,-0.32642099641413,-0.38452735179675
1580421256.75775,-1.16530098420691,-0.322026398107882,-0.379644464789807
1580421256.76175,-1.18629739833677,-0.314702067597468,-0.371831845578699
1580421256.76575,-1.21315327687495,-0.293705653467613,-0.344975967040513
1580421256.76975,-1.24049744411383,-0.256595712214848,-0.326909285114825
1580421256.77375,-1.2522163729305,-0.234134431982909,-0.335698481727322
1580421256.77775,-1.25709925993744,-0.235111009384298,-0.347417410543985
1580421256.78174,-1.25807583733883,-0.23657587548638,-0.358648050659953
1580421256.78574,-1.2522163729305,-0.242923628595406,-0.346440833142596
1580421256.78974,-1.24538033112077,-0.239017318989852,-0.322026398107882
1580421256.79374,-1.24000915541314,-0.240970473792629,-0.298100251773862
1580421256.79774,-1.22780193789578,-0.251224536507211,-0.293705653467613
1580421256.80174,-1.2092469672694,-0.270756084534982,-0.289799343862059
1580421256.80574,-1.19411001754787,-0.306889448386359,-0.287357900358588
1580421256.80974,-1.18434424353399,-0.341069657434959,-0.288334477759976
1580421256.81374,-1.17604333562219,-0.380621042191196,-0.280521858548868
1580421256.81773,-1.1662775616083,-0.419195849546044,-0.274174105439842
1580421256.82173,-1.16090638590066,-0.453864347295339,-0.265873197528039
1580421256.82573,-1.15407034409094,-0.492439154650187,-0.259525444419014
1580421256.82973,-1.15016403448539,-0.519295033188373,-0.270756084534982
1580421256.83374,-1.14821087968261,-0.532478828107118,-0.266849774929428
1580421256.83774,-1.15065232318608,-0.516853589684901,-0.256107423514154
1580421256.84174,-1.14479285877775,-0.508552681773098,-0.23999389639124
1580421256.84574,-1.13795681696803,-0.500251773861295,-0.227786678873883
1580421256.84974,-1.13160906385901,-0.496833752956436,-0.226810101472495
1580421256.85373,-1.11842526894026,-0.50415808346685,-0.218020904859998
1580421256.85773,-1.09840543221179,-0.516853589684901,-0.222903791866941
1580421256.86173,-1.08033875028611,-0.529060807202258,-0.225345235370412
1580421256.86573,-1.06569008926528,-0.537850003814755,-0.228763256275272
1580421256.86973,-1.05201800564584,-0.537361715114061,-0.231204699778743
1580421256.87373,-1.04518196383612,-0.523689631494621,-0.231204699778743
1580421256.87773,-1.03248645761807,-0.510505836575875,-0.249759670405126
1580421256.88172,-1.01051346608682,-0.506111238269627,-0.280033569848174
1580421256.88572,-0.987563897154192,-0.498786907759213,-0.313237201495385
1580421256.88972,-0.960219729915313,-0.499275196459907,-0.316655222400245
1580421256.89372,-0.928969253070878,-0.505134660868238,-0.318608377203022
1580421256.89772,-0.891859311818113,-0.50757610437171,-0.325932707713436
1580421256.90172,-0.856702525368124,-0.490974288548104,-0.32300297550927
1580421256.90572,-0.82887006942855,-0.442145418478676,-0.306889448386359
1580421256.90972,-0.805432211795225,-0.358159761959259,-0.277592126344702
1580421256.9137,-0.787365529869536,-0.231692988479438,-0.222415503166246
1580421256.9177,-0.768810559243153,-0.108155947203784,-0.134523537041275
1580421256.92169,-0.727794308384832,-0.0544441901274126,-0.0778820477607383
1580421256.92569,-0.671641107804989,-0.0822766460669868,-0.0510261692225527
1580421256.92969,-0.629159990844586,-0.137453269245441,-0.0700694285496297
1580421256.93369,-0.605722133211261,-0.168703746089875,-0.108644235904478
1580421256.93769,-0.587167162584878,-0.168703746089875,-0.142824444953078
1580421256.94169,-0.577889677271687,-0.136964980544747,-0.135988403143358
1580421256.94569,-0.582284275577935,-0.080811779964904,-0.10766765850309
1580421256.94968,-0.585214007782101,-0.0187991149767299,-0.0793469138628211
1580421256.95368,-0.577401388570992,0.027588311589227,-0.0759288929579611
1580421256.95768,-0.56226443884947,0.0520027466239412,-0.0896009765774011
1580421256.96168,-0.550545510032807,0.0563973449301898,-0.105714503700312
1580421256.96568,-0.540291447318227,0.048096437018387,-0.120363164721141
1580421256.96968,-0.533455405508507,0.0349126420996413,-0.120851453421835
1580421256.97368,-0.533455405508507,0.00854505226214997,-0.113527122911421
1580421256.97768,-0.533455405508507,-0.0163576714732585,-0.0993667505912867
1580421256.98167,-0.536385137712672,-0.0397955291065841,-0.0896009765774011
1580421256.98567,-0.535896849011978,-0.0588387884336612,-0.0832532234683754
1580421256.98967,-0.533455405508507,-0.0734874494544897,-0.0813000686655982
1580421256.99368,-0.526619363698787,-0.0832532234683754,-0.0788586251621268
1580421256.99768,-0.526619363698787,-0.0930189974822611,-0.0720225833524069
1580421257.00168,-0.518318455786984,-0.103273060196841,-0.0656748302433812
1580421257.00568,-0.513923857480735,-0.110597390707255,-0.0632333867399097
1580421257.00968,-0.512458991378653,-0.113527122911421,-0.060303654535744
1580421257.01368,-0.512458991378653,-0.112550545510032,-0.0520027466239412
1580421257.01767,-0.515877012283513,-0.11792172121767,-0.0437018387121384
1580421257.02167,-0.523201342793927,-0.115968566414892,-0.0427252613107498
1580421257.02567,-0.533943694209201,-0.12133974212253,-0.0354009308003356
1580421257.02967,-0.54517433432517,-0.125246051728084,-0.031006332494087
1580421257.03367,-0.555916685740444,-0.135988403143358,-0.0251468680857556
1580421257.03767,-0.566170748455024,-0.143801022354467,-0.0222171358815899
1580421257.04167,-0.580331120775158,-0.156984817273212,-0.0227054245822842
1580421257.04567,-0.596444647898069,-0.171145189593346,-0.0227054245822842
1580421257.04966,-0.611093308918898,-0.183840695811398,-0.0197756923781185
1580421257.05366,-0.627206836041809,-0.197024490730143,-0.0153810940718699
1580421257.05766,-0.639902342259861,-0.203860532539863,-0.0153810940718699
1580421257.06166,-0.656504158083466,-0.211673151750972,-0.0129396505683985
1580421257.06566,-0.676523994811932,-0.220950637064163,-0.0114747844663157
1580421257.06966,-0.69459067673762,-0.223880369268329,-0.0246585793850613
1580421257.07364,-0.716563668268863,-0.23657587548638,-0.0290531776913099
1580421257.07764,-0.736095216296635,-0.242435339894712,-0.0402838178072784
1580421257.08164,-0.757579919127185,-0.255130846112765,-0.0437018387121384
1580421257.08563,-0.783459220263982,-0.274174105439842,-0.0549324788281069
1580421257.08963,-0.810803387502862,-0.291264209964142,-0.0544441901274126
1580421257.09363,-0.837170977340353,-0.311772335393302,-0.0681162737468526
1580421257.09763,-0.865980010681316,-0.334233615625239,-0.0681162737468526
1580421257.10163,-0.891371023117419,-0.347905699244679,-0.0764171816586554
1580421257.10563,-0.910414282444496,-0.359136339360647,-0.0910658426794839
1580421257.10963,-0.925062943465324,-0.37085526817731,-0.100343327992675
1580421257.11363,-0.935805294880598,-0.373785000381476,-0.110109102006561
1580421257.11762,-0.95191882200351,-0.37427328908217,-0.130617227435721
1580421257.12162,-0.969985503929198,-0.375249866483559,-0.146242465857938
1580421257.12562,-0.995376516365301,-0.371343556878005,-0.167727168688486
1580421257.12962,-1.03639276722362,-0.37085526817731,-0.180910963607232
1580421257.13362,-1.07936217288472,-0.369878690775922,-0.199465934233615
1580421257.13762,-1.13502708476387,-0.377203021286336,-0.215091172655832
1580421257.14162,-1.19362172884718,-0.38794537270161,-0.230716411078049
1580421257.14562,-1.25075150682841,-0.409430075532159,-0.240970473792629
1580421257.14961,-1.29958037689784,-0.431403067063401,-0.254642557412071
1580421257.15363,-1.33571374074922,-0.460212100404364,-0.258060578316931
1580421257.15762,-1.35524528877699,-0.485114824139773,-0.267338063630122
1580421257.16162,-1.35817502098116,-0.510505836575875,-0.278568703746091
1580421257.16562,-1.35671015487907,-0.531990539406424,-0.283451590753033
1580421257.16962,-1.35622186617838,-0.542244602121004,-0.283451590753033
1580421257.17362,-1.3625696192874,-0.547615777828641,-0.285893034256505
1580421257.17762,-1.37526512550546,-0.543709468223087,-0.295170519569696
1580421257.18162,-1.38796063172351,-0.538826581216144,-0.296635385671779
1580421257.18561,-1.40065613794156,-0.519295033188373,-0.278568703746091
1580421257.18961,-1.41139848935683,-0.495368886854353,-0.268314641031511
1580421257.19361,-1.41676966506447,-0.465583276112001,-0.248294804303043
1580421257.19761,-1.42018768596933,-0.438239108873121,-0.237064164187075
1580421257.20161,-1.42116426337072,-0.41870756084535,-0.229251544975966
1580421257.20561,-1.42555886167697,-0.41187151903563,-0.217532616159303
1580421257.20961,-1.42995345998322,-0.415777828641184,-0.213138017853055
1580421257.21361,-1.4314183260853,-0.427008468757153,-0.202883955138475
1580421257.2176,-1.43434805828946,-0.447516594186313,-0.191653315022506
1580421257.2216,-1.43678950179294,-0.469489585717556,-0.177004654001678
1580421257.2256,-1.43727779049363,-0.489509422446021,-0.155519951171129
1580421257.2296,-1.43483634699016,-0.512947280079347,-0.146242465857938
1580421257.23358,-1.42702372777905,-0.538826581216144,-0.139894712748912
1580421257.23758,-1.42116426337072,-0.564217593652247,-0.130617227435721
1580421257.24158,-1.40700389105058,-0.590585183489738,-0.118898298619058
1580421257.24558,-1.39528496223392,-0.621347371633478,-0.111573968108644
1580421257.24958,-1.38405432211795,-0.652109559777218,-0.10424963759823
1580421257.25357,-1.37770656900893,-0.67750057221332,-0.107179369802395
1580421257.25757,-1.37233539330129,-0.702403295948729,-0.111573968108644
1580421257.26157,-1.35866330968185,-0.729747463187609,-0.122804608224612
1580421257.26557,-1.34401464866102,-0.748302433813992,-0.129152361333638
1580421257.26957,-1.32643625543603,-0.749767299916074,-0.131593804837109
1580421257.27357,-1.30397497520409,-0.726329442282749,-0.144289311055161
1580421257.27757,-1.27663080796521,-0.689707789730678,-0.156984817273212
1580421257.28157,-1.24635690852216,-0.639902342259861,-0.192141603723201
1580421257.28556,-1.21217669947356,-0.589608606088349,-0.226321812771801
1580421257.28956,-1.17848477912566,-0.54175631342031,-0.248294804303043
1580421257.29356,-1.14576943617914,-0.502693217364767,-0.262455176623179
1580421257.29756,-1.11158922713054,-0.474860761425193,-0.279545281147479
1580421257.30156,-1.07936217288472,-0.468024719615473,-0.291264209964142
1580421257.30556,-1.04518196383612,-0.470954451819638,-0.304936293583582
1580421257.30956,-1.01930266269932,-0.488532845044633,-0.317143511100939
1580421257.31357,-0.99293507286183,-0.508064393072404,-0.334721904325933
1580421257.31757,-0.977798123140307,-0.529549095902953,-0.338139925230793
1580421257.32156,-0.967055771725033,-0.550057221332112,-0.333745326924545
1580421257.32556,-0.966567483024338,-0.578377965972381,-0.313725490196079
1580421257.32956,-0.957778286411841,-0.614999618524452,-0.308354314488442
1580421257.33356,-0.941176470588236,-0.653086137178606,-0.295170519569696
1580421257.33756,-0.922621499961853,-0.685313191424429,-0.295170519569696
1580421257.34156,-0.905531395437553,-0.699473563744563,-0.288334477759976
1580421257.34556,-0.891859311818113,-0.697520408941786,-0.267338063630122
1580421257.34956,-0.884046692607004,-0.689219501029983,-0.248783093003738
1580421257.35355,-0.885023270008393,-0.678965438315403,-0.237064164187075
1580421257.35755,-0.880628671702144,-0.682383459220263,-0.216556038757915
1580421257.36155,-0.881605249103533,-0.684824902723735,-0.206790264744029
1580421257.36555,-0.875745784695201,-0.685313191424429,-0.199465934233615
1580421257.36955,-0.879163805600061,-0.68091859311818,-0.198489356832226
1580421257.37355,-0.879652094300756,-0.669687953002212,-0.196047913328755
1580421257.37755,-0.879652094300756,-0.651132982375829,-0.199954222934309
1580421257.38155,-0.878187228198673,-0.627695124742504,-0.201419089036392
1580421257.38555,-0.872816052491036,-0.602792401007095,-0.215579461356526
1580421257.38954,-0.86646829938201,-0.575448233768215,-0.226321812771801
1580421257.39352,-0.86305027847715,-0.554451819638361,-0.228274967574578
1580421257.39752,-0.855237659266042,-0.534431982909895,-0.239017318989852
1580421257.40152,-0.849866483558404,-0.517341878385595,-0.257084000915542
1580421257.40552,-0.842053864347296,-0.497810330357824,-0.260013733119708
1580421257.40952,-0.840588998245213,-0.483161669336996,-0.261478599221791
1580421257.41352,-0.843030441748684,-0.466071564812696,-0.276615548943314
1580421257.41752,-0.838147554741742,-0.437262531471733,-0.407965209430076
1580421257.42151,-0.888929579613947,-0.316655222400245,-0.471931029221027
1580421257.42551,-0.941176470588236,-0.228274967574578,-0.44263370717937
1580421257.42951,-0.906019684138247,-0.254154268711376,-0.458258945601587
1580421257.43351,-0.901625085831999,-0.203372243839169,-0.551522087434195
1580421257.43751,-0.992446784161135,0.0100099183642328,-0.587655451285572
1580421257.44151,-1.09449912260624,0.295170519569695,-0.422613870450904
1580421257.44551,-1.15700007629511,0.548592355230031,-0.219974059662775
1580421257.44951,-1.15016403448539,0.721446555275808,-0.123781185626001
1580421257.45351,-1.09205767910277,0.706309605554285,-0.136476691844052
1580421257.4575,-1.01197833218891,0.513435568780043,-0.189211871519035
1580421257.4615,-0.961196307316701,0.26392004272526,-0.249759670405126
1580421257.4655,-0.960219729915313,0.0749523155565726,-0.298100251773862
1580421257.4695,-1.00904859998474,0.0129396505683985,-0.311284046692608
1580421257.47351,-1.06276035706111,0.0354009308003356,-0.268802929732205
1580421257.47751,-1.08668650339513,0.0725108720531011,-0.214114595254443
1580421257.48151,-1.07057297627222,0.0764171816586554,-0.168215457389181
1580421257.48551,-1.01930266269932,0.0466315709163041,-0.168703746089875
1580421257.4895,-0.959731441214618,0.00317387655451284,-0.187258716716258
1580421257.4935,-0.919691767757687,-0.0256351567864499,-0.195559624628061
1580421257.4975,-0.917250324254216,-0.044678416113527,-0.183840695811398
1580421257.5015,-0.947524223697261,-0.0422369726100555,-0.140383001449607
1580421257.5055,-0.97926298924239,-0.0349126420996413,-0.138429846646829
1580421257.5095,-0.996841382467384,-0.0295414663920042,-0.187747005416952
1580421257.5135,-1.0124666208896,-0.0046387426565957,-0.205325398641946
1580421257.5175,-1.03932249942779,0.067139696345464,-0.125246051728084
1580421257.52149,-1.07692072938125,0.133546959639887,-0.0451667048142212
1580421257.52549,-1.09498741130693,0.099855039291981,-0.0212405584802013
1580421257.52949,-1.11989013504234,0.00219729915312428,-0.0271000228885327
1580421257.53349,-1.13600366216525,-0.0896009765774011,-0.0451667048142212
1580421257.53749,-1.14576943617914,-0.133058670939192,-0.0695811398489354
1580421257.54149,-1.13600366216525,-0.139894712748912,-0.133546959639887
1580421257.54549,-1.11940184634165,-0.137453269245441,-0.204837109941252
1580421257.54949,-1.09742885481041,-0.135011825741969,-0.248294804303043
1580421257.55347,-1.07643244068055,-0.159426260776684,-0.266849774929428
1580421257.55746,-1.07594415197986,-0.195071335927366,-0.279056992446785
1580421257.56146,-1.10182345311665,-0.221927214465552,-0.283939879453728
1580421257.56546,-1.14772259098192,-0.239017318989852,-0.256107423514154
1580421257.56946,-1.20827038986801,-0.229739833676661,-0.188235294117646
1580421257.57346,-1.25026321812772,-0.211184863050278,-0.131593804837109
1580421257.57746,-1.26344701304646,-0.202395666437781,-0.103273060196841
1580421257.58146,-1.24782177462425,-0.214114595254443,-0.108155947203784
1580421257.58546,-1.21022354467079,-0.226321812771801,-0.134523537041275
1580421257.58945,-1.16481269550622,-0.232669565880826,-0.174563210498206
1580421257.59345,-1.10572976272221,-0.231692988479438,-0.212161440451666
1580421257.59745,-1.0466468299382,-0.226810101472495,-0.237064164187075
1580421257.60145,-0.986587319752804,-0.219974059662775,-0.268314641031511
1580421257.60545,-0.944106202792401,-0.212161440451666,-0.286869611657893
1580421257.60945,-0.917250324254216,-0.196536202029449,-0.300053406576639
1580421257.61345,-0.917250324254216,-0.184328984512092,-0.304936293583582
1580421257.61745,-0.926527809567407,-0.172610055695429,-0.291264209964142
1580421257.62144,-0.943129625391013,-0.162844281681544,-0.264408331425956
1580421257.62544,-0.957289997711147,-0.162355992980849,-0.245365072098878
1580421257.62944,-0.967055771725033,-0.170656900892652,-0.238040741588463
1580421257.63345,-0.96559090562295,-0.184328984512092,-0.249271381704432
1580421257.63745,-0.959243152513924,-0.195559624628061,-0.273197528038454
1580421257.64145,-0.952407110704204,-0.199954222934309,-0.290287632562753
1580421257.64545,-0.95191882200351,-0.192629892423895,-0.296635385671779
1580421257.64945,-0.952407110704204,-0.173098344396124,-0.293217364766919
1580421257.65345,-0.953871976806287,-0.157961394674601,-0.286869611657893
1580421257.65745,-0.958266575112535,-0.144289311055161,-0.269291218432899
1580421257.66144,-0.965102616922255,-0.137453269245441,-0.260502021820402
1580421257.66544,-0.968520637827115,-0.135500114442664,-0.257572289616236
1580421257.66944,-0.971450370031281,-0.135988403143358,-0.249759670405126
1580421257.67344,-0.974380102235447,-0.142824444953078,-0.247318226901655
1580421257.67744,-0.973891813534753,-0.150148775463492,-0.232669565880826
1580421257.68144,-0.966079194323644,-0.152590218966964,-0.230716411078049
1580421257.68544,-0.962661173418784,-0.155031662470435,-0.218020904859998
1580421257.68944,-0.963149462119478,-0.148683909361409,-0.209719996948195
1580421257.69343,-0.967544060425727,-0.136964980544747,-0.198977645532921
1580421257.69743,-0.977309834439613,-0.117433432516975,-0.189211871519035
1580421257.70143,-0.986587319752804,-0.0925307087815668,-0.181399252307926
1580421257.70543,-0.986587319752804,-0.0690928511482412,-0.171145189593346
1580421257.70943,-0.984634164950027,-0.0524910353246355,-0.162355992980849
1580421257.71341,-0.979751277943084,-0.0349126420996413,-0.170656900892652
1580421257.71741,-0.978286411841001,-0.0197756923781185,-0.170168612191958
1580421257.72141,-0.976333257038224,-0.0046387426565957,-0.176028076600289
1580421257.7254,-0.973403524834058,0.01196307316701,-0.175051499198901
1580421257.7294,-0.964614328221561,0.0217288471808956,-0.175051499198901
1580421257.7334,-0.960708018616007,0.0183108262760356,-0.192629892423895
1580421257.7374,-0.95533684290837,0.0124513618677042,-0.211184863050278
1580421257.7414,-0.949477378500038,0.00708018616006711,-0.224856946669718
1580421257.7454,-0.946059357595178,-0.000732433051041426,-0.235599298084992
1580421257.7494,-0.955825131609064,0.000244144350347142,-0.253665980010682
1580421257.7534,-0.963149462119478,-0.00317387655451284,-0.268314641031511
1580421257.7574,-0.96900892652781,-0.00805676356145568,-0.279056992446785
1580421257.76139,-0.977798123140307,-0.00854505226214997,-0.292240787365531
1580421257.76539,-0.990493629358358,-0.00854505226214997,-0.297611963073168
1580421257.76939,-1.00709544518196,-0.00219729915312428,-0.292729076066225
1580421257.77339,-1.0129549095903,0.0046387426565957,-0.290775921263448
1580421257.77739,-1.00221255817502,-0.00708018616006711,-0.306889448386359
1580421257.78139,-0.985610742351415,-0.0329594872968642,-0.339116502632182
1580421257.78539,-0.969985503929198,-0.0798352025635154,-0.361089494163425
1580421257.78938,-0.96217288471809,-0.128664072632944,-0.359136339360647
1580421257.7934,-0.965102616922255,-0.170168612191958,-0.351323720149539
1580421257.79739,-0.972915236133364,-0.201907377737086,-0.33325703822385
1580421257.80139,-0.986587319752804,-0.219974059662775,-0.311284046692608
1580421257.80539,-0.993911650263218,-0.228274967574578,-0.305424582284276
1580421257.80939,-0.990005340657664,-0.235599298084992,-0.316166933699551
1580421257.81339,-0.980239566643778,-0.248783093003738,-0.327885862516213
1580421257.81739,-0.96900892652781,-0.261966887922485,-0.369390402075227
1580421257.82139,-0.974868390936141,-0.260990310521096,-0.373785000381476
1580421257.82539,-0.999282825970855,-0.232669565880826,-0.345952544441902
1580421257.82938,-1.02027924010071,-0.193606469825284,-0.323491264209965
1580421257.83338,-1.03346303501946,-0.148195620660715,-0.302983138780805
1580421257.83738,-1.03395132372015,-0.110109102006561,-0.302494850080111
1580421257.84138,-1.01979095140002,-0.0832532234683754,-0.313237201495385
1580421257.84538,-0.99977111467155,-0.0656748302433812,-0.33325703822385
1580421257.84938,-0.986587319752804,-0.0539559014267184,-0.343022812237736
1580421257.85338,-0.985610742351415,-0.0329594872968642,-0.330327306019685
1580421257.85738,-0.991470206759747,-0.0144045166704814,-0.306401159685665
1580421257.86137,-0.98951705195697,0.000732433051041426,-0.291264209964142
1580421257.86537,-0.993423361562524,0.00805676356145568,-0.275638971541925
1580421257.86937,-0.992446784161135,-0.00268558785381856,-0.276615548943314
1580421257.87335,-0.974380102235447,-0.0183108262760356,-0.302983138780805
1580421257.87735,-0.962661173418784,-0.031006332494087,-0.304448004882888
1580421257.88135,-0.967055771725033,-0.0383306630045013,-0.270756084534982
1580421257.88535,-0.969497215228504,-0.0368657969024184,-0.262455176623179
1580421257.88935,-0.967544060425727,-0.0451667048142212,-0.271244373235676
1580421257.89334,-0.954848554207675,-0.0568856336308841,-0.280521858548868
1580421257.89734,-0.948012512397955,-0.0642099641412983,-0.267338063630122
1580421257.90134,-0.950453955901427,-0.0651865415426869,-0.271244373235676
1580421257.90534,-0.946547646295873,-0.0700694285496297,-0.294193942168308
1580421257.90934,-0.937758449683376,-0.0813000686655982,-0.302006561379416
1580421257.91334,-0.94508278019379,-0.102784771496147,-0.310307469291219
1580421257.91734,-0.946059357595178,-0.124269474326695,-0.318120088502328
1580421257.92134,-0.954848554207675,-0.153078507667658,-0.317143511100939
1580421257.92534,-0.96559090562295,-0.165774013885709,-0.305912870984971
