Timestamp_seconds,Accel_X_g,Accel_Y_g,Accel_Z_g
1580421251.45312,-0.986587319752804,0.118898298619058,-0.118898298619058
1580421251.4853,-0.995376516365301,0.133546959639887,-0.132570382238498
1580421251.51747,-0.997817959868772,0.151613641565575,-0.119386587319752
1580421251.54965,-0.988540474555581,0.135500114442664,-0.0988784618905925
1580421251.58183,-0.992446784161135,0.138429846646829,-0.10766765850309
1580421251.614,-0.994399938963912,0.144777599755855,-0.104737926298924
1580421251.64618,-0.980239566643778,0.160402838178072,-0.10766765850309
1580421251.67835,-0.990005340657664,0.175539787899595,-0.11108567940795
1580421251.71053,-0.983657587548638,0.166750591287098,-0.102784771496147
1580421251.7427,-0.99293507286183,0.151125352864881,-0.103761348897535
1580421251.77488,-0.988052185854887,0.152590218966964,-0.100343327992675
1580421251.80706,-1.00025940337224,0.148195620660715,-0.12133974212253
1580421251.83923,-0.991470206759747,0.151613641565575,-0.126710917830167
1580421251.87141,-0.98609903105211,0.156984817273212,-0.110109102006561
1580421251.90358,-0.978774700541695,0.154543373769741,-0.114015411612115
1580421251.93576,-0.987563897154192,0.152590218966964,-0.113527122911421
1580421251.96794,-0.98268101014725,0.149660486762798,-0.117433432516975
1580421252.00011,-0.983657587548638,0.144777599755855,-0.109620813305867
1580421252.03229,-0.984634164950027,0.145265888456549,-0.106202792401007
1580421252.06447,-0.986587319752804,0.140871290150301,-0.107179369802395
1580421252.09674,-0.991470206759747,0.140871290150301,-0.112550545510032
1580421252.12892,-0.985122453650721,0.148195620660715,-0.114991989013504
1580421252.16109,-0.987563897154192,0.146730754558632,-0.112550545510032
1580421252.19327,-0.990493629358358,0.142336156252384,-0.118898298619058
1580421252.22544,-0.977309834439613,0.155031662470435,-0.108644235904478
1580421252.25762,-0.984145876249332,0.162355992980849,-0.106202792401007
1580421252.2898,-0.99293507286183,0.151125352864881,-0.114015411612115
1580421252.32197,-0.995376516365301,0.144777599755855,-0.114015411612115
1580421252.35415,-0.98609903105211,0.135500114442664,-0.113527122911421
1580421252.38632,-0.994888227664607,0.132570382238498,-0.12133974212253
1580421252.4185,-0.985122453650721,0.136476691844052,-0.106691081101701
1580421252.45068,-0.987075608453498,0.125246051728084,-0.110597390707255
1580421252.48285,-0.990005340657664,0.139894712748912,-0.122804608224612
1580421252.51503,-0.97584496833753,0.136476691844052,-0.130128938735027
1580421252.5472,-0.976821545738918,0.148683909361409,-0.12133974212253
1580421252.57938,-0.98609903105211,0.167238879987792,-0.126222629129472
1580421252.61156,-0.995864805065995,0.144777599755855,-0.114991989013504
1580421252.64373,-1.00025940337224,0.130617227435721,-0.121828030823224
1580421252.67591,-0.991958495460441,0.117433432516975,-0.125246051728084
1580421252.70808,-0.993423361562524,0.116456855115587,-0.133058670939192
1580421252.74026,-0.980239566643778,0.116456855115587,-0.137941557946135
1580421252.77244,-0.968032349126421,0.151125352864881,-0.136476691844052
1580421252.80461,-0.992446784161135,0.125734340428778,-0.106202792401007
1580421252.83679,-0.987075608453498,0.135500114442664,-0.139406424048218
1580421252.86896,-1.00514229037919,0.141359578850995,-0.113527122911421
1580421252.90114,-1.00563057907988,0.136964980544747,-0.0930189974822611
1580421252.93332,-0.990005340657664,0.135500114442664,-0.0817883573662925
1580421252.96549,-0.993911650263218,0.135500114442664,-0.0852063782711525
1580421252.99767,-0.97242694743267,0.142824444953078,-0.080811779964904
1580421253.02984,-0.973403524834058,0.156496528572518,-0.0822766460669868
1580421253.06202,-0.987563897154192,0.165774013885709,-0.0930189974822611
1580421253.0942,-0.999282825970855,0.156984817273212,-0.0568856336308841
1580421253.12637,-1.01490806439307,0.131593804837109,-0.0178225375753414
1580421253.15855,-1.0212558175021,0.113527122911421,0.0168459601739528
1580421253.19072,-1.04078736552987,0.0939955748836496,0.041260395208667
1580421253.2229,-1.04225223163195,0.0720225833524069,0.0891126878767068
1580421253.25508,-1.01002517738613,0.0476081483176927,0.162844281681544
1580421253.28725,-0.968520637827115,0.0300297550926985,0.204837109941252
1580421253.31943,-1.13356221866178,0.0588387884336612,0.198977645532921
1580421253.3516,-1.21559472037842,-0.00610360875867855,0.234134431982909
1580421253.38394,-1.24098573281453,0.108644235904478,0.428473334859234
1580421253.41612,-0.927016098268101,0.0520027466239412,-0.119386587319752
1580421253.44829,-0.940199893186847,-0.060303654535744,0.126222629129472
1580421253.48047,-0.901625085831999,0.0388189517051956,0.137941557946135
1580421253.51265,-0.842053864347296,0.0871595330739297,0.168215457389181
1580421253.54482,-0.858655680170902,0.0954604409857325,0.127687495231555
1580421253.577,-0.902601663233387,-0.117433432516975,0.218997482261386
1580421253.60918,-0.882093537804227,-0.274174105439842,0.378667887388417
1580421253.64135,-0.851819638361182,-0.38794537270161,0.430426489662011
1580421253.67353,-0.890882734416724,-0.211184863050278,0.330815594720377
1580421253.70571,-0.989028763256275,0.101808194094758,0.382574196993971
1580421253.73788,-0.929945830472267,0.308842603189134,0.759044785229268
1580421253.77006,-0.737560082398717,0.181399252307926,0.322514686808574
1580421253.80224,-0.844983596551462,-0.0354009308003356,0.259525444419012
1580421253.83441,-0.930922407873656,-0.205325398641946,0.377691309987028
1580421253.86659,-1.00953688868544,-0.115968566414892,0.360112916762034
1580421253.89876,-1.2004577706569,0.177981231403066,0.377203021286334
1580421253.93094,-1.04811169604028,0.119874876020447,0.331792172121766
1580421253.96312,-0.846936751354239,-0.0393072404058898,0.219485770962081
1580421253.99529,-0.974868390936141,-0.0573739223315783,0.119874876020447
1580421254.02747,-0.966079194323644,0.108644235904478,0.0979018844892039
1580421254.05965,-0.925062943465324,0.113038834210727,0.0788586251621268
1580421254.09182,-0.953383688105593,0.102296482795452,0.0686045624475469
1580421254.124,-0.966567483024338,0.234622720683603,0.0681162737468526
1580421254.15618,-0.942641336690318,0.221927214465552,0.0236820019836728
1580421254.18835,-1.01149004348821,0.347905699244677,0.024170290684367
1580421254.22053,-1.04078736552987,0.343999389639123,-0.00610360875867855
1580421254.25271,-1.02272068360418,0.150637064164187,0.024170290684367
1580421254.28488,-1.04420538643473,0.0407721065079727,0.041260395208667
1580421254.31706,-0.942641336690318,0.0920424200808725,-0.0769054703593497
1580421254.34924,-0.975356679636835,0.200930800335698,-0.100343327992675
1580421254.38141,-0.95875486381323,0.271732661936369,-0.131105516136415
1580421254.41359,-0.936781872281987,0.3288624399176,-0.0896009765774011
1580421254.44577,-0.960708018616007,0.299565117875943,-0.132570382238498
1580421254.47794,-0.99293507286183,0.175539787899595,-0.0168459601739528
1580421254.51012,-0.980239566643778,0.116456855115587,-0.00268558785381856
1580421254.54229,-0.987075608453498,0.159914549477378,-0.00415045395590141
1580421254.57447,-1.00221255817502,0.240970473792629,-0.0764171816586554
1580421254.60665,-0.992446784161135,0.23999389639124,-0.0593270771343555
1580421254.63882,-0.988540474555581,0.182864118410009,-0.126710917830167
1580421254.67111,-0.999282825970855,0.165774013885709,-0.110109102006561
1580421254.70329,-1.00514229037919,0.269779507133592,-0.133546959639887
1580421254.73547,-1.03053330281529,0.341069657434957,-0.105714503700312
1580421254.76764,-1.03053330281529,0.270267795834286,-0.147219043259327
1580421254.79982,-1.06666666666667,0.176516365300984,-0.164797436484321
1580421254.832,-1.0896162355993,0.0285648889906156,-0.100343327992675
1580421254.86417,-1.06910811017014,-0.147219043259327,-0.101808194094758
1580421254.89635,-0.99635309376669,-0.142336156252384,-0.0129396505683985
1580421254.92853,-1.06617837796597,0.0568856336308841,-0.0197756923781185
1580421254.9607,-1.05885404745556,0.138429846646829,-0.188723582818341
1580421254.99288,-1.09010452429999,0.249271381704432,-0.0954604409857325
1580421255.02506,-1.08375677119097,0.207278553444723,-0.0578622110322726
1580421255.05724,-1.10328831921874,0.148683909361409,0.0520027466239412
1580421255.08941,-1.11989013504234,0.0695811398489354,0.0817883573662925
1580421255.12159,-1.16041809719997,-0.01196307316701,0.167727168688486
1580421255.15377,-0.94166475928893,-0.0725108720531011,0.182375829709315
1580421255.18594,-0.826916914625773,-0.0910658426794839,0.158937972075989
1580421255.21812,-0.779064621957733,-0.0788586251621268,0.150148775463492
1580421255.2503,-0.80494392309453,-0.0461432822156098,0.23999389639124
1580421255.28247,-0.800061036087587,-0.0954604409857325,0.314702067597466
1580421255.31465,-0.792736705577173,-0.113038834210727,0.371343556878003
1580421255.34683,-0.829358358129245,-0.128175783932249,0.464118410009917
1580421255.379,-0.850354772259099,-0.0158693827725642,0.533943694209203
1580421255.41118,-0.930922407873656,0.0983901731898982,0.458258945601585
1580421255.44336,-0.923109788662547,-0.00268558785381856,0.536873426413369
1580421255.47554,-0.898207064927139,-0.0969253070878153,0.639414053559168
1580421255.50771,-0.834729533836882,-0.0993667505912867,0.545662623025866
1580421255.53989,-0.809338521400779,-0.122316319523918,0.427496757457845
1580421255.57207,-0.813244831006333,-0.241458762493323,0.391851682307163
1580421255.60424,-0.796643015182728,-0.207278553444723,0.446051728084228
1580421255.63642,-1.0129549095903,-0.0129396505683985,0.477302204928662
1580421255.6686,-0.959243152513924,0.114015411612115,0.46900129701686
1580421255.70077,-0.962661173418784,0.12133974212253,0.386480506599526
1580421255.73295,-1.11940184634165,0.0686045624475469,0.333257038223849
1580421255.76513,-0.879163805600061,-0.024170290684367,0.121828030823224
1580421255.79731,-0.86646829938201,0.0432135500114441,-0.0187991149767299
1580421255.82948,-0.971450370031281,0.151613641565575,0.0334477759975584
1580421255.86166,-1.02174410620279,0.3288624399176,0.119874876020447
1580421255.89384,-0.980239566643778,0.283939879453726,0.127687495231555
1580421255.92601,-1.01881437399863,0.220462348363469,0.148683909361409
1580421255.95822,-1.00856031128405,0.109620813305867,0.113527122911421
1580421255.9904,-0.97584496833753,0.0505378805218584,0.0549324788281069
1580421256.02258,-0.99977111467155,0.179934386205844,-0.0100099183642328
1580421256.05475,-0.993911650263218,0.266849774929426,-0.0329594872968642
1580421256.08693,-0.950453955901427,0.237552452887769,0.0129396505683985
1580421256.11911,-0.971450370031281,0.171633478294041,-0.0305180437933927
1580421256.15129,-0.995376516365301,0.146242465857938,-0.060303654535744
1580421256.18346,-0.991470206759747,0.143312733653772,-0.0295414663920042
1580421256.21564,-0.98268101014725,0.167727168688486,-0.0300297550926985
1580421256.24782,-0.96559090562295,0.199465934233615,-0.0832532234683754
1580421256.28,-0.971938658731975,0.245365072098878,-0.0910658426794839
1580421256.31217,-0.983657587548638,0.264408331425955,-0.106691081101701
1580421256.34435,-0.97926298924239,0.217044327458609,-0.0983901731898982
1580421256.37653,-0.96559090562295,0.189700160219729,-0.112550545510032
1580421256.4087,-0.974868390936141,0.221927214465552,-0.131105516136415
1580421256.44088,-0.977309834439613,0.176028076600289,-0.109620813305867
1580421256.47306,-1.03102159151598,0.202395666437781,-0.0437018387121384
1580421256.50524,-1.02027924010071,0.225833524071106,-0.107179369802395
1580421256.53742,-0.985610742351415,0.204837109941252,-0.0852063782711525
1580421256.56959,-1.08131532768749,0.204348821240558,-0.0515144579232469
1580421256.60177,-1.18141451132982,0.108155947203784,-0.0993667505912867
1580421256.63395,-1.12819104295415,-0.0554207675288012,0.00219729915312428
1580421256.66612,-1.07496757457847,-0.154055085069047,0.0202639810788128
1580421256.6983,-1.17555504692149,-0.0305180437933927,-0.0900892652780954
1580421256.73048,-1.18971541924163,0.207278553444723,-0.285404745555811
1580421256.76266,-1.10914778362707,0.230228122377355,-0.250247959105822
1580421256.79483,-1.09059281300069,0.103273060196841,-0.0339360646982527
1580421256.82701,-1.07936217288472,0.0236820019836728,0.0852063782711525
1580421256.85919,-0.998794537270161,0.0129396505683985,0.11450370031281
1580421256.89137,-0.928480964370184,-0.01196307316701,0.118410009918364
1580421256.92354,-0.84937819485771,-0.0075684748607614,0.125246051728084
1580421256.95572,-0.76734569314107,-0.048096437018387,0.0949721522850382
1580421256.9879,-0.771252002746625,-0.096437018387121,0.0949721522850382
1580421257.02008,-0.771740291447319,-0.0910658426794839,0.180422674906538
1580421257.05225,-0.830823224231327,-0.0280766002899213,0.368902113374531
1580421257.08443,-0.93141069657435,0.0451667048142212,0.557381551842528
1580421257.11661,-0.876234073395896,-0.0407721065079727,0.648203250171665
1580421257.14879,-0.84254215304799,-0.0661631189440754,0.6110933089189
1580421257.18096,-0.999282825970855,0.024170290684367,0.512458991378654
1580421257.21314,-0.933852140077821,-0.0280766002899213,0.551033798733503
1580421257.24545,-0.845471885252156,-0.232669565880826,0.560311284046694
1580421257.27763,-0.844007019150073,-0.221927214465552,0.396246280613411
1580421257.30981,-0.961196307316701,0.00366216525520713,0.255130846112763
1580421257.34198,-0.92457465476463,0.0568856336308841,0.45532921339742
1580421257.37416,-0.990493629358358,0.000244144350347142,0.401129167620354
1580421257.40634,-1.02906843671321,0.0075684748607614,0.320073243305103
1580421257.43852,-1.0212558175021,0.0920424200808725,0.216067750057221
1580421257.4707,-0.923598077363241,0.114015411612115,0.0402838178072784
1580421257.50287,-0.98609903105211,0.102296482795452,0.149660486762798
1580421257.53505,-0.940199893186847,-0.0354009308003356,0.144289311055161
1580421257.56723,-0.905531395437553,0.0363775082017241,0.141359578850995
1580421257.5994,-0.953871976806287,0.275150682841229,0.136476691844052
1580421257.63158,-0.96559090562295,0.339604791332874,0.0783703364614325
1580421257.66376,-1.01637293049516,0.235599298084992,0.133058670939192
1580421257.69594,-1.00465400167849,0.170168612191958,0.133058670939192
1580421257.72811,-0.978774700541695,0.149660486762798,0.0915541313801782
1580421257.76029,-0.950453955901427,0.187258716716258,0.0969253070878153
1580421257.79247,-1.01149004348821,0.187258716716258,0.0266117341878385
1580421257.82465,-1.00074769207294,0.208743419546806,-0.0153810940718699
1580421257.85682,-0.932387273975738,0.205325398641946,0.000732433051041426
1580421257.889,-0.992446784161135,0.190188448920424,-0.0598153658350498
1580421257.92118,-1.01832608529793,0.166750591287098,-0.0813000686655982
1580421257.95336,-0.932875562676433,0.167238879987792,-0.0793469138628211
1580421257.98553,-0.980239566643778,0.218509193560692,-0.117433432516975
1580421258.01771,-1.00611886778058,0.2434119172961,-0.119874876020447
1580421258.04989,-1.0207675288014,0.174563210498206,-0.134523537041275
1580421258.08207,-0.988052185854887,0.154543373769741,-0.102296482795452
1580421258.11424,-0.998794537270161,0.237064164187075,-0.153566796368352
1580421258.14642,-1.0300450141146,0.227298390173189,-0.148195620660715
1580421258.1786,-1.04567025253681,0.204348821240558,-0.0896009765774011
1580421258.21078,-1.03150988021668,0.149172198062104,-0.073975738155184
1580421258.24295,-1.03688105592432,0.187258716716258,-0.0720225833524069
1580421258.27513,-1.0979171435111,0.208743419546806,-0.027588311589227
1580421258.30731,-1.16041809719997,0.0227054245822842,-0.0271000228885327
1580421258.33949,-1.06861982146944,-0.174563210498206,0.0559090562294955
1580421258.37166,-1.07643244068055,-0.0690928511482412,0.00952162966353853
1580421258.40384,-1.14723430228122,0.196047913328755,-0.159914549477378
1580421258.43602,-1.16188296330205,0.281986724650949,-0.251224536507211
1580421258.4682,-1.12623788815137,0.203372243839169,-0.104737926298924
1580421258.50037,-1.05445944914931,0.0217288471808956,0.070557717250324
1580421258.53268,-0.981216144045167,-0.0222171358815899,0.106202792401007
1580421258.56486,-0.931898985275044,-0.00122072175173571,0.120851453421835
1580421258.59704,-0.866956588082704,0.0334477759975584,0.129152361333638
1580421258.62922,-0.817151140611887,-0.037842374303807,0.158937972075989
1580421258.6614,-0.781506065461205,-0.111573968108644,0.171633478294041
1580421258.69357,-0.790783550774396,-0.142336156252384,0.242435339894712
1580421258.72575,-0.837659266041047,-0.0632333867399097,0.295658808270389
1580421258.75793,-0.82203402761883,-0.0158693827725642,0.396246280613411
1580421258.79011,-0.830823224231327,0.0349126420996413,0.499763485160599
1580421258.82228,-0.906507972838941,-0.00268558785381856,0.574959945067523
1580421258.85446,-0.964126039520867,-0.103273060196841,0.668223086900131
1580421258.88664,-0.955825131609064,-0.136476691844052,0.717051956969559
1580421258.91882,-0.862561989776456,-0.106691081101701,0.449958037689782
1580421258.951,-0.786877241168842,-0.119874876020447,0.426520180056457
1580421258.98318,-0.771252002746625,-0.0734874494544897,0.439215686274508
1580421259.01535,-0.909925993743801,0.149660486762798,0.326909285114823
1580421259.04753,-0.928969253070878,0.148195620660715,0.345464255741206
1580421259.07971,-1.14821087968261,-0.203372243839169,0.430426489662011
1580421259.11189,-1.16578927290761,-0.216556038757915,0.482673380636299
1580421259.14406,-0.894789044022279,-0.0695811398489354,0.0974135957885096
1580421259.17624,-0.85279621576257,0.0969253070878153,0.0349126420996413
1580421259.20842,-0.928969253070878,0.307377737087052,0.0744640268558783
1580421259.2406,-0.961684596017395,0.413824673838405,0.0627450980392155
1580421259.27278,-0.986587319752804,0.30151827267872,0.137941557946135
1580421259.30495,-1.00221255817502,0.103761348897535,0.130617227435721
1580421259.33713,-1.0036774242771,0.107179369802395,0.142336156252384
1580421259.36931,-0.954360265506981,0.158449683375295,0.0539559014267184
1580421259.40149,-0.971450370031281,0.173586633096818,0.0100099183642328
1580421259.43367,-0.990005340657664,0.201907377737086,0.00317387655451284
1580421259.46584,-0.990005340657664,0.343022812237734,-0.0104982070649271
1580421259.49802,-0.989028763256275,0.283939879453726,-0.0554207675288012
1580421259.5302,-0.948012512397955,0.184817273212786,-0.103273060196841
1580421259.56238,-0.976821545738918,0.200442511635003,-0.0881361104753182
1580421259.59455,-0.984634164950027,0.148683909361409,-0.0422369726100555
1580421259.62673,-0.97242694743267,0.140871290150301,-0.0549324788281069
1580421259.65891,-0.963149462119478,0.230228122377355,-0.118898298619058
1580421259.69109,-0.984634164950027,0.254642557412069,-0.132082093537804
1580421259.72327,-1.02272068360418,0.175539787899595,-0.105226214999618
1580421259.75545,-0.996841382467384,0.137453269245441,-0.114015411612115
1580421259.78762,-0.969985503929198,0.202883955138475,-0.137941557946135
1580421259.81998,-0.964614328221561,0.264408331425955,-0.139894712748912
1580421259.85215,-1.04371709773404,0.29126420996414,-0.183840695811398
1580421259.88433,-1.04908827344167,0.177004654001678,-0.139406424048218
1580421259.91651,-1.07887388418402,0.141847867551689,-0.0666514076447697
1580421259.94869,-1.14869916838331,0.158937972075989,0.000732433051041426
1580421259.98087,-1.18043793392843,0.0524910353246355,-0.0622568093385212
1580421260.01304,-1.09108110170138,-0.175539787899595,-0.0158693827725642
1580421260.04522,-1.08863965819791,-0.0646982528419926,-0.137941557946135
1580421260.0774,-1.08473334859235,0.224856946669718,-0.177981231403066
1580421260.10958,-1.02223239490349,0.302983138780803,-0.191653315022506
1580421260.14176,-1.11305409323262,0.275150682841229,-0.132082093537804
1580421260.17393,-1.13453879606317,0.117433432516975,-0.0314946211947813
1580421260.20611,-1.21168841077287,-0.0710460059510183,0.145754177157244
1580421260.23829,-1.06861982146944,-0.119874876020447,0.165285725185015
1580421260.27047,-0.885999847409781,-0.0866712443732354,0.122316319523918
1580421260.30264,-0.773693446250096,-0.0471198596169984,0.077393759060044
1580421260.33482,-0.798596169985505,-0.0319829098954756,0.146242465857938
1580421260.367,-0.758556496528573,-0.0559090562294955,0.203860532539863
1580421260.39918,-0.689707789730678,-0.133058670939192,0.191165026321812
1580421260.43136,-0.651621271076523,-0.0427252613107498,0.203860532539863
1580421260.46353,-0.83228809033341,0.0783703364614325,0.544686045624477
1580421260.49571,-0.970473792629893,-0.0114747844663157,0.719493400473031
1580421260.52789,-0.912367437247273,-0.0222171358815899,0.767833981841765
1580421260.56007,-0.919203479056993,0.034424353398947,0.636484321355002
1580421260.59225,-0.832776379034105,-0.0300297550926985,0.51197070267796
1580421260.62442,-0.797619592584116,-0.265384908827345,0.606698710612651
1580421260.6566,-0.938735027084764,-0.211184863050278,0.418707560845348
1580421260.68878,-0.911879148546578,0.0744640268558783,0.232181277180132
1580421260.72096,-1.02906843671321,-0.0109864957656214,0.464118410009917
1580421260.75314,-1.03492790112154,0.0334477759975584,0.553963530937668
1580421260.78531,-0.997329671168078,0.0139162279697871,0.191165026321812
1580421260.81749,-0.801037613488976,-0.0783703364614325,0.100343327992675
1580421260.84967,-0.957289997711147,0.0803234912642097,0.130128938735027
1580421260.88185,-1.01393148699168,0.196536202029449,0.0471198596169984
1580421260.91403,-0.966567483024338,0.288334477759975,0.0500495918211641
1580421260.9462,-0.978774700541695,0.30151827267872,0.0578622110322726
1580421260.97838,-1.00221255817502,0.210208285648889,0.0871595330739297
1580421261.01056,-0.998794537270161,0.147219043259327,0.0490730144197755
1580421261.04274,-0.987563897154192,0.0954604409857325,0.0505378805218584
1580421261.07492,-0.981704432745861,0.129640650034332,0.0227054245822842
1580421261.10721,-0.971450370031281,0.162355992980849,-0.00317387655451284
1580421261.13939,-0.997329671168078,0.160891126878766,-0.00268558785381856
1580421261.17156,-0.971450370031281,0.198001068131532,-0.0544441901274126
1580421261.20374,-0.993423361562524,0.250736247806515,-0.0402838178072784
1580421261.23592,-0.929457541771573,0.202883955138475,-0.0490730144197755
1580421261.2681,-0.947524223697261,0.208743419546806,-0.112062256809338
1580421261.30027,-0.933852140077821,0.191653315022506,-0.129152361333638
1580421261.33245,-0.973891813534753,0.160402838178072,-0.0896009765774011
1580421261.36463,-0.993423361562524,0.198001068131532,-0.060303654535744
1580421261.39681,-1.04859998474098,0.202395666437781,-0.0979018844892039
1580421261.42899,-1.02858014801251,0.215579461356526,-0.0847180895704582
1580421261.46116,-1.00221255817502,0.150148775463492,-0.0915541313801782
1580421261.49334,-0.992446784161135,0.157473105973907,-0.0783703364614325
1580421261.52552,-1.07350270847639,0.290775921263446,-0.0920424200808725
1580421261.5577,-1.05445944914931,0.288334477759975,-0.0988784618905925
1580421261.58988,-1.04127565423056,0.237552452887769,-0.0754406042572668
1580421261.62205,-1.09498741130693,0.156984817273212,-0.080811779964904
1580421261.65423,-1.17848477912566,0.0798352025635154,-0.0183108262760356
1580421261.68641,-1.11305409323262,-0.0974135957885096,0.0715342946517126
1580421261.71859,-1.06813153276875,-0.189700160219729,-0.0383306630045013
1580421261.75077,-1.07154955367361,-0.0646982528419926,-0.0485847257190812
1580421261.78294,-1.1579766536965,0.118410009918364,-0.223392080567635
1580421261.81512,-1.13844510566873,0.294682230869,-0.194583047226672
1580421261.8473,-1.10328831921874,0.279545281147477,-0.0432135500114441
1580421261.87948,-1.05885404745556,0.168703746089875,0.114991989013504
1580421261.91166,-1.02760357061112,0.067139696345464,0.217532616159303
1580421261.94383,-0.891371023117419,0.0109864957656214,0.137941557946135
1580421261.97601,-0.820080872816053,-0.0153810940718699,0.114015411612115
1580421262.00819,-0.803967345693142,-0.0217288471808956,0.195071335927366
1580421262.04037,-0.80494392309453,-0.0778820477607383,0.258060578316929
1580421262.07255,-0.81177996490425,-0.0651865415426869,0.26392004272526
1580421262.10472,-0.843030441748684,-0.027588311589227,0.286381322957197
1580421262.1369,-0.850354772259099,-0.00805676356145568,0.325932707713434
1580421262.16908,-0.908949416342413,0.0402838178072784,0.4143129625391
1580421262.20126,-0.898695353627833,-0.0476081483176927,0.510505836575877
1580421262.23343,-0.894789044022279,-0.164309147783626,0.695078965438316
1580421262.26561,-0.930922407873656,-0.0710460059510183,0.568123903257803
1580421262.29779,-0.926527809567407,0.0339360646982527,0.509529259174489
1580421262.32997,-0.845471885252156,-0.0144045166704814,0.524666208896011
1580421262.36215,-0.750255588616771,0.0354009308003356,0.460700389105057
1580421262.3945,-0.751720454718853,0.0598153658350498,0.417242694743265
1580421262.42668,-1.0637369344625,0.259525444419012,0.227786678873883
1580421262.45886,-1.12867933165484,0.145265888456549,0.341069657434957
1580421262.49104,-1.23366140230411,-0.38110933089189,0.259525444419012
1580421262.52321,-0.971938658731975,-0.420172426947433,0.172121766994735
1580421262.55539,-0.847913328755627,-0.144289311055161,0.0319829098954756
1580421262.58757,-0.907972838941024,0.504158083466852,-0.137941557946135
1580421262.61975,-1.03492790112154,0.590096894789045,-0.0368657969024184
1580421262.65193,-1.00514229037919,0.217044327458609,0.170656900892652
1580421262.68411,-1.04811169604028,-0.00952162966353853,0.189211871519035
1580421262.71628,-0.96217288471809,0.060303654535744,0.166750591287098
1580421262.74846,-0.93824673838407,0.193606469825284,0.123292896925307
1580421262.78064,-0.97926298924239,0.253177691309986,0.0842298008697639
1580421262.81282,-0.941176470588236,0.32544441901274,-0.0456549935149155
1580421262.845,-0.981216144045167,0.270267795834286,-0.0324711985961699
1580421262.87718,-1.01051346608682,0.216067750057221,-0.0515144579232469
1580421262.90935,-1.00514229037919,0.146730754558632,-0.0319829098954756
1580421262.94153,-1.03639276722362,0.158937972075989,-0.080811779964904
1580421262.97371,-0.990493629358358,0.105714503700312,-0.0764171816586554
1580421263.00589,-0.980727855344472,0.037842374303807,0.0456549935149155
1580421263.03807,-1.0036774242771,0.190676737621118,0.00219729915312428
1580421263.07025,-1.03053330281529,0.208743419546806,0.0129396505683985
1580421263.10242,-1.03102159151598,0.10766765850309,-0.0354009308003356
1580421263.1346,-1.06471351186389,0.0187991149767299,0.0617685206378269
1580421263.16678,-1.09840543221179,0.0524910353246355,0.0510261692225527
1580421263.19896,-1.28151369497215,0.297611963073166,0.302006561379415
1580421263.23114,-1.33034256504158,0.187258716716258,0.158449683375295
1580421263.26332,-1.09108110170138,-0.0632333867399097,0.0788586251621268
1580421263.2955,-0.943129625391013,-0.114991989013504,0.037842374303807
1580421263.32767,-0.990005340657664,0.324467841611352,0.165285725185015
1580421263.35985,-1.0637369344625,0.687754634927902,0.0349126420996413
1580421263.39203,-1.02223239490349,0.483649958037688,-0.00170901045242999
1580421263.42421,-1.03492790112154,0.343999389639123,0.119386587319752
1580421263.45639,-1.04615854123751,0.161379415579461,0.103273060196841
1580421263.48857,-1.00025940337224,0.0759288929579611,0.0803234912642097
1580421263.52074,-0.960219729915313,0.0559090562294955,0.116945143816281
1580421263.55292,-0.969497215228504,0.00170901045242999,0.139406424048218
1580421263.5851,-0.943129625391013,-0.00610360875867855,0.211184863050278
1580421263.61728,-0.902601663233387,0.0373540856031127,0.161379415579461
1580421263.64946,-0.928480964370184,0.0915541313801782,0.150637064164187
1580421263.68173,-1.00758373388266,0.0622568093385212,0.177004654001678
1580421263.71391,-1.00953688868544,-0.115480277714198,0.269291218432897
1580421263.74609,-0.884534981307699,-0.157961394674601,0.382574196993971
1580421263.77827,-0.941176470588236,-0.0534676127260241,0.374761577782863
1580421263.81045,-0.984145876249332,-0.0524910353246355,0.440680552376591
1580421263.84263,-0.864026855878539,-0.0852063782711525,0.577401388570994
1580421263.8748,-0.76734569314107,0.0910658426794839,0.358159761959257
1580421263.90698,-0.847913328755627,0.102784771496147,0.377691309987028
1580421263.93916,-0.84937819485771,0.153566796368352,0.38355077439536
1580421263.97134,-0.903089951934081,-0.0261234454871442,0.302983138780803
1580421264.00352,-1.09010452429999,-0.077393759060044,0.0568856336308841
1580421264.0357,-1.36452277409018,-0.262455176623179,0.418707560845348
1580421264.06788,-0.852307927061876,-0.149172198062104,0.226810101472495
1580421264.10006,-0.829846646829939,0.0393072404058898,-0.0349126420996413
1580421264.13224,-1.03395132372015,0.34937056534676,0.0891126878767068
1580421264.16441,-0.920668345159076,0.4314030670634,0.0319829098954756
1580421264.19659,-1.02858014801251,0.112550545510032,0.0314946211947813
1580421264.22877,-1.00514229037919,-0.000244144350347142,0.106202792401007
1580421264.26095,-0.967544060425727,0.211673151750972,0.0437018387121384
1580421264.29313,-1.0041657129778,0.321049820706492,0.0290531776913099
1580421264.32531,-0.935317006179904,0.2434119172961,0.0114747844663157
1580421264.35749,-1.01393148699168,0.127199206530861,-0.0100099183642328
1580421264.38967,-1.04908827344167,0.145754177157244,-0.0256351567864499
1580421264.42185,-1.04029907682918,0.174563210498206,-0.0388189517051956
1580421264.45403,-0.953383688105593,0.131593804837109,-0.0715342946517126
1580421264.4862,-1.09156939040207,0.567147325856414,0.00317387655451284
1580421264.51838,-0.992446784161135,0.226810101472495,-0.0427252613107498
1580421264.55056,-1.00953688868544,0.234134431982909,-0.0764171816586554
1580421264.58274,-1.0041657129778,0.125246051728084,-0.00512703135728998
1580421264.61492,-0.95875486381323,0.0686045624475469,-0.0656748302433812
1580421264.6471,-0.97242694743267,0.128664072632944,-0.154543373769741
1580421264.67928,-0.983657587548638,0.185793850614175,-0.128664072632944
1580421264.71146,-1.03346303501946,0.223392080567635,-0.0266117341878385
1580421264.74363,-1.03199816891737,0.150637064164187,-0.0158693827725642
1580421264.77581,-1.06178377965972,0.178957808804455,-0.0158693827725642
1580421264.80799,-1.12965590905623,0.281986724650949,0.106691081101701
1580421264.84017,-1.2004577706569,0.258060578316929,0.0368657969024184
1580421264.87235,-1.19459830624857,0.00170901045242999,-0.000244144350347142
1580421264.90453,-1.10475318532082,-0.247806515602349,-0.0451667048142212
1580421264.93671,-1.12623788815137,-0.0393072404058898,-0.210208285648889
1580421264.96905,-1.09401083390555,0.242435339894712,-0.310307469291219
1580421265.00123,-1.07692072938125,0.302983138780803,-0.245853360799572
1580421265.03341,-1.21657129777981,0.115480277714198,-0.122804608224612
1580421265.06559,-1.14576943617914,-0.0422369726100555,0.0593270771343555
1580421265.09777,-1.04811169604028,-0.0827649347676811,0.0769054703593497
1580421265.12995,-0.877698939497979,-0.0666514076447697,0.10083161669337
1580421265.16213,-0.801037613488976,0.0549324788281069,0.00805676356145568
1580421265.19431,-0.756603341725796,0.0759288929579611,0.0559090562294955
1580421265.22649,-0.717051956969557,-0.0075684748607614,0.152101930266269
1580421265.25867,-0.735118638895246,-0.110109102006561,0.26392004272526
1580421265.29085,-0.824963759822996,-0.10424963759823,0.317143511100937
1580421265.32303,-0.908949416342413,-0.112062256809338,0.639414053559168
1580421265.35521,-0.928480964370184,-0.10083161669337,0.750743877317465
1580421265.38739,-0.853772793163959,-0.0817883573662925,0.833752956435493
1580421265.41957,-0.955825131609064,-0.063721675440604,0.462653543907834
1580421265.45175,-0.770275425345236,-0.0202639810788128,0.559334706645306
1580421265.48392,-0.570565346761272,-0.0388189517051956,0.567147325856414
1580421265.5161,-0.911390859845884,0.273197528038452,0.161379415579461
1580421265.54828,-1.17116044861524,0.0407721065079727,0.42114900434882
1580421265.58046,-1.41969939726864,-0.131105516136415,0.601815823605708
1580421265.61264,-0.719493400473029,-0.249271381704432,-0.110597390707255
1580421265.64482,-0.848401617456322,-0.024170290684367,0.0617685206378269
1580421265.677,-1.12428473334859,0.647226672770277,-0.10766765850309
1580421265.70918,-0.94166475928893,0.533455405508509,-0.00854505226214997
1580421265.74136,-0.994399938963912,0.127687495231555,0.0856946669718468
1580421265.77354,-1.02809185931182,0.0759288929579611,0.0520027466239412
1580421265.80572,-0.998306248569467,0.124269474326695,0.0563973449301898
1580421265.8379,-0.950942244602121,0.149660486762798,0.0563973449301898
1580421265.87008,-1.00856031128405,0.130128938735027,0.115480277714198
1580421265.90226,-0.963637750820173,0.200442511635003,-0.0305180437933927
1580421265.93443,-0.928969253070878,0.288334477759975,-0.0749523155565726
1580421265.96661,-0.974868390936141,0.306401159685663,-0.100343327992675
1580421265.99879,-0.99977111467155,0.168703746089875,-0.0715342946517126
1580421266.03097,-0.948989089799344,0.063721675440604,-0.0163576714732585
1580421266.06315,-0.952407110704204,0.199465934233615,-0.077393759060044
1580421266.09533,-1.00856031128405,0.291752498664835,-0.0954604409857325
1580421266.12751,-1.02467383840696,0.237552452887769,-0.114015411612115
1580421266.15969,-1.02711528191043,0.141359578850995,-0.128664072632944
1580421266.19187,-1.03346303501946,0.0515144579232469,-0.156008239871824
1580421266.22405,-1.06764324406805,0.153078507667658,-0.108155947203784
1580421266.25641,-1.09645227740902,0.260990310521095,-0.103273060196841
1580421266.28859,-1.01979095140002,0.206301976043335,-0.0207522697795071
1580421266.32077,-1.0378576333257,0.201907377737086,-0.0441901274128327
1580421266.35295,-1.1067063401236,0.267826352330815,-0.0339360646982527
1580421266.38513,-1.06861982146944,0.070557717250324,-0.116945143816281
1580421266.41731,-1.07594415197986,-0.0788586251621268,-0.0422369726100555
1580421266.44949,-1.03883421072709,0.0515144579232469,0.0158693827725642
1580421266.48167,-1.00758373388266,0.152101930266269,-0.127199206530861
1580421266.51385,-1.17897306782635,0.113038834210727,-0.198001068131532
1580421266.54603,-1.20631723506523,0.11792172121767,-0.0622568093385212
1580421266.57821,-1.32497138933394,0.111573968108644,0.0935072861829553
1580421266.61039,-1.19703974975204,-0.0583504997329669,0.275638971541923
1580421266.64257,-0.937758449683376,-0.157961394674601,0.136476691844052
1580421266.67475,-0.781994354161899,-0.164797436484321,0.164309147783626
1580421266.70693,-0.699961852445258,-0.127687495231555,0.199465934233615
1580421266.73911,-0.621347371633478,-0.125734340428778,0.190188448920424
1580421266.77129,-0.618905928130006,-0.073975738155184,0.153078507667658
1580421266.80346,-0.614511329823758,-0.243900205996795,0.247806515602349
1580421266.83564,-0.657969024185549,0.156984817273212,0.608651865415428
1580421266.86783,-0.907972838941024,0.169680323491264,0.714610513466088
1580421266.9,-0.935805294880598,0.00415045395590141,0.937758449683376
1580421266.93218,-0.883070115205616,-0.169680323491264,0.610605020218205
1580421266.96437,-0.844495307850767,-0.180910963607232,0.315678644998854
1580421266.99654,-0.942641336690318,-0.369878690775922,0.50513466086824
1580421267.02872,-0.967055771725033,-0.0256351567864499,0.563729304951554
1580421267.0609,-1.24586861982147,0.157473105973907,0.237064164187075
1580421267.09308,-1.09205767910277,0.070557717250324,0.177004654001678
1580421267.12526,-0.819592584115359,-0.024170290684367,0.0178225375753414
1580421267.15744,-0.926527809567407,0.262943465323872,0.0227054245822842
1580421267.18962,-1.01002517738613,0.376226443884946,0.0290531776913099
1580421267.2218,-0.95533684290837,0.188235294117646,0.122804608224612
1580421267.25398,-0.962661173418784,0.0144045166704814,0.0563973449301898
1580421267.28616,-0.978774700541695,0.182375829709315,0.0588387884336612
1580421267.31834,-0.976333257038224,0.280033569848172,-0.0358892195010299
1580421267.35052,-0.965102616922255,0.219485770962081,0.00708018616006711
1580421267.3827,-0.967055771725033,0.304448004882886,0.0129396505683985
1580421267.41488,-0.927016098268101,0.248783093003738,-0.0861829556725411
1580421267.44706,-0.94850080109865,0.162355992980849,-0.0549324788281069
1580421267.47924,-0.983169298847944,0.096437018387121,-0.0891126878767068
1580421267.51142,-0.985610742351415,0.0920424200808725,-0.108644235904478
1580421267.5437,-1.01197833218891,0.179446097505149,-0.11108567940795
1580421267.57588,-1.06569008926528,0.268802929732203,-0.0925307087815668
1580421267.60806,-1.04274052033265,0.218509193560692,-0.0686045624475469
1580421267.64024,-1.02565041580835,0.166262302586404,-0.0544441901274126
1580421267.67242,-1.07057297627222,0.145265888456549,-0.112062256809338
1580421267.7046,-1.1403982604715,0.200930800335698,-0.0163576714732585
1580421267.73678,-1.18580910963607,0.190188448920424,0.0456549935149155
1580421267.76896,-1.22194247348745,0.203372243839169,0.105714503700312
1580421267.80114,-1.20436408026245,0.0476081483176927,0.0778820477607383
1580421267.83332,-1.11158922713054,-0.135500114442664,-0.0788586251621268
1580421267.8655,-1.17848477912566,-0.0124513618677042,-0.215091172655832
1580421267.89768,-1.10182345311665,0.235111009384298,-0.309330891889831
1580421267.92986,-1.14869916838331,0.273197528038452,-0.131593804837109
1580421267.96204,-1.0466468299382,0.188723582818341,0.0759288929579611
1580421267.99422,-1.02027924010071,0.108644235904478,0.0695811398489354
1580421268.0264,-0.922621499961853,0.0295414663920042,0.160402838178072
1580421268.05858,-0.827893492027162,-0.0954604409857325,0.181399252307926
1580421268.09076,-0.710704203860532,-0.12133974212253,0.146242465857938
1580421268.12294,-0.700450141145952,-0.0881361104753182,0.187258716716258
1580421268.15512,-0.714122224765392,-0.109132524605172,0.282475013351643
1580421268.1873,-0.703379873350118,-0.149172198062104,0.288822766460669
1580421268.21948,-0.726329442282749,-0.158449683375295,0.429938200961317
1580421268.25166,-0.814709697108416,0.067139696345464,0.664805065995271
1580421268.28384,-1.00074769207294,0.0856946669718468,0.669687953002214
1580421268.31602,-0.938735027084764,-0.0305180437933927,0.952895399404898
1580421268.3482,-0.851331349660487,-0.106691081101701,0.643320363164722
1580421268.38038,-0.78101777676051,-0.155519951171129,0.456794079499502
1580421268.41256,-0.853284504463264,-0.0500495918211641,0.507576104371712
1580421268.44474,-0.949965667200733,0.166750591287098,0.25366598001068
1580421268.47692,-1.28102540627146,0.0544441901274126,0.456794079499502
1580421268.5091,-1.12428473334859,0.0153810940718699,0.186282139314869
1580421268.54128,-0.706309605554283,-0.228274967574578,-0.202395666437781
1580421268.57345,-1.04322880903334,0.254642557412069,0.133058670939192
1580421268.60563,-1.03395132372015,0.456305790798808,-0.0256351567864499
1580421268.63781,-0.939223315785458,0.11792172121767,0.228763256275272
1580421268.66999,-0.980727855344472,0.0554207675288012,0.173098344396124
1580421268.70217,-0.994399938963912,0.110597390707255,0.0563973449301898
1580421268.73435,-0.959243152513924,0.256595712214846,0.110597390707255
1580421268.76653,-0.935317006179904,0.231692988479438,0.0397955291065841
1580421268.79871,-0.934340428778516,0.236087586785686,-0.00268558785381856
1580421268.83108,-0.936781872281987,0.309819180590523,-0.0163576714732585
1580421268.86327,-0.949477378500038,0.170168612191958,-0.0104982070649271
1580421268.89544,-1.03736934462501,0.0656748302433812,0.070557717250324
1580421268.92763,-0.991470206759747,0.0280766002899213,0.0559090562294955
1580421268.95981,-0.944594491493095,0.249271381704432,0.0261234454871442
1580421268.99199,-1.0300450141146,0.364019226367589,-0.111573968108644
1580421269.02417,-1.01832608529793,0.220462348363469,-0.0358892195010299
1580421269.05635,-1.0300450141146,0.0612802319371326,-0.0402838178072784
1580421269.08853,-1.02906843671321,0.0583504997329669,0.0349126420996413
1580421269.12071,-1.08326848249027,0.209719996948195,0.000732433051041426
1580421269.15289,-1.10914778362707,0.228274967574578,0.135988403143358
1580421269.18507,-1.11110093842985,0.0847180895704582,0.156008239871824
1580421269.21725,-1.26735332265202,0.0837415121690697,0.0144045166704814
1580421269.24943,-1.19948119325551,-0.0129396505683985,-0.10083161669337
1580421269.28161,-1.14186312657359,0.0349126420996413,-0.0832532234683754
1580421269.31379,-1.18776226443885,0.259037155718318,-0.198001068131532
1580421269.34597,-1.17994964522774,0.273685816739146,-0.195071335927366
1580421269.37815,-1.11451895933471,0.0388189517051956,-0.0197756923781185
1580421269.41033,-1.0808270389868,-0.0471198596169984,0.10424963759823
1580421269.44251,-0.995376516365301,-0.0256351567864499,0.128664072632944
1580421269.47469,-0.847425040054933,-0.0231937132829785,0.10424963759823
1580421269.50687,-0.720469977874417,-0.0417486839093613,0.106202792401007
1580421269.53905,-0.695567254139009,-0.0568856336308841,0.203860532539863
1580421269.57123,-0.710215915159838,-0.0803234912642097,0.180910963607232
1580421269.60341,-0.666758220798046,-0.073975738155184,0.238529030289158
1580421269.63559,-0.703868162050812,-0.103273060196841,0.371831845578697
1580421269.66777,-0.810315098802167,0.0417486839093613,0.536873426413369
1580421269.69995,-0.960219729915313,0.121828030823224,0.656015869382774
1580421269.73213,-0.941176470588236,0.0046387426565957,0.814221408407722
1580421269.76431,-0.963149462119478,-0.0749523155565726,0.755138475623713
1580421269.79649,-0.906507972838941,-0.239505607690546,0.683360036621654
1580421269.82867,-0.790783550774396,-0.337163347829405,0.577889677271688
1580421269.86085,-0.909437705043107,-0.150637064164187,0.261966887922483
1580421269.89303,-0.827893492027162,0.0495613031204698,0.35962462806134
1580421269.92522,-1.23756771190967,0.264896620126649,0.548592355230031
1580421269.9574,-1.21217669947356,0.174074921797512,0.144777599755855
1580421269.98958,-0.692637521934843,-0.0363775082017241,-0.129640650034332
1580421270.02176,-0.923109788662547,0.143801022354467,0.0837415121690697
1580421270.05394,-1.09059281300069,0.401129167620354,0.0280766002899213
1580421270.08612,-0.951430533302815,0.125246051728084,0.138429846646829
1580421270.1185,-0.976333257038224,-0.0280766002899213,0.185305561913481
1580421270.15068,-0.977798123140307,0.182864118410009,0.0432135500114441
1580421270.18286,-1.00123598077363,0.291752498664835,0.01196307316701
1580421270.21504,-0.95875486381323,0.208255130846112,0.0046387426565957
1580421270.24722,-0.968032349126421,0.135988403143358,0.0305180437933927
1580421270.2794,-0.996841382467384,0.171633478294041,0.0437018387121384
1580421270.31158,-0.949965667200733,0.149172198062104,-0.0695811398489354
1580421270.34377,-0.957778286411841,0.145754177157244,-0.037842374303807
1580421270.37595,-0.985610742351415,0.214602883955138,-0.0305180437933927
1580421270.40813,-0.873792629892424,0.227786678873883,-0.0261234454871442
1580421270.44031,-0.932387273975738,0.273197528038452,-0.0935072861829553
1580421270.47249,-1.04908827344167,0.251712825207903,-0.0554207675288012
1580421270.50467,-1.05885404745556,0.135988403143358,-0.0261234454871442
1580421270.53685,-1.05787747005417,0.0803234912642097,0.0300297550926985
1580421270.56903,-1.03590447852293,0.0778820477607383,0.0354009308003356
1580421270.60121,-1.1237964446479,0.235111009384298,0.0153810940718699
1580421270.63339,-1.17213702601663,0.25366598001068,0.060303654535744
1580421270.66557,-1.18141451132982,0.191165026321812,0.11450370031281
1580421270.69775,-1.29127946898604,0.0681162737468526,0.0354009308003356
1580421270.72993,-1.1750667582208,-0.139894712748912,-0.01196307316701
1580421270.76212,-1.14381628137636,-0.0397955291065841,-0.0769054703593497
1580421270.7943,-1.16578927290761,0.375738155184251,-0.11108567940795
1580421270.82648,-1.05836575875486,0.524666208896011,-0.124269474326695
1580421270.85866,-1.0471351186389,0.325932707713434,-0.0407721065079727
1580421270.89084,-1.06666666666667,0.161379415579461,0.00415045395590141
1580421270.92302,-0.989028763256275,0.0520027466239412,0.0832532234683754
1580421270.9552,-0.87330434119173,0.0549324788281069,0.0866712443732354
1580421270.98738,-0.887464713511864,0.155519951171129,0.0358892195010299
1580421271.01956,-0.907972838941024,0.0949721522850382,0.134035248340581
1580421271.05174,-0.883070115205616,0.0295414663920042,0.192629892423895
1580421271.08392,-0.847425040054933,-0.0554207675288012,0.297611963073166
1580421271.1161,-0.884046692607004,-0.0466315709163041,0.306401159685663
1580421271.14828,-0.917250324254216,0.070557717250324,0.258060578316929
1580421271.18046,-0.868909742885482,-0.119386587319752,0.254642557412069
1580421271.21265,-0.771252002746625,-0.0139162279697871,0.484626535439077
1580421271.24483,-0.976333257038224,0.0720225833524069,0.492439154650185
1580421271.27701,-1.19069199664301,0.0251468680857556,0.5769130998703
1580421271.30919,-0.95191882200351,-0.0915541313801782,0.372320134279391
1580421271.34137,-0.824963759822996,-0.0827649347676811,0.302494850080109
1580421271.37355,-0.843518730449379,0.0324711985961699,0.129152361333638
1580421271.40579,-1.1150072480354,0.121828030823224,0.0803234912642097
1580421271.43797,-1.18287937743191,0.0495613031204698,-0.00610360875867855
1580421271.47015,-1.30006866559854,-0.297123674372473,0.165774013885709
1580421271.50234,-0.865491721980622,-0.302006561379416,0.0197756923781185
1580421271.53452,-0.82545204852369,-0.0178225375753414,-0.0954604409857325
1580421271.5667,-1.02467383840696,0.495368886854351,0.11792172121767
1580421271.59888,-0.987563897154192,0.739513237201496,0.0178225375753414
1580421271.63106,-0.984145876249332,0.241947051194018,0.0842298008697639
1580421271.66324,-1.04811169604028,0.0568856336308841,0.156008239871824
1580421271.69542,-0.943129625391013,-0.0134279392690928,0.130617227435721
1580421271.7276,-0.955825131609064,0.170168612191958,-0.0490730144197755
1580421271.75979,-1.02320897230488,0.331792172121766,-0.031006332494087
1580421271.79197,-0.917250324254216,0.282963302052337,0.0661631189440754
1580421271.82415,-0.954848554207675,0.195559624628061,-0.0871595330739297
1580421271.85633,-1.08815136949721,0.142336156252384,-0.0573739223315783
1580421271.88851,-1.01588464179446,0.0930189974822611,0.0285648889906156
1580421271.92069,-1.0207675288014,0.103761348897535,-0.0271000228885327
1580421271.95287,-0.950453955901427,0.210696574349583,-0.169680323491264
1580421271.98505,-0.993423361562524,0.172121766994735,-0.122316319523918
1580421272.01724,-0.925062943465324,0.119386587319752,-0.119386587319752
1580421272.04942,-0.983657587548638,0.147219043259327,-0.0817883573662925
1580421272.0816,-1.01539635309377,0.115480277714198,-0.0827649347676811
1580421272.11378,-1.0295567254139,0.0280766002899213,0.0578622110322726
1580421272.14596,-1.13063248645762,0.0734874494544897,0.139894712748912
1580421272.17814,-1.13307392996109,0.155031662470435,0.104737926298924
1580421272.21032,-1.15407034409094,0.258060578316929,0.167238879987792
1580421272.2425,-1.14723430228122,0.197024490730143,0.245853360799572
1580421272.27469,-1.0979171435111,0.0134279392690928,0.191653315022506
1580421272.30687,-1.1150072480354,-0.129640650034332,0.10766765850309
1580421272.33905,-1.03248645761807,-0.073975738155184,0.177492942702372
1580421272.37123,-1.15162890058747,0.301029983978026,0.0622568093385212
1580421272.40341,-1.21559472037842,0.560799572747388,-0.0495613031204698
1580421272.43559,-1.12819104295415,0.325932707713434,0.0129396505683985
1580421272.46777,-1.02174410620279,-0.00219729915312428,0.0642099641412983
1580421272.49995,-0.991958495460441,-0.102296482795452,0.145754177157244
1580421272.53214,-0.840588998245213,0.0168459601739528,0.0734874494544897
1580421272.56432,-0.803967345693142,-0.00317387655451284,0.0944838635843439
1580421272.5965,-0.80836194399939,-0.183840695811398,0.150637064164187
1580421272.62868,-0.735118638895246,-0.354741741054399,0.327397573815517
1580421272.66086,-0.754161898222325,-0.301518272678722,0.362066071564811
1580421272.69327,-0.81519798580911,-0.143312733653772,0.381109330891888
1580421272.72545,-0.90064850843061,-0.0368657969024184,0.466071564812694
1580421272.75763,-0.865491721980622,0.0168459601739528,0.836194399938964
1580421272.78981,-0.738536659800106,0.0129396505683985,0.747325856412605
1580421272.82199,-0.851819638361182,0.0334477759975584,0.495368886854351
1580421272.85418,-0.930434119172961,-0.147707331960021,0.615976195925843
1580421272.88636,-0.895277332722973,-0.226321812771801,0.643320363164722
1580421272.91854,-0.867444876783399,-0.130617227435721,0.478767071030745
1580421272.95072,-0.946059357595178,-0.0114747844663157,0.310795757991912
1580421272.9829,-1.03492790112154,0.0866712443732354,0.492927443350879
1580421273.01508,-0.764904249637599,-0.131105516136415,0.230228122377355
1580421273.04727,-0.99977111467155,-0.0368657969024184,0.0334477759975584
1580421273.07945,-1.02760357061112,0.342046234836346,0.0319829098954756
1580421273.11163,-1.00123598077363,0.373785000381474,0.070557717250324
1580421273.14381,-0.990493629358358,0.302983138780803,0.0681162737468526
1580421273.17599,-0.966567483024338,0.110597390707255,0.109132524605172
1580421273.20817,-1.02223239490349,0.128175783932249,0.10766765850309
1580421273.24036,-0.938735027084764,0.162355992980849,0.0402838178072784
1580421273.27254,-0.93141069657435,0.173586633096818,-0.0329594872968642
1580421273.30472,-0.955825131609064,0.225833524071106,0.00854505226214997
1580421273.3369,-0.927504386968796,0.304448004882886,-0.0187991149767299
1580421273.36908,-0.989028763256275,0.256595712214846,0.00268558785381856
1580421273.40127,-1.04811169604028,0.165285725185015,-0.0612802319371326
1580421273.43345,-1.03639276722362,0.0383306630045013,0.0476081483176927
1580421273.46563,-1.02858014801251,0.0485847257190812,0.0754406042572668
1580421273.49781,-1.03248645761807,0.182864118410009,0.0153810940718699
1580421273.52999,-1.06813153276875,0.307866025787746,-0.0495613031204698
1580421273.56217,-1.05592431525139,0.252201113908598,-0.0104982070649271
1580421273.59436,-1.12819104295415,0.180422674906538,-0.143312733653772
1580421273.62654,-1.21266498817426,0.23315785458152,-0.0520027466239412
1580421273.65872,-1.14430457007706,0.153566796368352,0.178469520103761
1580421273.6909,-1.23805600061036,0.239505607690546,0.0783703364614325
1580421273.72308,-1.18678568703746,0.0183108262760356,0.0466315709163041
1580421273.75526,-1.08424505989166,-0.156008239871824,0.0578622110322726
1580421273.78745,-1.23805600061036,-0.106202792401007,-0.234134431982909
1580421273.81963,-1.27321278706035,0.229251544975966,-0.277103837644008
1580421273.85181,-1.38942549782559,0.142824444953078,0.0280766002899213
1580421273.88399,-1.17799649042496,-0.00854505226214997,0.103761348897535
1580421273.91617,-0.96559090562295,0.102296482795452,0.0305180437933927
1580421273.94835,-0.804455634393836,0.121828030823224,0.0231937132829785
1580421273.98077,-0.607675288014038,0.0129396505683985,0.12475776302739
1580421274.01296,-0.493415732051576,0.0432135500114441,-0.00268558785381856
1580421274.04514,-0.458747234302281,0.0222171358815899,-0.179446097505149
1580421274.07732,-0.621835660334172,-0.294682230869002,0.224368657969023
1580421274.1095,-0.926039520866713,-0.324956130312048,1.36354619668879
1580421274.14169,-1.13746852826734,-0.34009308003357,0.665293354695965
1580421274.17387,-0.702891584649423,0.0305180437933927,0.620370794232091
1580421274.20605,-0.959243152513924,0.347417410543983,0.571541924162663
1580421274.23823,-0.663340199893186,0.129640650034332,0.882093537804227
1580421274.27041,-0.790295262073702,0.160891126878766,-0.163332570382238
1580421274.3026,-1.47145799954223,-0.0896009765774011,0.408453498130768
1580421274.33478,-1.17946135652705,-0.158449683375295,0.528084229800871
1580421274.36696,-0.708751049057755,-0.0427252613107498,-0.326909285114825
1580421274.39914,-0.919691767757687,0.31519035629816,0.231204699778743
1580421274.43132,-1.0466468299382,0.585214007782103,-0.127687495231555
1580421274.46351,-0.977309834439613,0.250736247806515,0.124269474326695
1580421274.49569,-0.988052185854887,0.00610360875867855,0.105226214999618
1580421274.52787,-0.964126039520867,0.0666514076447697,-0.0046387426565957
1580421274.56005,-0.942641336690318,0.199954222934309,0.0266117341878385
1580421274.59224,-0.963637750820173,0.202883955138475,0.0212405584802013
1580421274.62442,-0.953383688105593,0.263431754024566,-0.0046387426565957
1580421274.6566,-0.952895399404898,0.211184863050278,-0.0744640268558783
1580421274.68878,-0.995376516365301,0.173098344396124,-0.00854505226214997
1580421274.72096,-0.970473792629893,0.11792172121767,-0.0104982070649271
1580421274.75315,-0.948989089799344,0.132570382238498,-0.0256351567864499
1580421274.78533,-0.95533684290837,0.269779507133592,-0.0666514076447697
1580421274.81751,-1.02858014801251,0.251712825207903,-0.119386587319752
1580421274.84969,-1.03297474631876,0.149660486762798,-0.0661631189440754
1580421274.88188,-1.05152971694514,0.102296482795452,-0.0573739223315783
1580421274.91406,-1.09840543221179,0.209719996948195,0.0187991149767299
1580421274.94624,-1.15700007629511,0.23999389639124,-0.0212405584802013
1580421274.97842,-1.17018387121385,0.223392080567635,0.0993667505912867
1580421275.0106,-1.23707942320897,0.0939955748836496,0.0827649347676811
1580421275.04279,-1.19655146105135,-0.140871290150301,-0.0466315709163041
1580421275.07497,-1.25514610513466,-0.0314946211947813,-0.096437018387121
1580421275.10715,-1.25612268253605,0.227298390173189,-0.196536202029449
1580421275.13933,-1.21901274128328,0.289311055161363,-0.317631799801633
1580421275.17152,-1.2346379797055,0.166750591287098,-0.0627450980392155
1580421275.2037,-1.16041809719997,0.0402838178072784,0.0725108720531011
1580421275.23588,-0.990005340657664,-0.031006332494087,0.0720225833524069
1580421275.26825,-0.80494392309453,-0.0397955291065841,0.0642099641412983
1580421275.30043,-0.685801480125123,0.0114747844663157,0.0710460059510183
1580421275.33261,-0.627206836041809,-0.0319829098954756,0.0285648889906156
1580421275.3648,-0.614999618524452,-0.0695811398489354,0.0832532234683754
1580421275.39698,-0.55884641794461,-0.155519951171129,0.156984817273212
1580421275.42916,-0.702403295948729,-0.138429846646829,0.412359807736323
1580421275.46134,-1.00807202258335,-0.0148928053711757,1.04518196383612
1580421275.49353,-0.953383688105593,0.0202639810788128,0.905043106736859
1580421275.52571,-0.806897077897307,0.0173342488746471,0.760509651331351
1580421275.55789,-0.878675516899367,-0.100343327992675,0.605233844510568
1580421275.59008,-0.662363622491798,-0.223880369268329,0.650644693675137
1580421275.62226,-0.867444876783399,-0.0104982070649271,0.0690928511482412
1580421275.65444,-1.23707942320897,0.0749523155565726,0.386480506599526
1580421275.68662,-1.27321278706035,0.0427252613107498,0.441168841077285
1580421275.71881,-0.756115053025102,0.0534676127260241,-0.164309147783626
1580421275.75099,-0.872327763790341,0.476325627527274,0.0495613031204698
1580421275.78317,-1.06520180056458,0.406012054627297,-0.0471198596169984
1580421275.81535,-0.932875562676433,-0.0358892195010299,0.177981231403066
1580421275.84754,-0.949477378500038,-0.067139696345464,0.080811779964904
1580421275.87972,-0.94166475928893,0.162844281681544,0.00854505226214997
1580421275.9119,-0.947524223697261,0.295170519569695,0.116945143816281
1580421275.94409,-1.01930266269932,0.390875104905774,0.0485847257190812
1580421275.97627,-0.991958495460441,0.141847867551689,0.0319829098954756
1580421276.00845,-0.988052185854887,0.166262302586404,0.0710460059510183
1580421276.04063,-1.03150988021668,0.145265888456549,0.0432135500114441
1580421276.07282,-0.915785458152133,0.0666514076447697,0.0349126420996413
1580421276.105,-0.983169298847944,0.142336156252384,-0.0544441901274126
1580421276.13718,-0.983169298847944,0.260013733119706,-0.0168459601739528
1580421276.16936,-0.98951705195697,0.266361486228732,-0.037842374303807
1580421276.20155,-1.06178377965972,0.207766842145418,-0.0354009308003356
1580421276.23373,-1.04811169604028,0.0549324788281069,-0.0729991607537954
1580421276.26591,-1.12428473334859,0.159426260776684,0.143312733653772
1580421276.29809,-1.15260547798886,0.221438925764858,0.195559624628061
1580421276.33028,-1.25954070344091,0.260990310521095,0.101319905394064
1580421276.36246,-1.24489204242008,0.0485847257190812,0.0202639810788128
1580421276.39464,-1.25905241474022,-0.0920424200808725,-0.00268558785381856
1580421276.42683,-1.30836957351034,0.149660486762798,-0.281010147249562
1580421276.45901,-1.23317311360342,0.220950637064163,-0.342046234836348
1580421276.49119,-1.21901274128328,0.112062256809338,-0.0158693827725642
1580421276.52337,-1.10475318532082,0.0329594872968642,0.0729991607537954
1580421276.55569,-0.989028763256275,0.0554207675288012,0.0441901274128327
1580421276.58788,-0.797131303883422,0.0583504997329669,0.0578622110322726
1580421276.62006,-0.680430304417486,0.00219729915312428,0.0734874494544897
1580421276.65224,-0.622812237735561,-0.044678416113527,0.0559090562294955
1580421276.68442,-0.612558175020981,-0.0695811398489354,0.0983901731898982
1580421276.71661,-0.584725719081407,-0.169680323491264,0.268802929732203
1580421276.74879,-0.679942015716792,-0.140871290150301,0.413336385137711
1580421276.78097,-0.995376516365301,0.0759288929579611,0.809338521400779
1580421276.81316,-1.05738918135348,0.0861829556725411,0.638925764858474
1580421276.84534,-0.812756542305639,-0.0920424200808725,0.920180056458381
1580421276.87752,-0.884046692607004,-0.249271381704432,0.792248416876479
1580421276.9097,-0.92115663385977,-0.295170519569696,0.626230258640422
1580421276.94189,-0.978774700541695,0.0192874036774242,0.351812008850231
1580421276.97407,-0.976821545738918,0.265384908827343,0.196536202029449
1580421277.00625,-1.30153353170062,0.0754406042572668,0.106691081101701
1580421277.03843,-0.728282597085526,0.109132524605172,-0.194583047226672
1580421277.07062,-1.06617837796597,0.348393987945371,0.0334477759975584
1580421277.1028,-1.13844510566873,0.490974288548102,-0.0100099183642328
1580421277.13498,-0.971450370031281,0.0915541313801782,0.127687495231555
1580421277.16717,-0.981704432745861,-0.182375829709315,0.106691081101701
1580421277.19935,-0.947524223697261,0.00854505226214997,0.0432135500114441
1580421277.23153,-0.928480964370184,0.188723582818341,0.00610360875867855
1580421277.26371,-0.922621499961853,0.385992217898831,0.0368657969024184
1580421277.2959,-0.973403524834058,0.341557946135651,0.0383306630045013
1580421277.32808,-0.977309834439613,0.287357900358586,0.00952162966353853
1580421277.36026,-0.999282825970855,0.185793850614175,-0.00854505226214997
1580421277.39244,-0.976333257038224,-0.0178225375753414,-0.0695811398489354
1580421277.42463,-1.01393148699168,0.0607919432364383,0.0881361104753182
1580421277.45681,-1.0212558175021,0.254154268711375,0.0251468680857556
1580421277.48899,-1.00611886778058,0.237064164187075,-0.144777599755855
1580421277.52117,-1.03248645761807,0.199954222934309,0.00122072175173571
1580421277.55336,-1.05299458304723,0.0988784618905925,-0.0295414663920042
1580421277.58554,-1.1237964446479,0.192629892423895,0.0183108262760356
1580421277.61772,-1.16188296330205,0.144289311055161,0.0622568093385212
1580421277.64991,-1.12477302204929,0.0280766002899213,0.106691081101701
1580421277.68209,-1.23707942320897,0.101808194094758,0.0227054245822842
1580421277.71427,-1.34450293736172,0.166750591287098,-0.103761348897535
1580421277.74645,-1.28297856107424,0.101808194094758,-0.220950637064163
1580421277.77864,-1.26198214694438,0.182864118410009,-0.274662394140536
1580421277.81082,-1.12721446555276,0.176516365300984,-0.116456855115587
1580421277.8432,-1.10328831921874,0.0949721522850382,0.0173342488746471
1580421277.87538,-0.971450370031281,0.0710460059510183,0.0720225833524069
1580421277.90757,-0.802990768291753,0.0876478217746239,0.0622568093385212
1580421277.93975,-0.706797894254978,0.0700694285496297,0.0222171358815899
1580421277.97194,-0.719005111772335,0.0319829098954756,0.0627450980392155
1580421278.00412,-0.688242923628595,0.0827649347676811,0.126222629129472
1580421278.0363,-0.675059128709849,0.162844281681544,0.123781185626001
1580421278.06849,-0.833264667734799,-0.0300297550926985,0.733653772793165
1580421278.10067,-0.95875486381323,0.0959487296864268,0.59742122529946
1580421278.13285,-0.953383688105593,0.350835431448843,0.106691081101701
1580421278.16504,-1.13356221866178,-0.381597619592585,0.695078965438316
1580421278.19722,-0.857679102769513,-0.581795986877241,0.605233844510568
1580421278.2294,-0.848401617456322,-0.378667887388419,-0.000244144350347142
1580421278.26159,-1.20241092545968,0.077393759060044,0.070557717250324
1580421278.29377,-1.44704356450752,0.725841153582056,0.23657587548638
1580421278.32595,-0.873792629892424,-0.0397955291065841,-0.126222629129472
1580421278.35814,-0.823987182421607,-0.0373540856031127,-0.0764171816586554
1580421278.39032,-1.06910811017014,0.0988784618905925,0.122316319523918
1580421278.42251,-1.01734950789654,0.343999389639123,-0.0583504997329669
1580421278.45469,-0.967055771725033,0.150637064164187,0.189211871519035
1580421278.48687,-0.990005340657664,0.113527122911421,0.202883955138475
1580421278.51906,-0.971938658731975,0.367437247272449,0.109132524605172
1580421278.55124,-0.991470206759747,0.327397573815517,-0.0339360646982527
1580421278.58342,-1.03248645761807,0.232181277180132,-0.0500495918211641
1580421278.61561,-0.946059357595178,0.166750591287098,0.031006332494087
1580421278.64779,-0.974380102235447,0.101319905394064,-0.0891126878767068
1580421278.67998,-0.97926298924239,0.12475776302739,-0.0876478217746239
1580421278.71216,-0.966567483024338,0.186282139314869,-0.0969253070878153
1580421278.74434,-0.984634164950027,0.25708400091554,0.027588311589227
1580421278.77653,-1.00856031128405,0.165774013885709,-0.0925307087815668
1580421278.80871,-1.01930266269932,-0.0485847257190812,-0.197512779430838
1580421278.84089,-1.10084687571527,0.00219729915312428,0.166750591287098
1580421278.87308,-1.08424505989166,0.0852063782711525,0.183840695811398
1580421278.90526,-1.04811169604028,-0.0407721065079727,0.158937972075989
1580421278.93744,-1.16578927290761,-0.0495613031204698,0.38355077439536
1580421278.96963,-1.27516594186313,0.138429846646829,0.343022812237734
1580421279.00181,-1.17653162432288,0.226810101472495,0.167727168688486
1580421279.03399,-1.07008468757153,0.116456855115587,0.199465934233615
1580421279.06618,-1.17946135652705,0.33911650263218,0.0734874494544897
1580421279.09836,-1.20192263675898,0.601327534905014,0.00854505226214997
1580421279.13077,-1.02027924010071,0.613046463721677,-0.0437018387121384
1580421279.16295,-1.12281986724651,0.33569848172732,0.00268558785381856
1580421279.19514,-1.12233157854581,0.218997482261386,0.0246585793850613
1580421279.22732,-0.993911650263218,0.101808194094758,0.115968566414892
1580421279.2595,-0.976333257038224,-0.0295414663920042,0.067139696345464
1580421279.29169,-0.975356679636835,-0.0407721065079727,0.134035248340581
1580421279.32387,-0.933363851377127,-0.00122072175173571,0.239505607690546
1580421279.35606,-0.95191882200351,-0.00219729915312428,0.209231708247501
1580421279.38824,-0.889906157015336,-0.0437018387121384,0.178957808804455
1580421279.42042,-0.905043106736859,-0.0441901274128327,0.225833524071106
1580421279.45261,-0.909925993743801,-0.0617685206378269,0.161867704280155
1580421279.48479,-0.851331349660487,-0.204348821240558,0.364019226367589
1580421279.51698,-0.700450141145952,-0.316655222400245,0.560311284046694
1580421279.54916,-0.864026855878539,-0.304448004882888,0.77759975585565
1580421279.58134,-0.837170977340353,-0.0290531776913099,0.547615777828643
1580421279.61353,-0.73218890669108,0.0690928511482412,0.3972228580148
1580421279.64571,-0.637949187457084,0.203372243839169,0.523689631494623
1580421279.6779,-0.831311512932022,0.222903791866941,0.531013962005037
1580421279.71008,-1.15114061188678,0.0769054703593497,0.044678416113527
1580421279.74227,-1.38796063172351,-0.535408560311284,0.575936522468911
1580421279.77445,-1.14821087968261,-0.647226672770275,0.704356450751508
1580421279.80663,-0.71851682307164,-0.0896009765774011,-0.110597390707255
1580421279.83882,-0.893324177920196,0.6110933089189,-0.119386587319752
1580421279.871,-1.08570992599374,0.701426718547342,-0.0578622110322726
1580421279.90319,-0.977309834439613,0.0983901731898982,0.159426260776684
1580421279.93537,-0.928969253070878,-0.165285725185015,0.197024490730143
1580421279.96756,-0.961196307316701,0.0383306630045013,0.157473105973907
1580421279.99974,-0.911879148546578,0.236087586785686,0.0388189517051956
1580421280.03192,-0.967055771725033,0.211184863050278,0.0451667048142212
1580421280.06411,-1.01588464179446,0.234622720683603,0.0393072404058898
1580421280.09629,-0.97584496833753,0.148683909361409,0.0373540856031127
1580421280.12847,-1.0207675288014,0.126222629129472,0.0583504997329669
1580421280.16066,-0.954360265506981,0.0568856336308841,0.0422369726100555
1580421280.19284,-1.02320897230488,0.218509193560692,0.0168459601739528
1580421280.22503,-0.991958495460441,0.215579461356526,-0.00854505226214997
1580421280.25721,-1.02613870450904,0.114991989013504,-0.0402838178072784
1580421280.2894,-1.00025940337224,0.123292896925307,0.024170290684367
1580421280.32158,-1.12721446555276,0.200930800335698,0.00317387655451284
1580421280.35376,-1.10914778362707,0.173098344396124,-0.077393759060044
1580421280.38595,-1.15944151979858,0.156984817273212,0.113527122911421
1580421280.41837,-1.1750667582208,0.164797436484321,0.0925307087815668
1580421280.45055,-1.12526131074998,0.0393072404058898,0.203860532539863
1580421280.48273,-1.24440375371939,0.037842374303807,0.132570382238498
1580421280.51492,-1.25319295033188,-0.0251468680857556,-0.119874876020447
1580421280.5471,-1.23610284580758,-0.0710460059510183,-0.359136339360647
1580421280.57929,-1.37917143511101,0.351323720149537,-0.361577782864119
1580421280.61147,-1.32301823453117,0.177492942702372,-0.00561532005798426
1580421280.64366,-1.10426489662013,-0.0212405584802013,-0.01196307316701
1580421280.67584,-0.973403524834058,0.00805676356145568,-0.00561532005798426
1580421280.70803,-0.823987182421607,0.0495613031204698,-0.00366216525520713
1580421280.74021,-0.6877546349279,0.0422369726100555,-0.0593270771343555
1580421280.7724,-0.537850003814755,-0.0144045166704814,-0.0280766002899213
1580421280.80458,-0.473884184023804,-0.161379415579461,0.0422369726100555
1580421280.83676,-0.525642786297398,-0.187258716716258,0.198489356832226
1580421280.86895,-0.818127718013276,-0.135500114442664,0.965102616922255
1580421280.90113,-1.11940184634165,-0.168703746089875,0.627695124742505
1580421280.93332,-0.809826810101473,0.0388189517051956,0.754161898222325
1580421280.9655,-0.978286411841001,0.0432135500114441,0.777111467154956
1580421280.99769,-0.870374608987564,-0.136964980544747,0.937270160982681
1580421281.02987,-1.05690089265278,0.0549324788281069,0.145265888456549
1580421281.06206,-1.08278019378958,0.221927214465552,0.415777828641183
1580421281.09424,-0.966567483024338,-0.369878690775922,0.165285725185015
1580421281.12643,-0.741466392004272,-0.070557717250324,-0.267338063630122
1580421281.15861,-1.15846494239719,0.674082551308462,0.0646982528419926
1580421281.1908,-1.04420538643473,0.555916685740446,-0.0231937132829785
1580421281.22298,-0.949477378500038,0.101319905394064,0.117433432516975
1580421281.25516,-0.942641336690318,0.024170290684367,0.0969253070878153
1580421281.28735,-0.942153047989624,0.136964980544747,-0.0319829098954756
1580421281.31953,-0.901625085831999,0.192141603723201,-0.0539559014267184
1580421281.35172,-0.886488136110476,0.221438925764858,0.0422369726100555
1580421281.3839,-0.95191882200351,0.157961394674601,0.024170290684367
1580421281.41609,-1.00563057907988,0.218509193560692,-0.024170290684367
1580421281.44827,-1.00611886778058,0.179446097505149,-0.0158693827725642
1580421281.48046,-1.00807202258335,0.0676279850461583,0.0822766460669868
1580421281.51264,-1.05201800564584,0.175539787899595,0.130617227435721
1580421281.54483,-1.11110093842985,0.229739833676661,0.0285648889906156
1580421281.57701,-1.12526131074998,0.181399252307926,-0.00610360875867855
1580421281.60919,-1.14479285877775,0.077393759060044,0.01196307316701
1580421281.64138,-1.27174792095827,0.153566796368352,0.170168612191958
1580421281.67356,-1.20680552376593,0.165774013885709,0.212161440451666
1580421281.70593,-1.15211718928817,0.0427252613107498,0.196047913328755
1580421281.73812,-1.33327229724575,0.0407721065079727,-0.070557717250324
1580421281.7703,-1.29909208819715,0.0871595330739297,-0.410894941634242
1580421281.80249,-1.32106507972839,0.389898527504386,-0.309819180590525
1580421281.83467,-1.33424887464714,0.150148775463492,-0.0158693827725642
1580421281.86686,-1.21901274128328,-0.0163576714732585,0.0734874494544897
1580421281.89904,-1.02516212710765,0.0866712443732354,0.037842374303807
1580421281.93123,-0.792736705577173,0.109620813305867,-0.024170290684367
1580421281.96341,-0.647714961470969,0.0554207675288012,-0.0349126420996413
1580421281.9956,-0.570077058060578,-0.00512703135728998,-0.0202639810788128
1580421282.02778,-0.590096894789044,-0.0856946669718468,0.0202639810788128
1580421282.05997,-0.596444647898069,-0.24682993820096,0.215091172655832
1580421282.09215,-0.67750057221332,-0.330327306019685,0.35620660715648
1580421282.12434,-0.995376516365301,-0.077393759060044,0.819104295414665
1580421282.15652,-1.07057297627222,-0.0114747844663157,0.717540245670254
1580421282.18871,-0.77418173495079,0.0529793240253298,1.0124666208896
1580421282.22089,-0.749767299916074,-0.00512703135728998,0.583260852979326
1580421282.25308,-0.865491721980622,-0.0388189517051956,0.712169069962616
1580421282.28526,-1.00514229037919,-0.027588311589227,0.0778820477607383
1580421282.31745,-1.23170824750133,-0.0393072404058898,0.493415732051574
1580421282.34963,-1.12086671244373,-0.170656900892652,0.251712825207903
1580421282.38182,-0.706309605554283,0.118898298619058,-0.233646143282215
1580421282.414,-1.06276035706111,0.6281834134432,0.0642099641412983
1580421282.44619,-1.0466468299382,0.367437247272449,-0.0129396505683985
1580421282.47837,-0.989028763256275,0.00854505226214997,0.127199206530861
1580421282.51056,-0.96559090562295,-0.0578622110322726,0.0847180895704582
1580421282.54274,-0.969497215228504,0.227298390173189,-0.0246585793850613
1580421282.57493,-0.926527809567407,0.216556038757915,0.00708018616006711
1580421282.60711,-0.926527809567407,0.204348821240558,0.0539559014267184
1580421282.6393,-0.953871976806287,0.215579461356526,0.0173342488746471
1580421282.67148,-0.973403524834058,0.312748912794689,-0.0568856336308841
1580421282.70367,-0.952407110704204,0.189700160219729,-0.0319829098954756
1580421282.73585,-0.900160219729916,0.0173342488746471,0.00512703135728998
1580421282.76804,-1.00025940337224,0.151125352864881,0.0407721065079727
1580421282.80023,-1.08473334859235,0.265873197528038,0.0456549935149155
1580421282.83241,-1.08863965819791,0.167238879987792,-0.0183108262760356
1580421282.86459,-1.11158922713054,0.112062256809338,0.0993667505912867
1580421282.89678,-1.19313344014649,0.206790264744029,0.0212405584802013
1580421282.92896,-1.20582894636454,0.296635385671777,0.0456549935149155
1580421282.96115,-1.15065232318608,0.0642099641412983,0.24682993820096
1580421282.9935,-1.19752803845273,-0.0935072861829553,0.0925307087815668
1580421283.02568,-1.2942092011902,-0.00708018616006711,-0.137941557946135
1580421283.05787,-1.33131914244297,0.229739833676661,-0.369390402075227
1580421283.09006,-1.2693064774548,0.271732661936369,-0.302006561379416
1580421283.12224,-1.27907225146868,0.129152361333638,-0.102296482795452
1580421283.15443,-1.18092622262913,0.0236820019836728,0.070557717250324
1580421283.18662,-0.969985503929198,0.0109864957656214,0.0520027466239412
1580421283.2188,-0.766369115739682,0.0266117341878385,0.00122072175173571
1580421283.25099,-0.650644693675135,0.037842374303807,0.0261234454871442
1580421283.28317,-0.567635614557107,-0.0217288471808956,0.0427252613107498
1580421283.31536,-0.593026626993209,-0.10083161669337,0.137941557946135
1580421283.34755,-0.667246509498741,-0.210696574349583,0.31860837720302
1580421283.37973,-0.709727626459143,-0.284916456855116,0.465583276112
1580421283.41192,-0.895765621423667,-0.103761348897535,0.816174563210499
1580421283.4441,-0.918226901655604,0.159914549477378,0.654551003280691
1580421283.47629,-0.909925993743801,0.10083161669337,0.844983596551462
1580421283.50848,-0.779552910658428,-0.0256351567864499,0.91432059205005
1580421283.54066,-0.725841153582055,-0.209719996948195,0.619394216830703
1580421283.57285,-0.990005340657664,-0.0490730144197755,0.210696574349583
1580421283.60503,-1.05250629434653,0.024170290684367,0.517341878385597
1580421283.63722,-1.2771190966659,-0.108644235904478,0.581795986877243
1580421283.66941,-0.959243152513924,-0.0231937132829785,-0.0617685206378269
1580421283.70159,-0.776623178454262,0.187747005416952,-0.211184863050278
1580421283.73378,-1.11305409323262,0.743907835507745,-0.0324711985961699
1580421283.76596,-1.03688105592432,0.261478599221789,0.0168459601739528
1580421283.79815,-0.972915236133364,0.00317387655451284,0.159914549477378
1580421283.83034,-0.948012512397955,-0.0319829098954756,0.0422369726100555
1580421283.86252,-0.899671931029221,0.157473105973907,-0.0266117341878385
1580421283.89471,-0.924086366063936,0.149660486762798,-0.0139162279697871
1580421283.92689,-0.937270160982681,0.193118181124589,-0.0285648889906156
1580421283.95908,-0.993423361562524,0.219485770962081,0.0598153658350498
1580421283.99127,-1.03932249942779,0.220462348363469,0.0422369726100555
1580421284.02345,-0.949965667200733,0.0388189517051956,0.0666514076447697
1580421284.05564,-0.987075608453498,0.0393072404058898,0.103761348897535
1580421284.08782,-0.997817959868772,0.25708400091554,-0.00268558785381856
1580421284.12001,-1.04957656214237,0.278568703746089,-0.152590218966964
1580421284.1522,-1.0129549095903,0.239505607690546,-0.0476081483176927
1580421284.18438,-1.06666666666667,0.209231708247501,-0.0822766460669868
1580421284.21657,-1.10768291752499,0.241458762493323,-0.0256351567864499
1580421284.24875,-1.16041809719997,0.261478599221789,0.0524910353246355
1580421284.28116,-1.19948119325551,0.130617227435721,0.0529793240253298
1580421284.31334,-1.25319295033188,-0.048096437018387,0.0500495918211641
1580421284.34553,-1.20729381246662,-0.181399252307926,-0.0187991149767299
1580421284.37772,-1.20827038986801,0.120363164721141,-0.236087586785686
1580421284.4099,-1.16676585030899,0.403082322423131,-0.335210193026628
1580421284.44209,-1.13160906385901,0.318120088502326,-0.180910963607232
1580421284.47428,-1.13893339436942,0.0744640268558783,0.00903334096284425
1580421284.50646,-1.02711528191043,-0.0231937132829785,0.0593270771343555
1580421284.53865,-0.943617914091707,0.0100099183642328,0.102296482795452
1580421284.57084,-0.844983596551462,0.0656748302433812,0.110597390707255
1580421284.60302,-0.741466392004272,0.0749523155565726,0.0666514076447697
1580421284.63521,-0.725841153582055,0.0529793240253298,0.163332570382238
1580421284.6674,-0.680430304417486,0.0432135500114441,0.266361486228732
1580421284.69958,-0.675059128709849,0.00952162966353853,0.272220950637063
1580421284.73177,-0.774670023651485,0.157961394674601,0.484626535439077
1580421284.76396,-0.916762035553521,0.127199206530861,0.487067978942548
1580421284.79614,-0.888441290913253,-0.077393759060044,0.700450141145954
1580421284.82833,-1.00563057907988,-0.358159761959259,0.641367208361945
1580421284.86051,-1.04811169604028,-0.261966887922485,0.416754406042571
1580421284.8927,-0.680430304417486,-0.397711146715496,0.516365300984209
1580421284.92489,-0.962661173418784,0.0871595330739297,0.237552452887769
1580421284.95707,-1.1320973525597,0.217044327458609,0.201907377737086
1580421284.98926,-1.49880216678111,0.178469520103761,0.377691309987028
1580421285.02145,-0.762951094834822,-0.0749523155565726,-0.119874876020447
1580421285.05363,-0.757579919127185,0.0661631189440754,0.0627450980392155
1580421285.08582,-1.12428473334859,0.636484321355002,-0.102784771496147
1580421285.11801,-1.04176394293126,0.510017547875183,-0.00317387655451284
1580421285.15019,-0.966079194323644,0.0153810940718699,0.224368657969023
1580421285.18238,-1.0466468299382,-0.0139162279697871,0.156008239871824
1580421285.21457,-0.932387273975738,0.277103837644006,-0.0437018387121384
1580421285.24675,-0.973891813534753,0.219974059662775,-0.0417486839093613
1580421285.27894,-1.01832608529793,0.154543373769741,0.0534676127260241
1580421285.31113,-1.02906843671321,0.159426260776684,0.0388189517051956
1580421285.34331,-0.974380102235447,0.0900892652780954,-0.048096437018387
1580421285.3755,-0.981704432745861,-0.0393072404058898,-0.044678416113527
1580421285.40769,-0.974380102235447,0.0993667505912867,-0.0520027466239412
1580421285.43987,-0.943129625391013,0.283939879453726,-0.0910658426794839
1580421285.47206,-0.999282825970855,0.295658808270389,-0.0832532234683754
1580421285.50425,-1.05885404745556,0.224368657969023,-0.00366216525520713
1580421285.53643,-0.99293507286183,0.0622568093385212,0.0383306630045013
1580421285.56879,-1.02906843671321,0.157961394674601,0.0461432822156098
1580421285.60097,-1.05104142824445,0.23315785458152,-0.0109864957656214
1580421285.63316,-0.988052185854887,0.210696574349583,-0.141847867551689
1580421285.66535,-1.00563057907988,0.217532616159303,0.156008239871824
1580421285.69753,-1.01539635309377,0.106691081101701,0.182864118410009
1580421285.72972,-1.16823071641108,0.138429846646829,0.371831845578697
1580421285.76191,-1.1579766536965,0.215091172655832,0.206790264744029
1580421285.7941,-1.07643244068055,0.195071335927366,0.119874876020447
1580421285.82628,-1.02613870450904,0.0383306630045013,0.0666514076447697
1580421285.85847,-1.09547570000763,0.238040741588463,0.142824444953078
1580421285.89066,-1.14576943617914,0.57349507896544,-0.0905775539787896
1580421285.92284,-1.08326848249027,0.36646066987106,-0.132570382238498
1580421285.95503,-1.10035858701457,0.137453269245441,-0.0612802319371326
1580421285.98722,-1.08815136949721,0.0402838178072784,0.0144045166704814
1580421286.0194,-1.02467383840696,-0.0271000228885327,0.0134279392690928
1580421286.05159,-0.964614328221561,-0.0871595330739297,0.099855039291981
1580421286.08378,-1.00514229037919,-0.156984817273212,0.131105516136415
1580421286.11596,-0.929457541771573,-0.0656748302433812,0.126710917830167
1580421286.14815,-0.911879148546578,-0.0534676127260241,0.25366598001068
1580421286.18034,-0.912367437247273,-0.172121766994735,0.228763256275272
1580421286.21253,-0.845471885252156,-0.218509193560692,0.305424582284274
1580421286.24471,-0.807873655298696,-0.146730754558632,0.356694895857174
1580421286.2769,-0.771740291447319,-0.0915541313801782,0.361577782864117
1580421286.30909,-0.73560692759594,0.00854505226214997,0.495857175555045
1580421286.34127,-0.867444876783399,0.166750591287098,0.658457312886245
1580421286.37346,-0.97242694743267,-0.0769054703593497,0.738048371099413
1580421286.40565,-0.800549324788282,-0.0720225833524069,0.63160143434806
1580421286.43783,-0.773205157549402,-0.133546959639887,0.391851682307163
1580421286.47002,-0.696055542839703,-0.291752498664836,0.524177920195317
1580421286.50221,-1.0383459220264,-0.375738155184253,0.783947508964676
1580421286.5344,-0.94166475928893,-0.288334477759976,0.11450370031281
1580421286.56658,-1.01881437399863,0.175539787899595,0.462653543907834
1580421286.59877,-1.1574883649958,0.35278858625162,0.28784618905928
1580421286.63096,-0.715587090867475,0.141359578850995,-0.195071335927366
1580421286.66314,-1.01832608529793,0.163820859082932,0.0544441901274126
1580421286.69533,-1.0637369344625,0.103273060196841,0.129640650034332
1580421286.72752,-0.938735027084764,-0.0383306630045013,0.150148775463492
1580421286.7597,-0.984634164950027,0.102296482795452,0.119386587319752
1580421286.79189,-0.957778286411841,0.384527351796748,-0.0295414663920042
1580421286.82408,-0.88014038300145,0.279545281147477,-0.031006332494087
1580421286.85644,-0.992446784161135,0.162355992980849,-0.0222171358815899
1580421286.88863,-0.977798123140307,0.207766842145418,0.00659189745937283
1580421286.92082,-0.969497215228504,0.168215457389181,-0.0217288471808956
1580421286.95301,-0.98609903105211,0.120851453421835,-0.105226214999618
1580421286.98519,-0.995376516365301,0.044678416113527,-0.0720225833524069
1580421287.01738,-0.990005340657664,0.0212405584802013,0.129640650034332
1580421287.04957,-1.06813153276875,0.399176012817577,0.0349126420996413
1580421287.08176,-1.21412985427634,0.443610284580757,-0.0925307087815668
1580421287.11395,-1.19508659494926,0.10083161669337,0.0725108720531011
1580421287.14613,-1.23512626840619,-0.0319829098954756,0.073975738155184
1580421287.17832,-1.26832990005341,0.0236820019836728,0.0354009308003356
1580421287.21051,-1.21071183337148,0.0915541313801782,0.176028076600289
1580421287.24269,-1.18922713054093,0.0456549935149155,-0.0148928053711757
1580421287.27488,-1.26784161135271,-0.0866712443732354,-0.287846189059282
1580421287.30707,-1.34889753566796,0.30835431448844,-0.579354543373769
1580421287.33926,-1.34401464866102,0.285404745555809,-0.136964980544747
1580421287.37144,-1.25709925993744,-0.00122072175173571,0.0925307087815668
1580421287.40363,-1.12672617685206,0.102784771496147,0.00219729915312428
1580421287.43582,-0.915785458152133,0.148195620660715,-0.0202639810788128
1580421287.46801,-0.680430304417486,0.0466315709163041,0.0192874036774242
1580421287.50019,-0.567147325856412,-0.0290531776913099,-0.0607919432364383
1580421287.53238,-0.535896849011978,-0.0896009765774011,0.00512703135728998
1580421287.56457,-0.441657129777981,-0.284916456855116,0.251712825207903
1580421287.59676,-0.496345464255741,-0.345464255741208,0.346440833142594
1580421287.62894,-0.844983596551462,-0.0910658426794839,0.98268101014725
1580421287.66113,-1.21120012207217,0.073975738155184,0.60083924620432
1580421287.69332,-0.793713282978562,0.177004654001678,1.03346303501946
1580421287.72551,-0.743907835507743,-0.00854505226214997,0.710215915159839
1580421287.75769,-0.703379873350118,-0.179934386205844,0.81519798580911
1580421287.78988,-0.80494392309453,0.0695811398489354,-0.379644464789807
1580421287.82207,-1.57351033798733,-0.132570382238498,0.455817502098114
1580421287.85426,-1.05445944914931,0.0129396505683985,0.232669565880826
1580421287.88644,-0.659433890287632,-0.00219729915312428,-0.149172198062104
1580421287.91863,-1.18092622262913,0.6452735179675,-0.0788586251621268
1580421287.95082,-1.08424505989166,0.394781414511328,-0.00317387655451284
1580421287.98301,-0.91090257114519,0.024170290684367,0.114991989013504
1580421288.01519,-0.935317006179904,0.0363775082017241,0.0373540856031127
1580421288.04738,-0.919691767757687,0.180422674906538,-0.0329594872968642
1580421288.07957,-0.834729533836882,0.0217288471808956,0.00415045395590141
1580421288.11176,-0.885999847409781,0.161379415579461,0.0349126420996413
1580421288.1441,-1.00709544518196,0.294682230869,-0.0363775082017241
1580421288.17629,-0.943129625391013,0.150637064164187,-0.0153810940718699
1580421288.20848,-0.985610742351415,-0.0612802319371326,0.0598153658350498
1580421288.24067,-1.09889372091249,0.105714503700312,0.196047913328755
1580421288.27286,-1.14772259098192,0.320073243305103,-0.0236820019836728
1580421288.30504,-1.1574883649958,0.321538109407186,0.0925307087815668
1580421288.33723,-1.20827038986801,0.112062256809338,0.0939955748836496
1580421288.36942,-1.32204165712978,0.149660486762798,0.247318226901655
1580421288.40161,-1.17994964522774,-0.0988784618905925,0.0935072861829553
1580421288.43379,-1.35915159838254,0.239505607690546,-0.096437018387121
1580421288.46598,-1.37038223849851,0.232181277180132,-0.514900434882124
1580421288.49817,-1.38991378652628,0.160891126878766,-0.495857175555047
1580421288.53036,-1.48805981536584,0.0261234454871442,0.0910658426794839
1580421288.56255,-1.32252994583047,-0.0900892652780954,0.128175783932249
1580421288.59473,-1.04615854123751,0.0393072404058898,-0.0612802319371326
1580421288.62692,-0.779064621957733,0.109620813305867,-0.0646982528419926
1580421288.65911,-0.563241016250858,0.141847867551689,-0.0910658426794839
1580421288.6913,-0.388921950102999,0.0476081483176927,-0.111573968108644
1580421288.72349,-0.308354314488442,0.0153810940718699,-0.11108567940795
1580421288.75567,-0.375738155184253,-0.139406424048218,0.080811779964904
1580421288.78786,-0.71168078126192,-0.278080415045396,0.813244831006333
1580421288.82005,-1.19118028534371,-0.392339971007859,1.17946135652705
1580421288.85224,-1.05592431525139,0.0402838178072784,1.01539635309377
1580421288.88443,-0.923109788662547,0.109620813305867,0.605233844510568
1580421288.91661,-1.01393148699168,-0.174563210498206,1.06471351186389
1580421288.9488,-0.889417868314641,-0.0993667505912867,0.530525673304343
1580421288.98099,-1.05445944914931,0.272709239337757,0.0788586251621268
1580421289.01318,-0.999282825970855,0.0769054703593497,-0.0222171358815899
1580421289.04537,-0.853284504463264,-0.00659189745937283,-0.210696574349583
1580421289.07755,-1.15700007629511,0.541756313420311,0.0627450980392155
1580421289.10974,-0.990493629358358,0.163820859082932,0.096437018387121
1580421289.14193,-0.953383688105593,0.0183108262760356,0.0822766460669868
1580421289.17412,-0.952407110704204,0.0642099641412983,0.041260395208667
1580421289.20631,-0.879652094300756,0.160891126878766,-0.00659189745937283
1580421289.23849,-0.918226901655604,0.327885862516212,0.0891126878767068
1580421289.27068,-0.890882734416724,0.30835431448844,0.00219729915312428
1580421289.30287,-0.944594491493095,0.237064164187075,-0.000244144350347142
1580421289.33506,-1.01686121919585,0.0983901731898982,0.0256351567864499
1580421289.36724,-0.998306248569467,-0.0642099641412983,0.070557717250324
1580421289.39943,-1.07936217288472,0.101808194094758,0.154055085069047
1580421289.43179,-1.07008468757153,0.337651636530097,-0.0202639810788128
1580421289.46398,-1.0979171435111,0.336675059128709,0.031006332494087
1580421289.49617,-1.12477302204929,0.12475776302739,0.102784771496147
1580421289.52836,-1.24049744411383,0.131593804837109,0.158449683375295
1580421289.56054,-1.18434424353399,-0.0632333867399097,0.126710917830167
1580421289.59273,-1.34743266956588,0.218509193560692,0.048096437018387
1580421289.62492,-1.38258945601587,0.225345235370412,-0.362554360265507
1580421289.65711,-1.39919127183948,0.174563210498206,-0.406500343327993
1580421289.6893,-1.42995345998322,0.167238879987792,-0.291264209964142
1580421289.72148,-1.41872281986725,0.0104982070649271,0.105226214999618
1580421289.75367,-1.19118028534371,-0.0354009308003356,0.00219729915312428
1580421289.78586,-0.948012512397955,0.0134279392690928,-0.0266117341878385
1580421289.81805,-0.692149233234149,0.10766765850309,-0.0373540856031127
1580421289.85024,-0.527107652399481,0.0539559014267184,-0.0495613031204698
1580421289.88242,-0.395757991912719,-0.0192874036774242,-0.135011825741969
1580421289.91461,-0.353276874952316,-0.00366216525520713,-0.128175783932249
1580421289.9468,-0.520759899290455,-0.190676737621118,0.336675059128709
1580421289.97899,-0.964126039520867,-0.107179369802395,1.21120012207217
1580421290.01118,-1.149187457084,-0.0939955748836496,0.90406652933547
1580421290.04336,-0.781506065461205,0.160402838178072,0.716075379568171
1580421290.07555,-0.884046692607004,-0.0158693827725642,0.703379873350119
1580421290.10774,-0.706797894254978,-0.34351110093843,0.829846646829939
1580421290.13993,-0.980727855344472,0.0935072861829553,-0.141359578850995
1580421290.17211,-1.63698786907759,0.0544441901274126,0.55640497444114
1580421290.2043,-0.985122453650721,-0.0290531776913099,0.080811779964904
1580421290.23649,-0.559334706645304,-0.178957808804455,-0.259037155718319
1580421290.26868,-1.22047760738537,0.843030441748684,-0.0554207675288012
1580421290.30087,-1.09449912260624,0.57007705806058,-0.070557717250324
1580421290.33306,-0.968520637827115,-0.077393759060044,0.181887541008621
1580421290.36524,-1.03883421072709,-0.284428168154422,0.119386587319752
1580421290.39743,-0.966567483024338,0.0949721522850382,-0.0227054245822842
1580421290.42962,-0.885999847409781,0.3117723353933,-0.0490730144197755
1580421290.46181,-0.91090257114519,0.2434119172961,-0.0988784618905925
1580421290.49399,-0.916762035553521,0.220950637064163,0.0578622110322726
1580421290.52618,-0.916762035553521,0.218997482261386,0.0114747844663157
1580421290.55837,-0.970962081330587,0.144777599755855,-0.00512703135728998
1580421290.59056,-0.95875486381323,0.0075684748607614,0.0300297550926985
1580421290.62275,-0.985610742351415,0.0910658426794839,0.160402838178072
1580421290.65493,-1.10133516441596,0.264408331425955,-0.0104982070649271
1580421290.68712,-1.07106126497291,0.139894712748912,0.00561532005798426
1580421290.71954,-1.05104142824445,0.0959487296864268,0.0832532234683754
1580421290.75173,-1.05592431525139,0.173098344396124,0.0544441901274126
1580421290.78392,-1.21803616388189,0.27075608453498,0.210696574349583
1580421290.81611,-1.21705958648051,-0.0178225375753414,0.489021133745325
1580421290.8483,-1.39870298313878,0.0559090562294955,0.123781185626001
1580421290.88048,-1.27663080796521,0.4484931715877,-0.136964980544747
1580421290.91267,-1.31960021362631,0.686289768825819,-0.134523537041275
1580421290.94486,-1.13502708476387,0.487556267643242,-0.158449683375295
1580421290.97705,-1.18580910963607,0.221927214465552,-0.0466315709163041
1580421291.00924,-1.09498741130693,0.132082093537804,0.0124513618677042
1580421291.04143,-0.922621499961853,0.0910658426794839,0.0876478217746239
1580421291.07362,-0.899183642328527,0.172121766994735,-0.0046387426565957
1580421291.1058,-0.906507972838941,0.198001068131532,0.0266117341878385
1580421291.13799,-0.813733119707027,0.176028076600289,0.070557717250324
1580421291.17018,-0.834241245136187,-0.031006332494087,0.300541695277332
1580421291.20237,-0.797619592584116,-0.0358892195010299,0.139406424048218
1580421291.23456,-0.98609903105211,0.0363775082017241,0.0681162737468526
1580421291.26675,-1.00074769207294,-0.238040741588463,0.133546959639887
1580421291.29893,-0.795178149080645,-0.265873197528039,0.523689631494623
1580421291.33112,-1.00025940337224,-0.135500114442664,0.668711375600825
1580421291.36331,-1.27125963225757,0.0271000228885327,0.818127718013276
1580421291.3955,-0.85279621576257,0.35620660715648,0.527595941100177
1580421291.42769,-0.785412375066759,0.259525444419012,0.4314030670634
1580421291.45988,-0.778088044556345,0.148683909361409,0.297123674372472
1580421291.49206,-0.780041199359122,0.0891126878767068,0.201419089036392
1580421291.52425,-1.27663080796521,-0.027588311589227,0.0524910353246355
1580421291.55644,-1.22438391699092,-0.291264209964142,0.185793850614175
1580421291.58863,-1.18532082093538,-0.749767299916074,0.155031662470435
1580421291.62082,-0.751720454718853,-0.156984817273212,0.181399252307926
1580421291.65301,-0.89381246662089,0.413824673838405,0.0358892195010299
1580421291.6852,-1.05983062485695,0.86305027847715,-0.0422369726100555
1580421291.71738,-0.91090257114519,0.3288624399176,0.0939955748836496
1580421291.74957,-1.02711528191043,0.077393759060044,0.0822766460669868
1580421291.78176,-0.975356679636835,0.0822766460669868,0.0441901274128327
1580421291.81395,-0.969497215228504,0.10424963759823,-0.0266117341878385
1580421291.84614,-0.985610742351415,0.141359578850995,0.000732433051041426
1580421291.87833,-0.947524223697261,0.240482185091935,-0.0393072404058898
1580421291.91051,-0.988052185854887,0.226810101472495,-0.0988784618905925
1580421291.9427,-0.96217288471809,0.2434119172961,-0.027588311589227
1580421291.97489,-0.978774700541695,0.184328984512092,-0.0202639810788128
1580421292.00732,-1.06276035706111,0.12133974212253,0.044678416113527
1580421292.03951,-1.00123598077363,0.0295414663920042,0.037842374303807
1580421292.0717,-1.05738918135348,0.0974135957885096,-0.0104982070649271
1580421292.10389,-1.072526131075,0.874769207293813,0.0168459601739528
1580421292.13608,-1.03688105592432,0.199465934233615,-0.0866712443732354
1580421292.16827,-1.02760357061112,0.0837415121690697,-0.0393072404058898
1580421292.20046,-1.0212558175021,0.140871290150301,0.0183108262760356
1580421292.23265,-1.04322880903334,0.132570382238498,-0.130617227435721
1580421292.26483,-1.072526131075,0.00170901045242999,0.0690928511482412
1580421292.29702,-1.00270084687572,-0.00708018616006711,0.180910963607232
1580421292.32921,-1.06031891355764,0.327885862516212,0.0988784618905925
1580421292.3614,-1.15651178759441,0.389410238803691,0.230716411078049
1580421292.39359,-1.14967574578469,0.135011825741969,0.199954222934309
1580421292.42578,-1.2688181887541,-0.0866712443732354,0.154543373769741
1580421292.45797,-1.1067063401236,-0.253665980010682,-0.0935072861829553
1580421292.49016,-1.38600747692073,-0.00317387655451284,-0.0549324788281069
1580421292.52235,-1.49391927977417,0.162355992980849,0.0388189517051956
1580421292.55453,-1.30983443961242,0.223392080567635,0.0280766002899213
1580421292.58672,-1.08668650339513,0.201907377737086,0.0222171358815899
1580421292.61891,-0.974380102235447,0.198977645532921,-0.00903334096284425
1580421292.6511,-0.785900663767453,-0.041260395208667,0.0886243991760125
1580421292.68329,-0.609628442816815,-0.185305561913481,0.215091172655832
1580421292.71548,-0.48023193713283,-0.229251544975966,0.228763256275272
1580421292.74767,-0.469489585717556,-0.340581368734265,0.275638971541923
1580421292.77986,-0.506111238269627,-0.426520180056459,0.374273289082169
1580421292.81205,-0.51783016708629,-0.0959487296864268,0.523689631494623
1580421292.84423,-0.830823224231327,0.209719996948195,0.814709697108416
1580421292.87642,-0.948012512397955,0.0905775539787896,1.05445944914931
1580421292.90861,-0.637460898756389,-0.0612802319371326,0.976821545738918
1580421292.9408,-0.573006790264744,-0.230228122377355,0.639902342259862
1580421292.97299,-0.851819638361182,-0.125734340428778,0.167238879987792
1580421293.00518,-1.64724193179217,-0.0427252613107498,1.10133516441596
1580421293.03737,-1.19264515144579,-0.283451590753033,0.478767071030745
1580421293.06956,-0.575448233768215,-0.0778820477607383,-0.359136339360647
1580421293.10175,-1.08278019378958,0.77418173495079,0.0910658426794839
1580421293.13393,-1.16969558251316,0.639414053559168,-0.077393759060044
1580421293.16612,-0.889906157015336,0.0349126420996413,0.128175783932249
1580421293.19831,-0.959243152513924,-0.147219043259327,0.0456549935149155
1580421293.2305,-0.910414282444496,0.166750591287098,0.00512703135728998
1580421293.26269,-0.840588998245213,0.265873197528038,0.0197756923781185
1580421293.2951,-0.887464713511864,0.145265888456549,-0.00854505226214997
1580421293.32729,-0.991470206759747,0.114991989013504,0.0476081483176927
1580421293.35948,-0.964614328221561,0.174563210498206,-0.0104982070649271
1580421293.39167,-0.997329671168078,0.0764171816586554,-0.0578622110322726
1580421293.42386,-1.11158922713054,0.125246051728084,0.197512779430838
1580421293.45605,-1.243427176318,0.126710917830167,0.2434119172961
1580421293.48824,-1.3112993057145,0.170168612191958,0.126222629129472
1580421293.52043,-1.34401464866102,0.28101014724956,0.107179369802395
1580421293.55262,-1.37672999160754,0.218997482261386,0.28442816815442
1580421293.58481,-1.12037842374304,-0.00219729915312428,0.194583047226672
1580421293.617,-1.26198214694438,-0.0402838178072784,-0.222415503166246
1580421293.64919,-1.44362554360266,0.259037155718318,-0.396246280613413
1580421293.68138,-1.62966353856718,0.227786678873883,-0.113038834210727
1580421293.71357,-1.55983825436789,-0.141847867551689,0.124269474326695
1580421293.74576,-1.20582894636454,0.0520027466239412,-0.0383306630045013
1580421293.77795,-0.853772793163959,0.128664072632944,-0.155519951171129
1580421293.81014,-0.690196078431372,0.209231708247501,-0.0764171816586554
1580421293.84233,-0.427985046158541,0.0837415121690697,-0.0783703364614325
1580421293.87452,-0.23657587548638,0.0402838178072784,-0.294193942168308
1580421293.90671,-0.327397573815519,-0.158449683375295,-0.162844281681544
1580421293.9389,-0.577889677271687,-0.305424582284276,0.659922178988328
1580421293.97109,-1.07496757457847,-0.506111238269627,1.52175173571374
1580421294.00328,-1.1408865491722,-0.155519951171129,0.980727855344472
1580421294.03547,-0.83570611123827,0.0925307087815668,0.337651636530097
1580421294.06766,-0.905043106736859,0.0725108720531011,1.17409018081941
1580421294.09985,-0.583749141680018,-0.244876783398183,-0.688242923628595
1580421294.13204,-1.71267261768521,0.373785000381474,0.317143511100937
1580421294.16423,-0.971938658731975,0.293217364766917,-0.105226214999618
1580421294.19642,-0.496833752956436,-0.284916456855116,-0.134523537041275
1580421294.22861,-1.28200198367285,0.157473105973907,0.0759288929579611
1580421294.2608,-1.04029907682918,0.36646066987106,-0.044678416113527
1580421294.29299,-0.877210650797284,0.169192034790569,0.0432135500114441
1580421294.32518,-0.942153047989624,0.0681162737468526,0.0822766460669868
1580421294.35737,-0.901136797131304,0.225345235370412,0.0197756923781185
1580421294.38956,-0.883070115205616,0.276615548943312,-0.0290531776913099
1580421294.42175,-0.869398031586176,0.191653315022506,-0.00903334096284425
1580421294.45394,-0.798596169985505,0.034424353398947,-0.0798352025635154
1580421294.48613,-0.975356679636835,-0.067139696345464,0.0983901731898982
1580421294.51832,-1.15553521019303,0.292729076066223,0.136476691844052
1580421294.55051,-1.17067215991455,0.3630426489662,0.180910963607232
1580421294.58285,-1.26442359044785,0.252201113908598,0.0881361104753182
1580421294.61504,-1.40749217975128,0.099855039291981,0.162844281681544
1580421294.64723,-1.43239490348669,0.0568856336308841,0.385992217898831
1580421294.67942,-1.2600289921416,-0.0197756923781185,-0.0334477759975584
1580421294.71161,-1.56472114137484,0.0349126420996413,-0.474372472724498
1580421294.7438,-1.46266880292973,0.427008468757151,-0.508552681773098
1580421294.77599,-1.4655985351339,0.257572289616235,-0.361089494163425
1580421294.80818,-1.3454795147631,0.0427252613107498,0.158449683375295
1580421294.84037,-1.10719462882429,-0.0397955291065841,-0.0632333867399097
1580421294.87256,-0.855725947966736,-0.0075684748607614,-0.0427252613107498
1580421294.90475,-0.668223086900129,0.096437018387121,-0.0832532234683754
1580421294.93694,-0.479743648432136,0.0383306630045013,-0.214602883955138
1580421294.96913,-0.339604791332876,-0.0363775082017241,-0.255619134813459
1580421295.00132,-0.236087586785686,0.0559090562294955,-0.164309147783626
1580421295.03351,-0.655039291981383,-0.0251468680857556,0.739024948500802
1580421295.0657,-1.05250629434653,-0.338628213931488,0.87672236209659
1580421295.09789,-1.06813153276875,0.00122072175173571,1.76247806515602
1580421295.13008,-0.95533684290837,0.0197756923781185,0.318120088502326
1580421295.16227,-1.00025940337224,-0.173098344396124,0.856702525368124
1580421295.19446,-1.04176394293126,-0.221438925764858,0.92799267566949
1580421295.22665,-1.13649195086595,0.275150682841229,-0.00219729915312428
1580421295.25884,-0.832776379034105,0.104737926298924,-0.270267795834288
1580421295.29103,-0.985122453650721,0.114991989013504,-0.112550545510032
1580421295.32322,-1.20778210116731,0.378667887388417,-0.0202639810788128
1580421295.35541,-0.995376516365301,0.154543373769741,0.0764171816586554
1580421295.3876,-0.913832303349356,0.159914549477378,0.0495613031204698
1580421295.41979,-0.932875562676433,0.161867704280155,0.110109102006561
1580421295.45198,-0.90748455024033,0.165774013885709,0.0974135957885096
1580421295.48417,-0.822522316319525,-0.00561532005798426,0.128664072632944
1580421295.51636,-0.94850080109865,0.134035248340581,0.131105516136415
1580421295.54855,-0.941176470588236,0.0744640268558783,0.175539787899595
1580421295.58074,-0.833752956435493,0.137453269245441,0.0583504997329669
1580421295.61293,-0.990005340657664,0.139894712748912,0.105714503700312
1580421295.64512,-1.14674601358053,0.137941557946135,0.156008239871824
1580421295.67731,-1.18629739833677,0.216556038757915,0.132082093537804
1580421295.7095,-1.21217669947356,0.148683909361409,0.206790264744029
1580421295.74169,-1.30934615091173,0.289799343862057,0.361089494163423
1580421295.77388,-1.18239108873121,0.0559090562294955,0.159914549477378
1580421295.80607,-1.30104524299992,0.0720225833524069,-0.0729991607537954
1580421295.83826,-1.51833371480888,0.117433432516975,-0.561776150148775
1580421295.86978,-1.35280384527352,0.538338292515451,-0.628671702143892
1580421295.90197,-1.55349050125887,0.31519035629816,0.213626306553749
1580421295.93416,-1.48659494926375,0.0632333867399097,0.0500495918211641
1580421295.96634,-1.19264515144579,-0.00366216525520713,-0.144289311055161
1580421295.99853,-0.827893492027162,0.0500495918211641,-0.0183108262760356
1580421296.03072,-0.664805065995269,0.153078507667658,-0.142336156252384
1580421296.06291,-0.537850003814755,0.236087586785686,-0.525642786297398
1580421296.0951,-0.305424582284276,0.127687495231555,-0.231204699778743
1580421296.12729,-0.354741741054399,0.0939955748836496,0.486091401541159
1580421296.15947,-1.13405050736248,-0.530037384603647,0.525154497596706
1580421296.19166,-1.19508659494926,0.199465934233615,1.04567025253681
1580421296.22385,-1.0041657129778,-0.170168612191958,0.520271610589763
1580421296.25604,-0.726329442282749,-0.581307698176547,0.86305027847715
1580421296.28822,-1.6023193713283,0.236087586785686,0.321049820706492
1580421296.32041,-1.41286335545892,0.59058518348974,0.281986724650949
1580421296.3526,-0.700938429846646,0.226321812771801,0.179934386205844
1580421296.38479,-0.74244296940566,-0.334233615625239,-0.217532616159303
1580421296.41698,-1.22194247348745,0.0832532234683754,0.188235294117646
1580421296.44916,-1.03639276722362,0.29810025177386,0.106691081101701
1580421296.48135,-0.950453955901427,0.194094758525978,0.255130846112763
1580421296.51354,-0.998306248569467,0.278080415045395,0.208255130846112
1580421296.54573,-0.917250324254216,0.357183184557869,0.0764171816586554
1580421296.57792,-0.941176470588236,0.296147096971083,-0.0168459601739528
1580421296.6101,-1.00953688868544,0.0881361104753182,0.102784771496147
1580421296.64229,-0.959731441214618,0.132570382238498,0.10424963759823
1580421296.67448,-0.982192721446555,0.0935072861829553,-0.0681162737468526
1580421296.70667,-1.03590447852293,0.00610360875867855,0.0397955291065841
1580421296.73885,-0.973891813534753,0.060303654535744,0.145265888456549
1580421296.77104,-0.971938658731975,0.200442511635003,0.00317387655451284
1580421296.80323,-1.04371709773404,0.177004654001678,0.00268558785381856
1580421296.83542,-1.05152971694514,0.0495613031204698,-0.000732433051041426
1580421296.86761,-1.05201800564584,-0.0700694285496297,0.197512779430838
1580421296.89979,-1.14576943617914,0.191165026321812,0.0109864957656214
1580421296.93198,-1.19557488364996,0.258060578316929,0.10424963759823
1580421296.96417,-1.1067063401236,0.273685816739146,0.195071335927366
1580421296.99636,-1.06324864576181,0.0900892652780954,0.178957808804455
1580421297.02855,-1.02760357061112,-0.0207522697795071,0.157961394674601
1580421297.06073,-1.12916762035553,0.242435339894712,0.157961394674601
1580421297.09292,-1.23903257801175,0.672617685206379,0.0109864957656214
1580421297.12511,-1.09303425650416,0.557381551842528,0.00122072175173571
1580421297.15768,-1.05445944914931,0.198977645532921,0.0837415121690697
1580421297.18987,-1.14235141527428,0.0046387426565957,0.323491264209963
1580421297.22206,-1.05152971694514,-0.0651865415426869,0.293705653467612
1580421297.25425,-0.861585412375067,0.0695811398489354,0.190188448920424
1580421297.28644,-0.801037613488976,0.0769054703593497,0.158937972075989
1580421297.31863,-0.874769207293813,-0.11450370031281,0.248783093003738
1580421297.35082,-0.943129625391013,-0.306889448386359,0.255130846112763
1580421297.38301,-0.894789044022279,-0.263431754024568,0.265873197528038
1580421297.41519,-0.728282597085526,-0.165774013885709,0.319584954604409
1580421297.44738,-0.700450141145952,-0.113527122911421,0.391363393606468
1580421297.47957,-0.668711375600823,-0.160402838178072,0.487556267643242
1580421297.51176,-0.719005111772335,-0.125734340428778,0.794201571679256
1580421297.54395,-0.736095216296635,-0.301518272678722,0.977309834439613
1580421297.57614,-0.689707789730678,-0.0920424200808725,0.924086366063936
1580421297.60833,-0.720958266575112,0.0583504997329669,0.497810330357822
1580421297.64052,-0.777111467154956,-0.165285725185015,0.486579690241854
1580421297.67271,-0.929457541771573,-0.429449912260624,0.907972838941024
1580421297.7049,-0.654062714579995,-0.275150682841231,0.0778820477607383
1580421297.73708,-1.21950102998398,0.113527122911421,0.470466163118942
1580421297.76927,-0.98951705195697,0.450934615091171,-0.0422369726100555
1580421297.80146,-0.741954680704966,-0.0202639810788128,0.0974135957885096
1580421297.83365,-1.22780193789578,0.0852063782711525,0.0246585793850613
1580421297.86584,-1.0378576333257,0.301029983978026,0.0505378805218584
1580421297.89803,-0.894300755321584,0.246341649500266,-0.0324711985961699
1580421297.93022,-0.95191882200351,0.170168612191958,0.0490730144197755
1580421297.96241,-0.87672236209659,0.116945143816281,0.0700694285496297
1580421297.99459,-0.97242694743267,-0.0261234454871442,0.0441901274128327
1580421298.02678,-0.885023270008393,0.185793850614175,-0.0803234912642097
1580421298.05897,-0.901625085831999,0.272709239337757,-0.0471198596169984
1580421298.09116,-0.993423361562524,0.238529030289158,-0.220950637064163
1580421298.12335,-1.34303807125963,0.0710460059510183,0.225833524071106
1580421298.15554,-1.4138399328603,-0.0900892652780954,0.688731212329291
1580421298.18773,-1.35768673228046,-0.102296482795452,-0.0280766002899213
1580421298.21992,-1.46169222552834,0.312260624093994,0.158937972075989
1580421298.25211,-1.38649576562142,0.23315785458152,0.290287632562752
1580421298.28429,-1.24440375371939,0.11792172121767,0.0959487296864268
1580421298.31648,-1.37087052719921,-0.00659189745937283,-0.771252002746625
1580421298.34867,-1.51589227130541,0.201907377737086,-0.282963302052339
1580421298.38086,-1.53884184023804,0.111573968108644,-0.0295414663920042
1580421298.41305,-1.34157320515755,-0.0886243991760125,0.0129396505683985
1580421298.44556,-1.03736934462501,0.172121766994735,-0.202883955138475
1580421298.47775,-0.790295262073702,0.273685816739146,-0.0729991607537954
1580421298.50993,-0.54175631342031,0.174563210498206,-0.0227054245822842
1580421298.54212,-0.324467841611353,0.0227054245822842,-0.232181277180132
1580421298.57431,-0.232181277180132,-0.0129396505683985,-0.299076829175251
1580421298.6065,-0.295170519569696,-0.216556038757915,0.041260395208667
1580421298.63869,-0.695567254139009,-0.576424811169604,1.28639658197909
1580421298.67088,-1.4826886396582,-0.473884184023804,1.35231555657282
1580421298.70307,-0.711192492561226,0.340093080033569,0.50513466086824
1580421298.73526,-0.709239337758449,0.205325398641946,0.554940108339057
1580421298.76745,-1.09352254520485,0.031006332494087,0.47241931792172
1580421298.79964,-1.60866712443732,-0.24682993820096,0.357671473258563
1580421298.83183,-0.689707789730678,-0.0104982070649271,-0.135011825741969
1580421298.86402,-0.875257495994507,0.208743419546806,-0.166262302586404
1580421298.89621,-1.35329213397421,0.581795986877243,-0.070557717250324
1580421298.9284,-0.950942244602121,0.314213778896772,0.0524910353246355
1580421298.96059,-0.889906157015336,0.00122072175173571,-0.00268558785381856
1580421298.99278,-0.954848554207675,-0.00317387655451284,0.0729991607537954
1580421299.02496,-0.88697642481117,0.173586633096818,0.0578622110322726
1580421299.05715,-0.778088044556345,0.0866712443732354,-0.01196307316701
1580421299.08934,-0.853284504463264,0.268802929732203,-0.0437018387121384
1580421299.12153,-0.900160219729916,0.285404745555809,-0.00268558785381856
1580421299.15372,-1.09108110170138,0.171145189593346,0.138429846646829
1580421299.18591,-1.29176775768673,0.000732433051041426,0.389410238803691
1580421299.2181,-1.34010833905547,-0.0334477759975584,0.111573968108644
1580421299.25029,-1.31227588311589,0.194094758525978,0.213626306553749
1580421299.28248,-1.45534447241932,0.254642557412069,0.30151827267872
1580421299.31467,-1.1750667582208,0.133546959639887,0.214114595254443
1580421299.34686,-1.25123979552911,0.0871595330739297,-0.199465934233615
1580421299.37905,-1.54811932555123,0.188723582818341,-0.482185091935607
1580421299.41124,-1.54958419165331,0.400152590218966,-0.443610284580759
1580421299.44343,-1.5935301747158,-0.123292896925307,0.0690928511482412
1580421299.47562,-1.19899290455482,0.10766765850309,-0.121828030823224
1580421299.5078,-0.876234073395896,0.192629892423895,-0.110109102006561
1580421299.53999,-0.629648279545281,0.142336156252384,-0.0803234912642097
1580421299.57218,-0.481208514534218,0.0988784618905925,-0.212649729152361
1580421299.60437,-0.329350728618296,-0.0163576714732585,-0.160891126878766
1580421299.63656,-0.261478599221791,-0.45972381170367,0.204837109941252
1580421299.66875,-0.353276874952316,-0.170168612191958,0.474372472724497
1580421299.70094,-1.09547570000763,-0.121828030823224,0.901625085831999
1580421299.73346,-1.24733348592355,0.143312733653772,1.55251392385748
1580421299.76565,-0.738536659800106,0.0852063782711525,0.281498435950255
1580421299.79784,-0.841077286945907,-0.298588540474556,1.06520180056458
1580421299.83003,-1.09108110170138,-0.0559090562294955,-0.148683909361409
1580421299.86222,-1.39382009613184,-0.204837109941252,0.25024795910582
1580421299.89441,-0.825940337224385,0.211184863050278,-0.142824444953078
1580421299.9266,-0.883070115205616,0.317143511100937,-0.0827649347676811
1580421299.95879,-1.24586861982147,0.575936522468911,-0.0876478217746239
1580421299.99098,-0.954848554207675,0.387457084000914,0.0734874494544897
1580421300.02317,-0.915785458152133,-0.0334477759975584,0.0573739223315783
1580421300.05536,-0.939711604486153,-0.044678416113527,0.113527122911421
1580421300.08755,-0.691660944533455,-0.362066071564813,0.0700694285496297
1580421300.11974,-0.84254215304799,0.130617227435721,0.073975738155184
1580421300.15193,-0.843030441748684,0.174563210498206,-0.0163576714732585
1580421300.18412,-0.901136797131304,0.112550545510032,-0.0109864957656214
1580421300.21631,-0.94508278019379,0.140871290150301,0.156008239871824
1580421300.2485,-1.15944151979858,0.190676737621118,0.187258716716258
1580421300.28069,-1.243427176318,0.3117723353933,0.206790264744029
1580421300.31289,-1.30202182040131,0.275638971541923,0.226810101472495
1580421300.34507,-1.48122377355612,0.250736247806515,0.327397573815517
1580421300.37727,-1.30934615091173,0.0183108262760356,0.364507515068283
1580421300.40946,-1.27467765316243,0.0432135500114441,-0.027588311589227
1580421300.44165,-1.58181124589914,0.101808194094758,-0.715587090867475
1580421300.47384,-1.56911573968109,0.452399481193254,-0.343022812237736
1580421300.50603,-1.63259327077134,-0.0334477759975584,0.160402838178072
1580421300.53822,-1.31667048142214,-0.0363775082017241,0.0104982070649271
1580421300.57041,-1.00074769207294,0.155519951171129,-0.154055085069047
1580421300.6026,-0.747814145113297,0.173098344396124,-0.0588387884336612
1580421300.63479,-0.470954451819638,0.0954604409857325,-0.182375829709315
1580421300.66698,-0.212649729152361,-0.00610360875867855,-0.356206607156482
1580421300.69917,-0.00708018616006711,0.263431754024566,-1.11110093842985
1580421300.73136,-0.737560082398717,-0.281498435950256,0.919691767757687
1580421300.76355,-1.06910811017014,-0.887953002212559,1.50075532158389
1580421300.79574,-1.02711528191043,-0.063721675440604,0.78443579766537
1580421300.82793,-0.971938658731975,0.000244144350347142,0.58716716258488
1580421300.86012,-0.743419546807049,-0.0153810940718699,1.04567025253681
1580421300.89231,-1.27272449835966,0.466559853513388,-0.355718318455787
1580421300.9245,-1.32985427634089,0.183352407110704,-0.0373540856031127
1580421300.95669,-0.978286411841001,-0.0666514076447697,-0.0583504997329669
1580421300.98888,-1.06227206836042,0.204837109941252,-0.112062256809338
1580421301.02142,-1.13112077515831,0.536385137712674,-0.217532616159303
1580421301.05361,-1.07838559548333,0.389410238803691,0.0783703364614325
1580421301.08581,-1.02711528191043,0.0651865415426869,0.130617227435721
1580421301.118,-0.998794537270161,-0.215579461356526,0.146242465857938
1580421301.15019,-0.89039444571603,0.00512703135728998,0.0847180895704582
1580421301.18238,-0.86646829938201,0.246341649500266,-0.0183108262760356
1580421301.21457,-0.90064850843061,0.264896620126649,0.0495613031204698
1580421301.24676,-1.01197833218891,0.33228046082246,0.00903334096284425
1580421301.27895,-0.966079194323644,0.0485847257190812,0.0759288929579611
1580421301.31114,-0.946547646295873,-0.0202639810788128,0.186770428015564
1580421301.34334,-1.07057297627222,0.0686045624475469,0.0710460059510183
1580421301.37553,-1.02223239490349,0.0583504997329669,0.123292896925307
1580421301.40772,-1.07594415197986,0.156496528572518,0.0954604409857325
1580421301.43991,-1.05885404745556,0.212649729152361,0.208255130846112
1580421301.4721,-1.0295567254139,0.335210193026626,0.282475013351643
1580421301.50429,-1.11744869153887,0.0656748302433812,0.208255130846112
1580421301.53648,-1.3205767910277,0.150637064164187,0.401129167620354
1580421301.56868,-1.28053711757076,0.0075684748607614,0.044678416113527
1580421301.60087,-1.0383459220264,0.0769054703593497,0.137941557946135
1580421301.63306,-1.11012436102846,0.531990539406426,0.0798352025635154
1580421301.66525,-1.12574959945067,0.793224994277868,0.00170901045242999
1580421301.69744,-1.10865949492637,0.521736476691846,0.159426260776684
1580421301.72963,-1.10084687571527,0.415777828641183,0.0515144579232469
1580421301.76182,-0.945571068894484,0.292729076066223,0.0407721065079727
1580421301.79401,-0.930922407873656,0.176028076600289,-0.0349126420996413
1580421301.82621,-0.944594491493095,0.0778820477607383,0.0192874036774242
1580421301.8584,-0.995864805065995,-0.0153810940718699,0.262943465323872
1580421301.89059,-1.01100175478752,-0.0813000686655982,0.281498435950255
1580421301.92278,-0.99293507286183,-0.106202792401007,0.204837109941252
1580421301.95497,-0.951430533302815,0.0437018387121384,0.187258716716258
1580421301.98716,-0.999282825970855,0.201907377737086,0.139406424048218
1580421302.01935,-1.12819104295415,-0.0695811398489354,0.406012054627297
1580421302.05154,-0.929945830472267,-0.213626306553749,0.618905928130008
1580421302.08373,-0.861097123674373,-0.11450370031281,0.447028305485617
1580421302.11593,-0.821545738918136,-0.12133974212253,0.435797665369648
1580421302.14812,-0.730724040588997,-0.060303654535744,0.309819180590523
1580421302.18031,-0.705333028152895,-0.00561532005798426,0.331792172121766
1580421302.2125,-0.802502479591059,0.132082093537804,0.405523765926603
1580421302.24469,-1.18483253223468,-0.0725108720531011,-0.0813000686655982
1580421302.27688,-1.40016784924086,-0.0324711985961699,0.561776150148777
1580421302.30939,-0.974868390936141,-0.0334477759975584,0.119386587319752
1580421302.34158,-0.6877546349279,0.00805676356145568,-0.146242465857938
1580421302.37377,-1.12623788815137,0.341557946135651,0.0534676127260241
1580421302.40596,-1.08033875028611,0.343022812237734,-0.0114747844663157
1580421302.43815,-0.906019684138247,0.0192874036774242,0.0568856336308841
1580421302.47035,-1.01100175478752,0.0676279850461583,0.0822766460669868
1580421302.50254,-0.943617914091707,0.116456855115587,-0.0046387426565957
1580421302.53473,-0.915785458152133,0.195559624628061,0.0314946211947813
1580421302.56692,-1.00758373388266,0.237552452887769,0.0471198596169984
1580421302.59911,-1.01539635309377,0.279545281147477,0.00659189745937283
1580421302.6313,-0.917250324254216,0.123781185626001,-0.0388189517051956
1580421302.6635,-1.00758373388266,0.757579919127185,-0.0197756923781185
1580421302.69569,-0.96217288471809,0.187747005416952,-0.0944838635843439
1580421302.72788,-1.0041657129778,0.270267795834286,-0.0803234912642097
1580421302.76007,-1.07106126497291,0.256595712214846,-0.0451667048142212
1580421302.79226,-1.11891355764095,0.134523537041275,-0.0139162279697871
1580421302.82446,-1.18434424353399,0.0500495918211641,0.224368657969023
1580421302.85665,-1.31715877012284,0.151125352864881,0.0529793240253298
1580421302.88884,-1.29518577859159,0.136476691844052,0.257572289616235
1580421302.92103,-1.33376058594644,0.188235294117646,0.295170519569695
1580421302.95322,-1.21608300907912,0.149660486762798,0.429449912260623
1580421302.98541,-1.16090638590066,0.0271000228885327,0.174563210498206
1580421303.0176,-1.24684519722286,0.0329594872968642,-0.506111238269627
1580421303.0498,-1.57888151369497,0.193606469825284,0.0690928511482412
1580421303.08199,-1.68923476005188,-0.0612802319371326,-0.0100099183642328
1580421303.11418,-1.35866330968185,0.0837415121690697,-0.0246585793850613
1580421303.14637,-1.08326848249027,0.258548867017623,-0.0778820477607383
1580421303.17856,-0.856702525368124,0.234622720683603,-0.110597390707255
1580421303.21076,-0.499275196459907,0.0163576714732585,0.00854505226214997
1580421303.24295,-0.224368657969023,0.0197756923781185,-0.0817883573662925
1580421303.27514,-0.130617227435721,-0.164309147783626,0.00512703135728998
1580421303.30733,-0.212649729152361,-0.44263370717937,0.329839017318989
1580421303.33952,-0.686778057526512,-0.421149004348822,0.985122453650721
1580421303.37171,-1.43434805828946,0.073975738155184,1.12867933165484
1580421303.40391,-0.908461127641718,0.0783703364614325,0.89381246662089
1580421303.4361,-0.739513237201495,-0.204837109941252,0.964126039520867
1580421303.46829,-0.987075608453498,0.0993667505912867,-0.0217288471808956
1580421303.50048,-1.09401083390555,-0.339604791332876,0.0720225833524069
1580421303.53267,-0.976821545738918,0.321049820706492,-0.0769054703593497
1580421303.56486,-0.919691767757687,0.217532616159303,-0.096437018387121
1580421303.59732,-1.09498741130693,0.384039063096054,0.0207522697795071
1580421303.62951,-0.946547646295873,0.39038681620508,0.0646982528419926
1580421303.66171,-0.847425040054933,0.0856946669718468,0.024170290684367
1580421303.6939,-0.898207064927139,-0.0314946211947813,0.143801022354467
1580421303.72609,-0.878187228198673,-0.0251468680857556,0.168703746089875
1580421303.75828,-0.836194399938964,0.080811779964904,-0.0656748302433812
1580421303.79047,-0.922621499961853,0.175539787899595,0.152101930266269
1580421303.82267,-0.88697642481117,-0.027588311589227,0.080811779964904
1580421303.85486,-1.1921568627451,0.290775921263446,0.228763256275272
1580421303.88705,-1.36647592889296,0.103273060196841,0.30835431448844
1580421303.91924,-1.39870298313878,0.198489356832226,0.372320134279391
1580421303.95143,-1.54909590295262,0.260990310521095,0.341557946135651
1580421303.98363,-1.20973525597009,0.0388189517051956,0.409430075532157
1580421304.01582,-1.44411383230335,0.283451590753032,-0.232669565880826
1580421304.04801,-1.56032654306859,0.326420996414129,-0.817639429312582
1580421304.0802,-1.84499885557336,0.0700694285496297,0.118410009918364
1580421304.1124,-1.59597161821927,-0.157473105973907,0.106691081101701
1580421304.14459,-1.24489204242008,-0.0290531776913099,-0.0710460059510183
1580421304.17678,-0.779064621957733,0.157961394674601,-0.206790264744029
1580421304.20897,-0.546639200427252,0.250736247806515,-0.0993667505912867
1580421304.24116,-0.206790264744029,0.165774013885709,-0.131593804837109
1580421304.27336,-0.0134279392690928,0.0305180437933927,-0.448493171587701
1580421304.30555,-0.143312733653772,0.249271381704432,-0.983657587548638
1580421304.33774,-0.834241245136187,-0.429449912260624,1.61013199053941
1580421304.36993,-1.8923628595407,-1.17018387121385,1.76003662165255
1580421304.40213,-0.457282368200199,0.588632028686963,0.396246280613411
1580421304.43432,-0.876234073395896,0.378667887388417,0.176516365300984
1580421304.46651,-1.41969939726864,-0.0856946669718468,-0.213626306553749
1580421304.4987,-1.47634088654917,0.0246585793850613,-0.138918135347524
1580421304.53089,-0.79127183947509,0.185793850614175,-0.265873197528039
