Timestamp_seconds,Gyro_X_s,Gyro_Y_s,Gyro_Z_s
1580421251.42719,4.30304417486832,-0.51880674448762,-2.7161058976119
1580421251.43119,3.08232242313261,-0.823987182421661,-2.53299763485165
1580421251.43518,1.67849240863666,-0.762951094834762,-2.28885328450451
1580421251.43917,-0.0305180437933359,-0.51880674448762,-1.9226367589838
1580421251.44317,-1.8616006713969,-0.152590218966907,-1.61745632104976
1580421251.44716,-3.93682764934761,0.213626306553806,-1.25123979552905
1580421251.45114,-5.76791027695117,0.51880674448762,-1.0070954451819
1580421251.45513,-7.41588464179449,0.885023270008332,-0.762951094834762
1580421251.45913,-8.75867856870377,1.0681315327688,-0.335698481727377
1580421251.46312,-9.97940032043948,1.0681315327688,-0.152590218966907
1580421251.46712,-10.955977721828,1.37331197070262,-0.0305180437933359
1580421251.47111,-11.7494468604561,1.43434805828952,0.152590218966907
1580421251.47511,-12.6039520866711,1.55642023346309,0.091554131380235
1580421251.4791,-13.3974212252995,1.61745632104976,0.274662394140478
1580421251.48309,-14.4350347142747,1.73952849622333,0.274662394140478
1580421251.48709,-15.2895399404897,1.8616006713969,0.152590218966907
1580421251.49108,-16.2050812542916,1.98367284657047,-0.0305180437933359
1580421251.49507,-17.1816586556802,1.8616006713969,-0.274662394140478
1580421251.49907,-17.9140917067216,1.73952849622333,-0.51880674448762
1580421251.50306,-18.5854886701761,1.67849240863666,-0.640878919661191
1580421251.50706,-18.8906691081102,1.43434805828952,-1.0681315327688
1580421251.51105,-19.501029983978,1.25123979552905,-1.37331197070262
1580421251.51504,-19.9282825970854,1.0070954451819,-1.80056458381023
1580421251.51904,-20.4165712977797,0.70191500724809,-2.28885328450451
1580421251.52303,-20.904859998474,0.579842832074519,-2.59403372243833
1580421251.52703,-21.3931486991683,0.640878919661191,-2.89921416037237
1580421251.53104,-21.8204013122759,0.579842832074519,-3.08232242313261
1580421251.53503,-22.064545662623,0.640878919661191,-3.26543068589308
1580421251.53902,-22.1866178377966,0.885023270008332,-3.26543068589308
1580421251.54302,-22.1866178377966,1.0681315327688,-3.26543068589308
1580421251.54701,-22.1866178377966,1.12916762035547,-3.32646677347975
1580421251.55101,-22.1866178377966,1.43434805828952,-3.26543068589308
1580421251.555,-22.2476539253832,1.61745632104976,-3.26543068589308
1580421251.55899,-22.1866178377966,1.73952849622333,-3.26543068589308
1580421251.56299,-21.8814373998625,1.8616006713969,-3.26543068589308
1580421251.56698,-21.2710765239947,2.04470893415737,-3.20439459830618
1580421251.57098,-20.355535210193,2.28885328450451,-3.20439459830618
1580421251.57497,-19.1348134584573,2.59403372243833,-3.14335851071951
1580421251.57896,-17.7309834439611,2.89921416037237,-3.14335851071951
1580421251.58296,-16.4492256046387,3.02128633554594,-3.02128633554594
1580421251.58695,-15.1064316777295,3.14335851071951,-2.96025024795904
1580421251.59095,-13.8857099259938,3.26543068589308,-2.7771419851988
1580421251.59494,-12.5429159990845,3.32646677347975,-2.65506981002522
1580421251.59893,-11.2611581597619,3.32646677347975,-2.53299763485165
1580421251.60293,-9.97940032043948,3.38750286106665,-2.41092545967808
1580421251.60692,-8.75867856870377,3.50957503624022,-2.28885328450451
1580421251.6109,-7.53795681696806,3.63164721141379,-2.16678110933094
1580421251.61489,-6.62241550316617,3.69268329900046,-2.04470893415737
1580421251.61889,-5.82894636453807,3.69268329900046,-1.98367284657047
1580421251.62288,-4.8523689631495,3.69268329900046,-1.80056458381023
1580421251.62688,-3.93682764934761,3.63164721141379,-1.61745632104976
1580421251.63087,-2.96025024795904,3.32646677347975,-1.37331197070262
1580421251.63486,-2.04470893415737,3.14335851071951,-1.12916762035547
1580421251.63886,-1.31227588311594,2.65506981002522,-0.946059357595232
1580421251.64285,-1.0070954451819,2.22781719691761,-0.823987182421661
1580421251.64685,-0.579842832074519,1.73952849622333,-0.579842832074519
1580421251.65084,-0.274662394140478,1.25123979552905,-0.579842832074519
1580421251.65483,-0.213626306553806,0.823987182421661,-0.457770656900948
1580421251.65883,0.0305180437933359,0.396734569314049,-0.51880674448762
1580421251.66282,0.213626306553806,-0.0305180437933359,-0.51880674448762
1580421251.66682,0.396734569314049,-0.335698481727377,-0.579842832074519
1580421251.67081,0.579842832074519,-0.51880674448762,-0.70191500724809
1580421251.6748,0.762951094834762,-0.70191500724809,-0.762951094834762
1580421251.6788,0.762951094834762,-0.823987182421661,-0.823987182421661
1580421251.68279,0.885023270008332,-0.946059357595232,-0.51880674448762
1580421251.68679,1.12916762035547,-1.0681315327688,-0.457770656900948
1580421251.6908,1.37331197070262,-1.12916762035547,-0.274662394140478
1580421251.69479,1.67849240863666,-1.0681315327688,-0.091554131380235
1580421251.69878,2.04470893415737,-1.12916762035547,0.0305180437933359
1580421251.70278,2.41092545967808,-1.19020370794237,0.152590218966907
1580421251.70677,2.7161058976119,-1.19020370794237,0.396734569314049
1580421251.71076,3.02128633554594,-1.19020370794237,0.396734569314049
1580421251.71476,3.08232242313261,-1.19020370794237,0.51880674448762
1580421251.71875,3.08232242313261,-1.0681315327688,0.579842832074519
1580421251.72275,2.96025024795904,-1.0681315327688,0.51880674448762
1580421251.72674,2.89921416037237,-1.0070954451819,0.213626306553806
1580421251.73073,2.7161058976119,-0.823987182421661,0.152590218966907
1580421251.73473,2.53299763485165,-0.70191500724809,-0.0305180437933359
1580421251.73872,2.34988937209118,-0.51880674448762,-0.0305180437933359
1580421251.74272,2.10574502174404,-0.457770656900948,-0.091554131380235
1580421251.74671,1.9226367589838,-0.640878919661191,-0.091554131380235
1580421251.75071,2.04470893415737,-0.640878919661191,-0.0305180437933359
1580421251.7547,1.8616006713969,-0.579842832074519,-0.091554131380235
1580421251.75869,1.80056458381023,-0.51880674448762,0.091554131380235
1580421251.76269,1.73952849622333,-0.396734569314049,0.213626306553806
1580421251.76668,1.73952849622333,-0.274662394140478,0.335698481727377
1580421251.77066,1.73952849622333,-0.213626306553806,0.457770656900948
1580421251.77465,1.80056458381023,-0.152590218966907,0.51880674448762
1580421251.77865,2.04470893415737,0.152590218966907,0.823987182421661
1580421251.78264,1.98367284657047,0.213626306553806,0.885023270008332
1580421251.78664,2.16678110933094,0.396734569314049,0.946059357595232
1580421251.79063,2.16678110933094,0.579842832074519,1.0681315327688
1580421251.79462,2.22781719691761,0.70191500724809,1.0070954451819
1580421251.79862,2.04470893415737,0.885023270008332,1.0681315327688
1580421251.80261,1.8616006713969,0.885023270008332,1.0681315327688
1580421251.80661,1.67849240863666,0.823987182421661,0.885023270008332
1580421251.8106,1.37331197070262,0.823987182421661,0.823987182421661
1580421251.81459,0.946059357595232,1.0681315327688,0.640878919661191
1580421251.81859,0.579842832074519,1.12916762035547,0.579842832074519
1580421251.82258,0.335698481727377,1.25123979552905,0.396734569314049
1580421251.82658,0.152590218966907,1.37331197070262,0.335698481727377
1580421251.83057,-0.091554131380235,1.31227588311594,0.396734569314049
1580421251.83456,-0.213626306553806,1.12916762035547,0.457770656900948
1580421251.83856,-0.457770656900948,1.19020370794237,0.640878919661191
1580421251.84255,-0.640878919661191,1.0681315327688,0.70191500724809
1580421251.84655,-0.70191500724809,0.885023270008332,0.762951094834762
1580421251.85055,-0.946059357595232,0.762951094834762,0.946059357595232
1580421251.85455,-1.0070954451819,0.762951094834762,1.0681315327688
1580421251.85854,-1.19020370794237,0.762951094834762,1.12916762035547
1580421251.86254,-1.19020370794237,0.640878919661191,1.12916762035547
1580421251.86653,-1.25123979552905,0.640878919661191,1.0681315327688
1580421251.87052,-1.37331197070262,0.579842832074519,1.0070954451819
1580421251.87452,-1.55642023346309,0.51880674448762,0.823987182421661
1580421251.87851,-1.55642023346309,0.640878919661191,0.762951094834762
1580421251.88251,-1.80056458381023,0.579842832074519,0.640878919661191
1580421251.8865,-1.9226367589838,0.640878919661191,0.51880674448762
1580421251.89049,-2.10574502174404,0.579842832074519,0.457770656900948
1580421251.89449,-2.22781719691761,0.457770656900948,0.274662394140478
1580421251.89848,-2.34988937209118,0.335698481727377,0.152590218966907
1580421251.90248,-2.34988937209118,0.152590218966907,0.0305180437933359
1580421251.90647,-2.34988937209118,0.091554131380235,-0.0305180437933359
1580421251.91047,-2.47196154726475,0.0305180437933359,-0.213626306553806
1580421251.91446,-2.28885328450451,-0.213626306553806,-0.457770656900948
1580421251.91845,-2.28885328450451,-0.335698481727377,-0.457770656900948
1580421251.92245,-2.10574502174404,-0.51880674448762,-0.640878919661191
1580421251.92644,-2.04470893415737,-0.51880674448762,-0.70191500724809
1580421251.93042,-1.73952849622333,-0.51880674448762,-0.762951094834762
1580421251.93441,-1.43434805828952,-0.457770656900948,-0.762951094834762
1580421251.93841,-1.0681315327688,-0.51880674448762,-0.762951094834762
1580421251.9424,-0.762951094834762,-0.640878919661191,-0.762951094834762
1580421251.94639,-0.640878919661191,-0.823987182421661,-0.640878919661191
1580421251.95039,-0.274662394140478,-0.823987182421661,-0.579842832074519
1580421251.95438,0.0305180437933359,-0.885023270008332,-0.457770656900948
1580421251.95838,0.335698481727377,-0.885023270008332,-0.457770656900948
1580421251.96237,0.823987182421661,-1.0070954451819,-0.213626306553806
1580421251.96636,1.0681315327688,-0.946059357595232,-0.091554131380235
1580421251.97036,1.31227588311594,-0.885023270008332,-0.091554131380235
1580421251.97435,1.67849240863666,-1.0070954451819,0.091554131380235
1580421251.97835,2.16678110933094,-1.0681315327688,0.213626306553806
1580421251.98234,2.7771419851988,-1.19020370794237,0.335698481727377
1580421251.98634,3.08232242313261,-1.31227588311594,0.396734569314049
1580421251.99033,3.50957503624022,-1.43434805828952,0.335698481727377
1580421251.99432,3.69268329900046,-1.37331197070262,0.335698481727377
1580421251.99832,4.05889982452118,-1.49538414587619,0.152590218966907
1580421252.00231,4.18097199969475,-1.55642023346309,0.091554131380235
1580421252.0063,4.36408026245522,-1.49538414587619,0.0305180437933359
1580421252.01031,4.66926070038903,-1.61745632104976,-0.0305180437933359
1580421252.01431,4.8523689631495,-1.55642023346309,0.091554131380235
1580421252.0183,5.21858548867021,-1.55642023346309,0.091554131380235
1580421252.0223,5.21858548867021,-1.43434805828952,-0.0305180437933359
1580421252.02629,5.46272983901736,-1.55642023346309,0.152590218966907
1580421252.03028,5.40169375143046,-1.55642023346309,0.213626306553806
1580421252.03428,5.40169375143046,-1.55642023346309,0.274662394140478
1580421252.03827,5.34065766384379,-1.49538414587619,0.396734569314049
1580421252.04227,5.40169375143046,-1.37331197070262,0.396734569314049
1580421252.04626,5.46272983901736,-1.31227588311594,0.457770656900948
1580421252.05025,5.58480201419093,-1.0681315327688,0.457770656900948
1580421252.05425,5.76791027695117,-1.0681315327688,0.579842832074519
1580421252.05824,5.76791027695117,-0.946059357595232,0.51880674448762
1580421252.06224,5.95101853971164,-0.885023270008332,0.457770656900948
1580421252.06623,6.07309071488521,-0.823987182421661,0.51880674448762
1580421252.07022,5.88998245212474,-0.70191500724809,0.579842832074519
1580421252.07422,5.76791027695117,-0.640878919661191,0.640878919661191
1580421252.07821,5.52376592660403,-0.579842832074519,0.579842832074519
1580421252.08221,5.40169375143046,-0.51880674448762,0.457770656900948
1580421252.0862,5.15754940108332,-0.579842832074519,0.457770656900948
1580421252.09018,4.91340505073617,-0.579842832074519,0.396734569314049
1580421252.09417,4.7913328755626,-0.51880674448762,0.457770656900948
1580421252.09817,4.73029678797593,-0.51880674448762,0.579842832074519
1580421252.10216,4.60822461280236,-0.579842832074519,0.457770656900948
1580421252.10615,4.36408026245522,-0.70191500724809,0.457770656900948
1580421252.11015,4.11993591210808,-0.885023270008332,0.51880674448762
1580421252.11414,3.87579156176093,-0.885023270008332,0.579842832074519
1580421252.11814,3.81475547417404,-0.885023270008332,0.457770656900948
1580421252.12213,3.69268329900046,-1.0070954451819,0.579842832074519
1580421252.12612,3.75371938658736,-1.12916762035547,0.51880674448762
1580421252.13012,3.81475547417404,-1.12916762035547,0.579842832074519
1580421252.13411,3.63164721141379,-1.0681315327688,0.51880674448762
1580421252.13811,3.50957503624022,-1.0070954451819,0.457770656900948
1580421252.1421,3.50957503624022,-0.946059357595232,0.335698481727377
1580421252.1461,3.44853894865332,-0.885023270008332,0.335698481727377
1580421252.15009,3.44853894865332,-0.885023270008332,0.457770656900948
1580421252.15408,3.44853894865332,-0.885023270008332,0.335698481727377
1580421252.15808,3.44853894865332,-0.885023270008332,0.274662394140478
1580421252.16207,3.44853894865332,-0.885023270008332,0.274662394140478
1580421252.16606,3.44853894865332,-0.70191500724809,0.213626306553806
1580421252.17007,3.50957503624022,-0.640878919661191,0.335698481727377
1580421252.17407,3.75371938658736,-0.640878919661191,0.213626306553806
1580421252.17806,4.05889982452118,-0.579842832074519,0.335698481727377
1580421252.18206,4.11993591210808,-0.457770656900948,0.335698481727377
1580421252.18605,4.24200808728165,-0.457770656900948,0.396734569314049
1580421252.19004,4.36408026245522,-0.335698481727377,0.396734569314049
1580421252.19404,4.60822461280236,-0.213626306553806,0.274662394140478
1580421252.19803,4.73029678797593,-0.091554131380235,0.213626306553806
1580421252.20203,4.7913328755626,0.091554131380235,0.152590218966907
1580421252.20602,5.09651331349664,0.0305180437933359,0.213626306553806
1580421252.21001,5.09651331349664,-0.0305180437933359,0.091554131380235
1580421252.21401,5.15754940108332,-0.0305180437933359,-0.0305180437933359
1580421252.218,5.15754940108332,-0.091554131380235,-0.152590218966907
1580421252.222,5.27962157625689,-0.091554131380235,-0.091554131380235
1580421252.22599,5.40169375143046,-0.0305180437933359,0.091554131380235
1580421252.22998,5.6458381017776,-0.091554131380235,0.152590218966907
1580421252.23398,5.76791027695117,-0.152590218966907,0.213626306553806
1580421252.23797,5.88998245212474,-0.152590218966907,0.274662394140478
1580421252.24197,5.88998245212474,-0.213626306553806,0.213626306553806
1580421252.24596,5.88998245212474,-0.396734569314049,0.152590218966907
1580421252.24994,5.52376592660403,-0.335698481727377,0.274662394140478
1580421252.25393,5.34065766384379,-0.51880674448762,0.091554131380235
1580421252.25793,5.15754940108332,-0.51880674448762,0.152590218966907
1580421252.26192,4.97444113832307,-0.51880674448762,0.091554131380235
1580421252.26591,4.91340505073617,-0.640878919661191,0.091554131380235
1580421252.26991,5.09651331349664,-0.51880674448762,0.213626306553806
1580421252.2739,5.27962157625689,-0.51880674448762,0.213626306553806
1580421252.2779,5.34065766384379,-0.640878919661191,0.274662394140478
1580421252.28189,5.6458381017776,-0.579842832074519,0.335698481727377
1580421252.28588,5.88998245212474,-0.457770656900948,0.457770656900948
1580421252.28988,6.07309071488521,-0.579842832074519,0.457770656900948
1580421252.29387,6.25619897764545,-0.579842832074519,0.579842832074519
1580421252.29787,6.25619897764545,-0.640878919661191,0.70191500724809
1580421252.30186,6.43930724040592,-0.640878919661191,0.762951094834762
1580421252.30585,6.68345159075307,-0.70191500724809,0.762951094834762
1580421252.30985,6.80552376592664,-0.70191500724809,0.70191500724809
1580421252.31384,6.98863202868688,-0.579842832074519,0.762951094834762
1580421252.31784,7.17174029144735,-0.579842832074519,0.640878919661191
1580421252.32183,6.98863202868688,-0.51880674448762,0.579842832074519
1580421252.32582,6.80552376592664,-0.335698481727377,0.70191500724809
1580421252.32983,6.68345159075307,-0.213626306553806,0.579842832074519
1580421252.33383,6.74448767833974,-0.213626306553806,0.640878919661191
1580421252.33782,6.5003433279926,-0.152590218966907,0.640878919661191
1580421252.34182,6.43930724040592,-0.0305180437933359,0.640878919661191
1580421252.34581,6.25619897764545,0.0305180437933359,0.579842832074519
1580421252.3498,6.13412680247188,0.091554131380235,0.51880674448762
1580421252.3538,6.19516289005878,0.0305180437933359,0.51880674448762
1580421252.35779,6.01205462729831,0.213626306553806,0.274662394140478
1580421252.36179,5.88998245212474,0.213626306553806,0.335698481727377
1580421252.36578,5.95101853971164,0.213626306553806,0.396734569314049
1580421252.36977,5.95101853971164,0.213626306553806,0.335698481727377
1580421252.37377,6.07309071488521,0.213626306553806,0.274662394140478
1580421252.37776,6.19516289005878,0.396734569314049,0.396734569314049
1580421252.38175,6.37827115281902,0.457770656900948,0.51880674448762
1580421252.38575,6.43930724040592,0.457770656900948,0.640878919661191
1580421252.38974,6.5003433279926,0.51880674448762,0.70191500724809
1580421252.39374,6.56137941557949,0.640878919661191,0.823987182421661
1580421252.39773,6.5003433279926,0.885023270008332,0.946059357595232
1580421252.40172,6.68345159075307,1.0070954451819,1.0681315327688
1580421252.40572,6.43930724040592,1.19020370794237,0.946059357595232
1580421252.40973,6.19516289005878,1.37331197070262,1.0681315327688
1580421252.41372,6.07309071488521,1.67849240863666,1.0070954451819
1580421252.41772,5.7068741893645,1.8616006713969,1.0681315327688
1580421252.42171,5.46272983901736,2.04470893415737,0.885023270008332
1580421252.4257,5.15754940108332,1.9226367589838,1.0070954451819
1580421252.4297,4.91340505073617,1.8616006713969,1.0681315327688
1580421252.43369,4.66926070038903,1.80056458381023,1.0070954451819
1580421252.43769,4.42511635004189,1.8616006713969,1.0070954451819
1580421252.44168,4.36408026245522,1.67849240863666,1.0070954451819
1580421252.44567,4.24200808728165,1.67849240863666,0.885023270008332
1580421252.44967,4.05889982452118,1.73952849622333,0.762951094834762
1580421252.45366,3.99786373693451,1.80056458381023,0.70191500724809
1580421252.45766,4.05889982452118,1.80056458381023,0.640878919661191
1580421252.46165,3.87579156176093,1.80056458381023,0.51880674448762
1580421252.46564,3.63164721141379,1.80056458381023,0.457770656900948
1580421252.46964,3.50957503624022,1.61745632104976,0.335698481727377
1580421252.47363,3.57061112382689,1.61745632104976,0.335698481727377
1580421252.47763,3.50957503624022,1.49538414587619,0.0305180437933359
1580421252.48162,3.50957503624022,1.37331197070262,0.0305180437933359
1580421252.48561,3.50957503624022,1.31227588311594,0.091554131380235
1580421252.48959,3.69268329900046,1.31227588311594,0.152590218966907
1580421252.49359,3.69268329900046,1.25123979552905,0.0305180437933359
1580421252.49758,3.87579156176093,1.25123979552905,0.152590218966907
1580421252.50157,4.18097199969475,1.31227588311594,0.274662394140478
1580421252.50557,4.48615243762879,1.12916762035547,0.396734569314049
1580421252.50956,4.60822461280236,1.19020370794237,0.335698481727377
1580421252.51356,4.7913328755626,1.25123979552905,0.457770656900948
1580421252.51755,4.73029678797593,1.37331197070262,0.335698481727377
1580421252.52154,4.7913328755626,1.37331197070262,0.396734569314049
1580421252.52554,4.66926070038903,1.25123979552905,0.274662394140478
1580421252.52953,4.54718852521546,1.25123979552905,0.274662394140478
1580421252.53353,4.48615243762879,1.25123979552905,0.274662394140478
1580421252.53752,4.60822461280236,1.0681315327688,0.152590218966907
1580421252.54151,4.36408026245522,0.946059357595232,0.274662394140478
1580421252.54551,4.24200808728165,0.823987182421661,0.274662394140478
1580421252.5495,4.11993591210808,0.762951094834762,0.0305180437933359
1580421252.5535,4.18097199969475,0.640878919661191,0.274662394140478
1580421252.55749,4.05889982452118,0.579842832074519,0.152590218966907
1580421252.56148,4.30304417486832,0.396734569314049,0.274662394140478
1580421252.56548,4.48615243762879,0.335698481727377,0.152590218966907
1580421252.56949,4.60822461280236,0.335698481727377,0.152590218966907
1580421252.57348,4.7913328755626,0.213626306553806,0.213626306553806
1580421252.57748,5.03547722590974,0.091554131380235,0.213626306553806
1580421252.58147,5.15754940108332,0.091554131380235,0.152590218966907
1580421252.58546,5.27962157625689,0.0305180437933359,0.274662394140478
1580421252.58946,5.34065766384379,-0.0305180437933359,0.274662394140478
1580421252.59345,5.34065766384379,-0.091554131380235,0.335698481727377
1580421252.59745,5.40169375143046,-0.152590218966907,0.396734569314049
1580421252.60144,5.40169375143046,-0.274662394140478,0.335698481727377
1580421252.60543,5.21858548867021,-0.335698481727377,0.396734569314049
1580421252.60943,4.97444113832307,-0.396734569314049,0.335698481727377
1580421252.61342,4.91340505073617,-0.396734569314049,0.335698481727377
1580421252.61742,4.97444113832307,-0.51880674448762,0.335698481727377
1580421252.62141,4.91340505073617,-0.51880674448762,0.396734569314049
1580421252.6254,5.03547722590974,-0.396734569314049,0.274662394140478
1580421252.6294,4.97444113832307,-0.396734569314049,0.213626306553806
1580421252.63339,4.97444113832307,-0.396734569314049,-0.0305180437933359
1580421252.63739,4.91340505073617,-0.457770656900948,0.0305180437933359
1580421252.64138,5.03547722590974,-0.457770656900948,-0.091554131380235
1580421252.64537,4.97444113832307,-0.396734569314049,-0.091554131380235
1580421252.64935,5.15754940108332,-0.457770656900948,-0.213626306553806
1580421252.65335,5.15754940108332,-0.335698481727377,-0.152590218966907
1580421252.65734,5.21858548867021,-0.274662394140478,-0.091554131380235
1580421252.66133,5.15754940108332,-0.213626306553806,-0.152590218966907
1580421252.66533,5.15754940108332,-0.152590218966907,0.0305180437933359
1580421252.66932,4.7913328755626,0.0305180437933359,0.0305180437933359
1580421252.67332,4.60822461280236,0.152590218966907,0.0305180437933359
1580421252.67731,4.42511635004189,0.274662394140478,0.0305180437933359
1580421252.6813,4.30304417486832,0.457770656900948,-0.0305180437933359
1580421252.6853,4.18097199969475,0.762951094834762,0.091554131380235
1580421252.68929,3.99786373693451,0.762951094834762,0.091554131380235
1580421252.69329,3.93682764934761,1.12916762035547,0.091554131380235
1580421252.69728,3.69268329900046,1.12916762035547,0.274662394140478
1580421252.70127,3.57061112382689,1.25123979552905,0.274662394140478
1580421252.70527,3.20439459830618,1.49538414587619,0.152590218966907
1580421252.70926,2.7771419851988,1.73952849622333,0.152590218966907
1580421252.71326,2.59403372243833,1.8616006713969,0.152590218966907
1580421252.71725,2.16678110933094,1.98367284657047,0.091554131380235
1580421252.72124,2.04470893415737,2.16678110933094,-0.0305180437933359
1580421252.72524,1.67849240863666,2.34988937209118,-0.091554131380235
1580421252.72925,1.61745632104976,2.34988937209118,-0.213626306553806
1580421252.73324,1.19020370794237,2.53299763485165,-0.213626306553806
1580421252.73724,0.946059357595232,2.65506981002522,-0.396734569314049
1580421252.74123,0.51880674448762,2.7161058976119,-0.457770656900948
1580421252.74522,0.274662394140478,2.7771419851988,-0.51880674448762
1580421252.74922,-0.274662394140478,2.65506981002522,-0.51880674448762
1580421252.75321,-0.579842832074519,2.59403372243833,-0.51880674448762
1580421252.75721,-0.885023270008332,2.41092545967808,-0.640878919661191
1580421252.7612,-1.19020370794237,2.47196154726475,-0.579842832074519
1580421252.76519,-1.31227588311594,2.41092545967808,-0.579842832074519
1580421252.76919,-1.25123979552905,2.34988937209118,-0.51880674448762
1580421252.77318,-1.19020370794237,2.04470893415737,-0.335698481727377
1580421252.77718,-1.0681315327688,2.10574502174404,-0.335698481727377
1580421252.78117,-0.946059357595232,1.8616006713969,-0.396734569314049
1580421252.78516,-0.946059357595232,1.55642023346309,-0.335698481727377
1580421252.78916,-0.762951094834762,1.43434805828952,-0.396734569314049
1580421252.79315,-0.51880674448762,1.19020370794237,-0.335698481727377
1580421252.79714,-0.579842832074519,0.946059357595232,-0.457770656900948
1580421252.80114,-0.335698481727377,0.823987182421661,-0.457770656900948
1580421252.80513,-0.274662394140478,0.640878919661191,-0.51880674448762
1580421252.80911,-0.152590218966907,0.396734569314049,-0.51880674448762
1580421252.81311,0.152590218966907,0.335698481727377,-0.51880674448762
1580421252.8171,0.640878919661191,0.213626306553806,-0.396734569314049
1580421252.82109,1.31227588311594,0.152590218966907,-0.335698481727377
1580421252.82509,1.73952849622333,0.0305180437933359,-0.274662394140478
1580421252.82908,2.22781719691761,-0.213626306553806,0.0305180437933359
1580421252.83308,2.7771419851988,-0.152590218966907,-0.152590218966907
1580421252.83707,3.32646677347975,-0.091554131380235,-0.091554131380235
1580421252.84106,3.81475547417404,0.0305180437933359,-0.091554131380235
1580421252.84506,4.30304417486832,0.091554131380235,-0.152590218966907
1580421252.84905,4.7913328755626,0.152590218966907,-0.152590218966907
1580421252.85305,5.34065766384379,0.213626306553806,-0.152590218966907
1580421252.85704,5.88998245212474,0.152590218966907,-0.0305180437933359
1580421252.86103,6.19516289005878,0.152590218966907,0.152590218966907
1580421252.86503,6.74448767833974,0.152590218966907,0.274662394140478
1580421252.86902,7.23277637903402,-0.091554131380235,0.457770656900948
1580421252.87302,7.59899290455473,-0.091554131380235,0.51880674448762
1580421252.87701,8.20935378042259,-0.091554131380235,0.51880674448762
1580421252.881,8.6366063935302,-0.0305180437933359,0.640878919661191
1580421252.885,9.24696726939806,-0.0305180437933359,0.762951094834762
1580421252.88901,9.97940032043948,0.0305180437933359,0.762951094834762
1580421252.893,10.7118333714809,-0.091554131380235,0.762951094834762
1580421252.89699,11.2001220721752,-0.0305180437933359,0.762951094834762
1580421252.90099,11.4442664225223,-0.0305180437933359,0.70191500724809
1580421252.90498,11.505302510109,0.274662394140478,0.70191500724809
1580421252.90898,11.505302510109,0.51880674448762,0.579842832074519
1580421252.91297,11.5663385976959,0.823987182421661,0.213626306553806
1580421252.91697,11.3221942473488,1.25123979552905,0.0305180437933359
1580421252.92096,11.0780498970016,1.49538414587619,-0.274662394140478
1580421252.92495,10.7728694590676,1.73952849622333,-0.579842832074519
1580421252.92895,10.3456168459602,1.80056458381023,-0.885023270008332
1580421252.93294,9.55214770733187,1.80056458381023,-1.19020370794237
1580421252.93693,8.33142595559616,1.61745632104976,-1.37331197070262
1580421252.94093,6.86655985351331,1.25123979552905,-1.55642023346309
1580421252.94492,5.6458381017776,0.823987182421661,-1.55642023346309
1580421252.94892,4.60822461280236,0.640878919661191,-1.37331197070262
1580421252.95291,4.18097199969475,0.457770656900948,-1.31227588311594
1580421252.9569,3.99786373693451,0.823987182421661,-1.31227588311594
1580421252.9609,4.24200808728165,2.04470893415737,-1.19020370794237
1580421252.96489,5.09651331349664,3.26543068589308,-1.25123979552905
1580421252.96887,6.37827115281902,4.36408026245522,-1.31227588311594
1580421252.97287,8.02624551766235,4.8523689631495,-1.19020370794237
1580421252.97686,10.0404364080262,4.54718852521546,-1.12916762035547
1580421252.98085,12.1766994735638,3.63164721141379,-0.946059357595232
1580421252.98485,13.8857099259938,2.7161058976119,-0.823987182421661
1580421252.98884,14.923323414969,2.10574502174404,-0.823987182421661
1580421252.99284,15.228503852903,1.98367284657047,-0.885023270008332
1580421252.99683,14.8622873273823,2.10574502174404,-1.0070954451819
1580421253.00082,14.068818188754,2.22781719691761,-1.43434805828952
1580421253.00482,12.7870603494316,2.16678110933094,-1.67849240863666
1580421253.00881,11.505302510109,1.9226367589838,-1.8616006713969
1580421253.01281,10.3456168459602,1.37331197070262,-2.10574502174404
1580421253.0168,9.36903944457163,0.70191500724809,-2.28885328450451
1580421253.02079,8.5755703059433,0.152590218966907,-2.28885328450451
1580421253.02479,7.96520943007545,-0.396734569314049,-2.28885328450451
1580421253.02878,7.72106507972831,-0.762951094834762,-2.16678110933094
1580421253.03278,7.84313725490188,-1.19020370794237,-2.04470893415737
1580421253.03677,7.90417334248878,-1.43434805828952,-1.80056458381023
1580421253.04076,8.14831769283592,-1.49538414587619,-1.55642023346309
1580421253.04476,8.5755703059433,-1.43434805828952,-1.43434805828952
1580421253.04877,9.24696726939806,-1.43434805828952,-1.12916762035547
1580421253.05276,10.2845807583733,-1.49538414587619,-0.946059357595232
1580421253.05675,11.3832303349354,-1.61745632104976,-0.823987182421661
1580421253.06075,12.4208438239109,-1.8616006713969,-0.70191500724809
1580421253.06474,13.519493400473,-1.80056458381023,-0.70191500724809
1580421253.06874,14.1908903639276,-1.9226367589838,-0.640878919661191
1580421253.07273,14.6791790646218,-2.10574502174404,-0.70191500724809
1580421253.07673,14.8622873273823,-2.10574502174404,-0.885023270008332
1580421253.08072,14.8622873273823,-2.10574502174404,-1.12916762035547
1580421253.08471,14.6791790646218,-2.22781719691761,-1.19020370794237
1580421253.08871,14.4960708018616,-2.28885328450451,-1.37331197070262
1580421253.0927,14.3129625391011,-2.16678110933094,-1.43434805828952
1580421253.09669,14.0077821011673,-2.10574502174404,-1.67849240863666
1580421253.10069,13.7026016632333,-2.10574502174404,-1.73952849622333
1580421253.10468,13.4584573128861,-2.16678110933094,-1.73952849622333
1580421253.10868,13.0312046997788,-2.10574502174404,-1.9226367589838
1580421253.11267,12.664988174258,-2.04470893415737,-2.10574502174404
1580421253.11666,12.2377355611504,-2.04470893415737,-2.04470893415737
1580421253.12066,11.7494468604561,-1.8616006713969,-2.16678110933094
1580421253.12465,11.6884107728695,-1.80056458381023,-2.22781719691761
1580421253.12863,11.5663385976959,-1.49538414587619,-2.28885328450451
1580421253.13262,11.505302510109,-1.55642023346309,-2.47196154726475
1580421253.13662,11.4442664225223,-1.49538414587619,-2.7771419851988
1580421253.14061,11.3832303349354,-1.43434805828952,-2.83817807278547
1580421253.14461,11.2001220721752,-1.49538414587619,-3.08232242313261
1580421253.1486,11.2001220721752,-1.55642023346309,-3.32646677347975
1580421253.1526,11.0780498970016,-1.43434805828952,-3.57061112382689
1580421253.15659,10.8339055466545,-1.19020370794237,-3.81475547417404
1580421253.16058,10.5287251087204,-1.19020370794237,-4.24200808728165
1580421253.16458,10.1625085831997,-1.0070954451819,-4.48615243762879
1580421253.16857,9.67421988250544,-0.885023270008332,-4.91340505073617
1580421253.17256,9.12489509422448,-0.640878919661191,-5.03547722590974
1580421253.17656,8.51453421835663,-0.335698481727377,-5.21858548867021
1580421253.18055,7.96520943007545,-0.0305180437933359,-5.34065766384379
1580421253.18455,7.41588464179449,0.213626306553806,-5.40169375143046
1580421253.18854,6.68345159075307,0.274662394140478,-5.46272983901736
1580421253.19253,5.88998245212474,0.335698481727377,-5.46272983901736
1580421253.19653,5.15754940108332,0.396734569314049,-5.40169375143046
1580421253.20052,4.42511635004189,0.396734569314049,-5.34065766384379
1580421253.20452,3.63164721141379,0.274662394140478,-5.40169375143046
1580421253.20853,2.96025024795904,0.213626306553806,-5.52376592660403
1580421253.21252,2.34988937209118,0.152590218966907,-5.7068741893645
1580421253.21651,1.73952849622333,0.091554131380235,-5.76791027695117
1580421253.22051,1.43434805828952,-0.152590218966907,-5.95101853971164
1580421253.2245,0.885023270008332,-0.457770656900948,-6.19516289005878
1580421253.2285,0.51880674448762,-0.51880674448762,-6.5003433279926
1580421253.23249,0.152590218966907,-1.0070954451819,-6.74448767833974
1580421253.23648,-0.091554131380235,-1.43434805828952,-7.04966811627378
1580421253.24048,-0.335698481727377,-2.04470893415737,-7.11070420386045
1580421253.24447,-0.579842832074519,-2.53299763485165,-7.29381246662092
1580421253.24847,-0.70191500724809,-3.20439459830618,-7.47692072938116
1580421253.25246,-0.823987182421661,-3.50957503624022,-7.59899290455473
1580421253.25645,-0.823987182421661,-3.81475547417404,-7.84313725490188
1580421253.26045,-0.640878919661191,-4.05889982452118,-7.96520943007545
1580421253.26444,-0.274662394140478,-4.30304417486832,-7.96520943007545
1580421253.26844,-0.0305180437933359,-4.30304417486832,-7.96520943007545
1580421253.27243,0.274662394140478,-4.30304417486832,-7.96520943007545
1580421253.27642,0.762951094834762,-4.48615243762879,-7.96520943007545
1580421253.28042,1.31227588311594,-4.36408026245522,-7.90417334248878
1580421253.28441,1.80056458381023,-4.73029678797593,-7.84313725490188
1580421253.28839,2.34988937209118,-4.97444113832307,-7.96520943007545
1580421253.29238,2.89921416037237,-5.09651331349664,-7.96520943007545
1580421253.29638,3.26543068589308,-5.52376592660403,-8.27038986800949
1580421253.30037,3.69268329900046,-5.95101853971164,-8.45349813076973
1580421253.30437,3.93682764934761,-6.37827115281902,-8.5755703059433
1580421253.30836,4.18097199969475,-6.80552376592664,-8.75867856870377
1580421253.31236,4.42511635004189,-7.41588464179449,-9.00282291905091
1580421253.31635,4.73029678797593,-8.20935378042259,-9.18593118181116
1580421253.32034,5.09651331349664,-9.24696726939806,-9.55214770733187
1580421253.32434,5.58480201419093,-10.1625085831997,-9.85732814526591
1580421253.32833,5.76791027695117,-11.3832303349354,-10.3456168459602
1580421253.33232,6.07309071488521,-12.7870603494316,-10.7728694590676
1580421253.33632,6.13412680247188,-14.2519264515145,-11.3221942473488
1580421253.34031,6.19516289005878,-15.6557564660104,-11.9325551232166
1580421253.34431,6.25619897764545,-17.1816586556802,-12.6039520866711
1580421253.3483,6.43930724040592,-18.7075608453497,-13.1532768749523
1580421253.35229,6.80552376592664,-20.355535210193,-13.7636377508202
1580421253.35629,7.04966811627378,-22.3086900129701,-14.3129625391011
1580421253.36028,7.41588464179449,-24.5059891660944,-14.8012512397954
1580421253.36428,7.53795681696806,-26.9474326695658,-15.4116121156633
1580421253.36825,7.66002899214163,-29.4499122606239,-16.0219729915311
1580421253.37225,7.53795681696806,-32.074464026856,-16.632333867399
1580421253.37624,7.53795681696806,-34.6990157930877,-17.2426947432668
1580421253.38024,7.72106507972831,-37.201495384146,-18.0361638818952
1580421253.38423,7.72106507972831,-39.8260471503777,-18.7685969329366
1580421253.38822,8.20935378042259,-42.8168154421303,-19.501029983978
1580421253.39222,8.45349813076973,-45.8075837338827,-20.2334630350194
1580421253.39621,8.81971465629044,-48.8593881132219,-21.0269321736475
1580421253.40021,9.12489509422448,-51.9111924925612,-21.5762569619287
1580421253.4042,9.36903944457163,-55.146105134661,-22.064545662623
1580421253.4082,9.73525597009234,-58.2589456015869,-22.5528343633173
1580421253.41219,9.91836423285258,-61.4938582436866,-23.0411230640116
1580421253.41618,10.2845807583733,-64.7898069733731,-23.468375677119
1580421253.42018,10.5287251087204,-68.0247196154726,-23.773556115053
1580421253.42417,10.8949416342411,-71.4427405203326,-24.0787365529868
1580421253.42816,11.3832303349354,-74.5555809872587,-24.322880903334
1580421253.43216,11.9325551232166,-77.6684214541847,-24.5059891660944
1580421253.43615,12.664988174258,-80.7812619211109,-24.6890974288547
1580421253.44015,13.6415655756466,-83.7109941252766,-24.9942778667887
1580421253.44414,14.9843595025559,-86.7627985046158,-25.0553139543754
1580421253.44815,16.3881895170518,-89.8756389715418,-25.2384222171358
1580421253.45214,17.792019531548,-93.4157320515753,-25.2994583047225
1580421253.45614,19.1348134584573,-97.2610055695432,-25.0553139543754
1580421253.46013,20.1724269474325,-101.289387350271,-24.6890974288547
1580421253.46413,21.1490043488211,-105.745021744106,-24.2008087281604
1580421253.46812,21.5762569619287,-110.688944838636,-23.468375677119
1580421253.47211,20.9658960860609,-115.632867933165,-22.8580148012511
1580421253.47611,19.3179217212175,-120.698863202869,-21.9424734874494
1580421253.4801,17.0595864805066,-125.825894560159,-20.904859998474
1580421253.4841,15.1064316777295,-131.074998092622,-19.3789578088044
1580421253.48809,13.3363851377126,-135.10337987335,-17.5478751812009
1580421253.49208,12.1156633859769,-137.972075989929,-15.1064316777295
1580421253.49608,11.505302510109,-139.864194705119,-12.0546272983902
1580421253.50007,11.505302510109,-141.390096894789,-8.27038986800949
1580421253.50407,12.359807736324,-143.892576485847,-3.87579156176093
1580421253.50806,12.664988174258,-148.714427405203,1.49538414587619
1580421253.51205,11.810482948043,-154.757000076295,7.29381246662092
1580421253.51605,9.00282291905091,-157.503624017701,12.7870603494316
1580421253.52004,4.30304417486832,-153.170061799039,17.792019531548
1580421253.52404,-1.0681315327688,-141.390096894789,22.0035095750361
1580421253.52801,-6.31723506523235,-124.605172808423,24.7501335164416
1580421253.53201,-10.7118333714809,-105.073624780652,26.3981078812847
1580421253.536,-14.5571068894483,-86.6407263294423,27.0084687571525
1580421253.54,-18.341344319829,-72.4193179217211,26.7032883192187
1580421253.54399,-21.759365224689,-63.8132295719845,25.482566567483
1580421253.54798,-24.3839169909209,-61.1886778057526,23.1021591515982
1580421253.55198,-26.8863965819789,-63.7521934843976,19.3789578088044
1580421253.55597,-29.2668039978637,-68.5130083161669,14.0077821011673
1580421253.55997,-31.4641031509882,-73.1517509727626,7.29381246662092
1580421253.56396,-33.0510414282446,-76.5697718776225,-0.640878919661191
1580421253.56796,-34.4548714427406,-78.3398184176394,-9.12489509422448
1580421253.57195,-36.4080262455177,-78.3398184176394,-17.2426947432668
1580421253.57594,-38.4832532234684,-77.1801327534904,-24.0787365529868
1580421253.57994,-40.0091554131382,-75.593194476234,-28.9616235599296
1580421253.58393,-40.5584802014191,-73.884184023804,-32.074464026856
1580421253.58792,-40.4364080262455,-72.175173571374,-33.3562218661784
1580421253.59192,-40.314335851072,-70.0389105058366,-32.928969253071
1580421253.59591,-40.2532997634853,-66.6819256885633,-31.2199588006408
1580421253.59991,-40.4364080262455,-62.1042191195545,-28.7785152971694
1580421253.6039,-40.4364080262455,-57.2823682001983,-25.7877470054168
1580421253.60791,-39.765011062791,-52.582589456016,-22.2476539253832
1580421253.6119,-37.8118562600139,-48.4931715877012,-17.792019531548
1580421253.6159,-34.332799267567,-44.3427176317998,-12.7870603494316
1580421253.61989,-29.6330205233844,-40.314335851072,-8.88075074387734
1580421253.62389,-24.8722056916151,-37.6287479972534,-6.98863202868688
1580421253.62788,-20.904859998474,-35.9197375448234,-6.31723506523235
1580421253.63187,-17.8530556191347,-34.5159075303275,-5.58480201419093
1580421253.63587,-15.9609369039445,-33.1731136034182,-4.30304417486832
1580421253.63986,-15.4726482032502,-32.928969253071,-2.89921416037237
1580421253.64386,-17.6699473563745,-32.623788815137,-0.946059357595232
1580421253.64785,-22.8580148012511,-29.6940566109711,0.762951094834762
1580421253.65184,-29.3278400854504,-24.322880903334,2.10574502174404
1580421253.65584,-35.0041962310218,-19.9893186846723,3.02128633554594
1580421253.65983,-38.7273975738156,-18.5854886701761,4.11993591210808
1580421253.66383,-40.8636606393532,-19.0127412832837,5.15754940108332
1580421253.66782,-42.4505989166096,-19.4399938963911,6.25619897764545
1580421253.67181,-44.5258258945603,-18.7075608453497,7.17174029144735
1580421253.67581,-47.7607385366598,-16.6933699549859,7.59899290455473
1580421253.6798,-52.8267338063631,-14.5571068894483,7.96520943007545
1580421253.6838,-59.7238117036698,-13.0312046997788,7.7821011673152
1580421253.68777,-67.4753948271916,-12.1766994735638,7.53795681696806
1580421253.69177,-75.1049057755397,-11.9325551232166,7.17174029144735
1580421253.69576,-82.0019836728466,-12.1766994735638,6.80552376592664
1580421253.69976,-87.7393759060044,-12.1156633859769,6.43930724040592
1580421253.70375,-91.9508659494925,-11.6884107728695,6.68345159075307
1580421253.70774,-94.6364538033113,-10.955977721828,7.23277637903402
1580421253.71174,-95.7351033798734,-9.91836423285258,8.27038986800949
1580421253.71573,-94.9416342412453,-8.45349813076973,9.55214770733187
1580421253.71973,-91.7067215991453,-6.86655985351331,10.955977721828
1580421253.72372,-86.152437628748,-4.91340505073617,12.359807736324
1580421253.72771,-78.2177462424659,-3.02128633554594,13.7636377508202
1580421253.73171,-68.757152666514,-1.61745632104976,15.1064316777295
1580421253.7357,-58.3810177767605,-0.51880674448762,16.5102616922254
1580421253.7397,-48.5542076752881,0.152590218966907,17.792019531548
1580421253.74369,-40.2532997634853,0.762951094834762,18.8906691081102
1580421253.74768,-33.6614023041125,0.946059357595232,19.6231021591516
1580421253.75168,-28.5343709468223,0.70191500724809,20.2944991226061
1580421253.75567,-24.1397726405737,0.091554131380235,20.6607156481268
1580421253.75967,-19.6231021591516,-0.396734569314049,21.1490043488211
1580421253.76366,-14.1908903639276,-1.0070954451819,21.759365224689
1580421253.76767,-7.90417334248878,-1.61745632104976,22.6749065384909
1580421253.77166,-0.885023270008332,-1.98367284657047,23.4073395895323
1580421253.77566,6.74448767833974,-2.10574502174404,24.2618448157473
1580421253.77965,14.6791790646218,-1.0681315327688,25.2994583047225
1580421253.78364,22.8580148012511,0.885023270008332,26.0318913557639
1580421253.78764,30.7316700999465,3.20439459830618,26.8863965819789
1580421253.79163,38.3001449607079,5.52376592660403,27.4967574578468
1580421253.79563,45.0141145952543,7.41588464179449,27.9850461585411
1580421253.79962,50.8125429159991,9.24696726939806,28.1071183337147
1580421253.80361,55.0850690470738,10.955977721828,27.9850461585411
1580421253.80761,58.3810177767605,12.7870603494316,28.046082246128
1580421253.8116,61.1886778057524,14.4960708018616,28.1071183337147
1580421253.8156,63.9963378347452,15.8999008163576,28.4733348592354
1580421253.81959,66.1936369878695,16.5712977798123,28.9616235599296
1580421253.82359,66.8039978637371,16.7544060425726,29.6330205233844
1580421253.82758,65.5832761120014,16.632333867399,30.4264896620125
1580421253.83157,63.14183260853,16.2050812542916,31.4030670634011
1580421253.83557,60.8834973678186,15.4116121156633,32.4406805523765
1580421253.83956,59.7848477912562,14.1908903639276,33.7834744792858
1580421253.84355,59.6627756160829,12.7260242618447,35.4924849317158
1580421253.84753,59.9679560540167,10.7118333714809,37.3235675593194
1580421253.85153,59.7848477912562,7.72106507972831,39.1546501869229
1580421253.85552,58.6861982146943,3.93682764934761,40.9857328145265
1580421253.85952,56.0616464484624,0.0305180437933359,42.3285267414358
1580421253.86351,51.911192492561,-3.14335851071951,43.3051041428243
1580421253.8675,47.089341573205,-5.7068741893645,43.9765011062789
1580421253.8715,42.4505989166094,-8.20935378042259,43.8544289311053
1580421253.87549,39.2767223620965,-10.3456168459602,43.3051041428243
1580421253.87949,37.4456397344929,-11.0780498970016,42.1454184786753
1580421253.88348,35.4314488441289,-8.75867856870377,41.1078049897001
1580421253.88747,31.6472114137482,-3.38750286106665,39.5819028000303
1580421253.89147,26.1539635309375,3.38750286106665,38.1170366979475
1580421253.89546,19.9282825970854,10.0404364080262,36.4690623331044
1580421253.89946,14.4960708018616,15.4116121156633,34.7600518806744
1580421253.90345,10.4066529335469,19.3179217212175,33.1120775158311
1580421253.90744,6.56137941557949,21.5152208743418,31.5861753261615
1580421253.91144,1.73952849622333,22.4917982757304,30.3044174868389
1580421253.91543,-4.54718852521546,22.8580148012511,28.900587472343
1580421253.91943,-11.9935912108033,23.1021591515982,27.4967574578468
1580421253.92342,-20.050354772259,22.9800869764247,26.0318913557639
1580421253.92743,-27.4967574578468,22.6749065384909,24.628061341268
1580421253.93142,-33.9665827420463,21.6372930495154,23.0411230640116
1580421253.93542,-38.7884336614025,20.5386434729533,21.5762569619287
1580421253.93941,-42.3895628290227,20.1113908598459,19.9893186846723
1580421253.9434,-45.3192950331884,19.8062104219118,18.4023804074159
1580421253.9474,-48.0048828870069,19.4399938963911,17.3647669184404
1580421253.95139,-50.2021820401312,19.0127412832837,16.2050812542916
1580421253.95539,-51.8501564049745,18.341344319829,15.4726482032502
1580421253.95938,-52.8267338063631,17.9140917067216,15.0453955901426
1580421253.96337,-52.7656977187762,17.2426947432668,14.6791790646218
1580421253.96737,-52.2163729304953,16.8154421301595,14.1298542763409
1580421253.97136,-50.873579003586,16.2050812542916,13.7026016632333
1580421253.97536,-48.9814602883955,15.4726482032502,13.4584573128861
1580421253.97935,-45.8075837338827,14.6791790646218,13.0922407873654
1580421253.98335,-41.4129854276341,14.068818188754,12.7260242618447
1580421253.98734,-36.2249179827575,13.519493400473,12.2987716487373
1580421253.99133,-31.0368505378804,13.7636377508202,11.5663385976959
1580421253.99533,-25.9708552681773,14.8012512397954,10.5287251087204
1580421253.99932,-21.4541847867551,16.9985503929197,9.61318379491877
1580421254.00331,-16.8154421301595,20.1724269474325,8.75867856870377
1580421254.00729,-11.3221942473488,24.4449530785075,8.20935378042259
1580421254.01129,-4.7913328755626,28.5954070344089,7.59899290455473
1580421254.01528,2.83817807278547,32.1355001144425,7.17174029144735
1580421254.01927,10.4676890211338,35.1873044937818,6.74448767833974
1580421254.02327,17.4258030060273,37.384603646906,6.43930724040592
1580421254.02726,22.9800869764247,39.2156862745096,6.37827115281902
1580421254.03126,26.337071793698,40.2532997634851,6.74448767833974
1580421254.03525,26.7032883192187,40.3753719386586,7.84313725490188
1580421254.03924,23.773556115053,39.093614099336,9.4911116197452
1580421254.04324,17.1816586556802,36.7132066834515,11.505302510109
1580421254.04723,7.72106507972831,33.2951857785915,13.7026016632333
1580421254.05123,-3.50957503624022,29.0836957351032,15.5336842908368
1580421254.05522,-14.923323414969,24.3839169909209,16.8154421301595
1580421254.05921,-24.8722056916151,20.050354772259,17.5478751812009
1580421254.06321,-32.2575722896163,16.3271534294652,17.6089112687876
1580421254.0672,-36.896314946212,13.2753490501259,17.2426947432668
1580421254.0712,-39.8260471503777,10.8949416342411,16.4492256046387
1580421254.07519,-42.0843823910889,9.06385900663759,15.6557564660104
1580421254.07919,-44.3427176317998,8.02624551766235,14.7402151522087
1580421254.08318,-46.4179446097505,7.90417334248878,13.7636377508202
1580421254.08719,-47.5776302738996,9.36903944457163,12.9701686121919
1580421254.09118,-46.9062333104448,11.7494468604561,12.2377355611504
1580421254.09518,-44.4647898069734,14.6791790646218,11.7494468604561
1580421254.09917,-40.314335851072,17.3647669184404,11.4442664225223
1580421254.10316,-35.187304493782,19.8062104219118,11.505302510109
1580421254.10716,-29.3278400854504,21.8814373998625,11.6273746852826
1580421254.11115,-23.1021591515982,24.0787365529868,11.810482948043
1580421254.11515,-16.5102616922254,26.7032883192187,11.9935912108033
1580421254.11914,-9.30800335698473,29.6330205233844,12.2377355611504
1580421254.12313,-1.9226367589838,32.6237888151368,12.6039520866711
1580421254.12713,5.46272983901736,35.0652323186082,12.9091325246052
1580421254.13112,12.0546272983902,36.7132066834515,13.4584573128861
1580421254.13512,17.7309834439611,37.9339284351872,13.7026016632333
1580421254.13911,22.7359426260775,38.7273975738153,13.8246738384069
1580421254.1431,26.6422522316318,39.6429388876172,13.8857099259938
1580421254.1471,29.1447318226901,39.5819028000303,14.1908903639276
1580421254.15109,30.1823453116654,39.093614099336,14.923323414969
1580421254.15509,29.3888761730373,38.239108873121,15.9609369039445
1580421254.15908,27.1305409323261,37.4456397344929,17.486839093614
1580421254.16307,23.773556115053,36.4080262455175,18.8296330205233
1580421254.16705,20.355535210193,35.5535210193025,20.1724269474325
1580421254.17105,17.3647669184404,34.6990157930875,21.210040436408
1580421254.17504,14.923323414969,33.9055466544594,21.9424734874494
1580421254.17903,13.2753490501259,33.4782940413518,22.1255817502097
1580421254.18303,12.359807736324,33.0510414282444,22.0035095750361
1580421254.18702,12.2377355611504,32.9289692530708,21.0879682612344
1580421254.19102,12.9701686121919,33.1120775158311,20.1113908598459
1580421254.19501,14.5571068894483,33.7224383916989,18.646524757763
1580421254.199,16.5102616922254,34.3938353551537,17.1816586556802
1580421254.203,17.792019531548,35.1873044937818,15.5947203784237
1580421254.20699,18.2803082322423,36.1638818951703,13.8246738384069
1580421254.21099,18.0361638818952,36.8352788586251,12.2987716487373
1580421254.21498,17.1206225680933,37.4456397344929,10.8949416342411
1580421254.21897,16.083009079118,37.5066758220796,9.91836423285258
1580421254.22297,15.7167925535973,36.9573510337987,9.36903944457163
1580421254.22696,15.7167925535973,36.1028458075837,9.30800335698473
1580421254.23096,15.8999008163576,35.3704127565422,9.4300755321583
1580421254.23495,16.0219729915311,35.0652323186082,9.79629205767901
1580421254.23895,15.8388647287709,34.9431601434346,10.4066529335469
1580421254.24294,15.8999008163576,35.3704127565422,10.8949416342411
1580421254.24692,16.6933699549859,36.2859540703439,11.7494468604561
1580421254.25091,18.0361638818952,37.3235675593194,12.5429159990845
1580421254.2549,19.501029983978,37.9949645227739,13.519493400473
1580421254.2589,20.6607156481268,38.239108873121,14.3129625391011
1580421254.26289,20.904859998474,38.3611810482946,14.5571068894483
1580421254.26689,19.9893186846723,38.6053253986418,14.4350347142747
1580421254.27088,18.4023804074159,38.6053253986418,13.9467460135804
1580421254.27487,16.4492256046387,38.4222171358815,13.0312046997788
1580421254.27887,14.4960708018616,37.9339284351872,12.0546272983902
1580421254.28286,12.664988174258,36.8352788586251,11.0780498970016
1580421254.28686,11.0780498970016,35.8587014572365,9.97940032043948
1580421254.29085,9.85732814526591,35.0652323186082,9.06385900663759
1580421254.29484,9.18593118181116,34.8210879682611,7.66002899214163
1580421254.29884,8.75867856870377,34.8210879682611,6.13412680247188
1580421254.30283,8.69764248111687,34.882124055848,4.60822461280236
1580421254.30683,9.00282291905091,34.8210879682611,3.20439459830618
1580421254.31082,9.79629205767901,34.5769436179139,1.8616006713969
1580421254.31482,11.0780498970016,34.0886549172196,1.0070954451819
1580421254.31881,12.1766994735638,33.4172579537651,0.335698481727377
1580421254.3228,12.6039520866711,32.4406805523765,0.091554131380235
1580421254.32681,11.3832303349354,31.1589227130539,-0.51880674448762
1580421254.33081,8.88075074387734,29.9992370489051,-0.946059357595232
1580421254.3348,5.58480201419093,28.4733348592354,-1.80056458381023
1580421254.33879,2.04470893415737,26.3981078812847,-2.65506981002522
1580421254.34279,-1.25123979552905,24.2618448157473,-3.20439459830618
1580421254.34678,-4.30304417486832,22.1255817502097,-3.63164721141379
1580421254.35078,-7.35484855420759,19.9282825970854,-3.75371938658736
1580421254.35477,-10.8339055466545,17.792019531548,-3.63164721141379
1580421254.35876,-14.4960708018616,16.0219729915311,-3.38750286106665
1580421254.36276,-18.2803082322423,14.7402151522087,-3.08232242313261
1580421254.36675,-21.6983291371023,13.6415655756466,-2.7771419851988
1580421254.37075,-24.6890974288547,12.2987716487373,-2.10574502174404
1580421254.37474,-27.6798657206073,10.955977721828,-1.43434805828952
1580421254.37873,-30.7927061875332,10.1625085831997,-0.762951094834762
1580421254.38273,-33.7224383916991,9.85732814526591,-0.335698481727377
1580421254.38672,-35.7366292820632,9.79629205767901,0.152590218966907
1580421254.39072,-36.041809719997,9.97940032043948,0.70191500724809
1580421254.39471,-34.6990157930877,10.4676890211338,1.25123979552905
1580421254.3987,-31.8913557640956,11.2001220721752,2.10574502174404
1580421254.4027,-28.4122987716487,12.2377355611504,3.20439459830618
1580421254.40668,-24.8111696040282,13.4584573128861,4.48615243762879
1580421254.41067,-21.1490043488211,15.0453955901426,5.46272983901736
1580421254.41466,-17.1816586556802,17.4258030060273,6.62241550316617
1580421254.41866,-12.5429159990845,20.1724269474325,7.66002899214163
1580421254.42265,-7.47692072938116,23.1631952391851,8.51453421835663
1580421254.42665,-2.04470893415737,26.2149996185244,9.55214770733187
1580421254.43064,3.75371938658736,29.1447318226901,10.4676890211338
1580421254.43463,9.67421988250544,31.7082475013351,11.3221942473488
1580421254.43863,15.228503852903,34.4548714427403,11.810482948043
1580421254.44262,20.2944991226061,36.2859540703439,12.4208438239109
1580421254.44662,25.1163500419623,37.9949645227739,12.9701686121919
1580421254.45061,30.1823453116654,39.5208667124436,13.7636377508202
1580421254.4546,35.1262684061951,40.9857328145265,14.5571068894483
1580421254.4586,39.3377584496832,42.3285267414358,14.9843595025559
1580421254.46259,42.5726710917829,44.7699702449072,15.2895399404897
1580421254.46659,44.220645456626,47.3334859235522,15.228503852903
1580421254.47058,44.0985732814524,48.7983520256348,14.6181429770352
1580421254.47458,42.3895628290225,48.6762798504615,13.3363851377126
1580421254.47857,40.3143358510717,47.2724498359653,11.5663385976959
1580421254.48256,38.7884336614022,44.8920424200808,9.4911116197452
1580421254.48657,38.0560006103608,42.3895628290225,6.98863202868688
1580421254.49057,39.0325780117494,40.5584802014189,4.73029678797593
1580421254.49456,41.5960936903944,40.3143358510717,3.14335851071951
1580421254.49855,45.1972228580146,41.1688410772867,1.98367284657047
1580421254.50255,48.9204242008086,43.1219958800639,1.55642023346309
1580421254.50654,51.6060120546272,44.8920424200808,1.49538414587619
1580421254.51054,52.1553368429081,46.2348363469901,1.8616006713969
1580421254.51453,50.9346150911724,46.8451972228579,2.22781719691761
1580421254.51852,48.1269550621805,46.5400167849239,2.04470893415737
1580421254.52252,44.7699702449072,45.4413672083617,1.8616006713969
1580421254.52651,41.5960936903944,44.5868619821467,1.49538414587619
1580421254.53051,39.1546501869229,43.8544289311053,1.37331197070262
1580421254.5345,38.1170366979475,43.0609597924772,1.55642023346309
1580421254.53849,38.0560006103608,42.6947432669565,2.16678110933094
1580421254.54249,38.4222171358815,42.1454184786753,3.14335851071951
1580421254.54648,38.239108873121,41.7181658655679,4.48615243762879
1580421254.55048,36.8352788586251,41.1688410772867,5.88998245212474
1580421254.55447,34.2717631799801,40.7415884641794,7.23277637903402
1580421254.55846,30.6706340123596,41.0467689021132,7.90417334248878
1580421254.56246,26.6422522316318,41.4129854276339,8.08728160524902
1580421254.56644,22.6749065384909,41.3519493400472,8.27038986800949
1580421254.57043,19.1348134584573,40.9857328145265,7.96520943007545
1580421254.57442,16.8764782177461,40.6805523765925,7.29381246662092
1580421254.57842,15.777828641184,40.4974441138322,6.37827115281902
1580421254.58241,15.8388647287709,40.4974441138322,5.40169375143046
1580421254.58641,16.5712977798123,40.3753719386586,4.36408026245522
1580421254.5904,16.937514305333,40.3143358510717,3.50957503624022
1580421254.59439,16.3881895170518,39.8260471503775,2.65506981002522
1580421254.59839,15.3505760280766,39.2767223620965,1.98367284657047
1580421254.60238,14.1908903639276,38.5442893110551,1.37331197070262
1580421254.60638,12.7870603494316,37.8118562600137,1.19020370794237
1580421254.61037,11.1390859845883,37.6287479972532,1.0070954451819
1580421254.61436,9.91836423285258,37.9339284351872,1.12916762035547
1580421254.61836,9.24696726939806,38.4222171358815,1.37331197070262
1580421254.62235,9.12489509422448,39.1546501869229,1.67849240863666
1580421254.62635,9.30800335698473,40.1922636758982,1.80056458381023
1580421254.63034,10.2845807583733,41.1688410772867,2.10574502174404
1580421254.63433,11.7494468604561,42.0843823910886,2.65506981002522
1580421254.63833,13.519493400473,43.0609597924772,3.20439459830618
1580421254.64232,15.4726482032502,44.0375371938658,3.63164721141379
1580421254.64633,17.0595864805066,45.0141145952543,4.36408026245522
1580421254.65032,18.2803082322423,45.8075837338824,5.03547722590974
1580421254.65432,19.0127412832837,45.9906919966429,5.58480201419093
1580421254.65831,19.2568856336309,45.5634393835353,6.01205462729831
1580421254.66231,19.6231021591516,44.8920424200808,6.37827115281902
1580421254.6663,20.4165712977797,44.4647898069732,6.43930724040592
1580421254.6703,22.0035095750361,44.1596093690393,6.43930724040592
1580421254.67429,24.322880903334,43.7933928435186,6.07309071488521
1580421254.67828,27.191577019913,43.5492484931715,5.6458381017776
1580421254.68228,30.4264896620125,43.1219958800639,5.03547722590974
1580421254.68627,33.5393301289387,42.4505989166094,4.42511635004189
1580421254.69026,36.4080262455175,41.657129777981,3.69268329900046
1580421254.69426,38.6053253986418,40.9857328145265,2.83817807278547
1580421254.69825,40.0091554131379,40.1312275883115,1.98367284657047
1580421254.70225,40.7415884641794,39.1546501869229,1.0681315327688
1580421254.70624,41.2298771648736,38.1170366979475,0.579842832074519
1580421254.71023,41.0467689021132,36.7742427710382,-0.091554131380235
1580421254.71423,40.0701915007246,35.0041962310215,-0.51880674448762
1580421254.71822,38.1780727855344,33.0510414282444,-0.885023270008332
1580421254.72222,35.4314488441289,31.0978866254673,-1.0681315327688
1580421254.7262,32.1965362020294,29.1447318226901,-1.31227588311594
1580421254.73019,28.7174792095825,27.2526131074997,-1.25123979552905
1580421254.73418,25.0553139543754,25.5436026550697,-1.37331197070262
1580421254.73818,21.5762569619287,24.0787365529868,-1.37331197070262
1580421254.74217,18.5244525825894,23.1021591515982,-1.31227588311594
1580421254.74617,16.083009079118,22.4917982757304,-1.31227588311594
1580421254.75016,14.4960708018616,22.1866178377966,-1.31227588311594
1580421254.75415,13.9467460135804,22.064545662623,-1.25123979552905
1580421254.75815,14.0077821011673,21.8814373998625,-1.12916762035547
1580421254.76214,14.4960708018616,21.8204013122759,-1.12916762035547
1580421254.76614,15.2895399404897,21.4541847867551,-0.885023270008332
1580421254.77013,15.9609369039445,21.0879682612344,-0.762951094834762
1580421254.77412,16.6933699549859,20.4776073853666,-0.762951094834762
1580421254.77812,16.8764782177461,19.8062104219118,-0.885023270008332
1580421254.78211,16.9985503929197,19.2568856336309,-1.19020370794237
1580421254.78611,16.937514305333,18.7075608453497,-1.67849240863666
1580421254.7901,16.8154421301595,18.2803082322423,-2.47196154726475
1580421254.79409,16.8154421301595,17.8530556191347,-3.32646677347975
1580421254.79809,16.937514305333,17.6699473563745,-4.11993591210808
1580421254.80208,17.0595864805066,17.1816586556802,-4.8523689631495
1580421254.80609,17.5478751812009,16.5102616922254,-5.52376592660403
1580421254.81008,18.5244525825894,15.5947203784237,-5.7068741893645
1580421254.81408,19.5620660715647,14.373998626688,-5.95101853971164
1580421254.81807,20.6607156481268,13.2753490501259,-6.07309071488521
1580421254.82207,21.4541847867551,12.2377355611504,-5.95101853971164
1580421254.82606,21.5762569619287,11.4442664225223,-5.76791027695117
1580421254.83005,21.210040436408,10.8339055466545,-5.40169375143046
1580421254.83405,20.5386434729533,9.85732814526591,-4.8523689631495
1580421254.83804,19.5620660715647,8.69764248111687,-4.60822461280236
1580421254.84204,18.4023804074159,7.66002899214163,-4.48615243762879
1580421254.84603,17.0595864805066,7.04966811627378,-4.48615243762879
1580421254.85002,15.5947203784237,6.98863202868688,-4.54718852521546
1580421254.85402,14.3129625391011,7.11070420386045,-4.73029678797593
1580421254.85801,13.1532768749523,7.11070420386045,-4.7913328755626
1580421254.86201,11.7494468604561,6.98863202868688,-4.8523689631495
1580421254.866,10.0404364080262,7.23277637903402,-4.66926070038903
1580421254.86999,7.96520943007545,7.66002899214163,-4.48615243762879
1580421254.87399,6.01205462729831,7.90417334248878,-4.48615243762879
1580421254.87798,3.75371938658736,8.02624551766235,-4.11993591210808
1580421254.88198,1.0070954451819,8.20935378042259,-3.93682764934761
1580421254.88599,-2.53299763485165,8.27038986800949,-3.75371938658736
1580421254.88998,-6.25619897764545,8.33142595559616,-3.38750286106665
1580421254.89397,-9.85732814526591,8.08728160524902,-3.14335851071951
1580421254.89797,-12.7260242618447,7.66002899214163,-2.65506981002522
1580421254.90196,-14.8012512397954,6.43930724040592,-2.22781719691761
1580421254.90596,-16.5102616922254,4.73029678797593,-1.80056458381023
1580421254.90995,-17.9751277943083,3.08232242313261,-1.80056458381023
1580421254.91394,-19.5620660715647,1.67849240863666,-1.8616006713969
1580421254.91794,-21.210040436408,0.885023270008332,-2.16678110933094
1580421254.92193,-22.2476539253832,0.152590218966907,-2.53299763485165
1580421254.92593,-22.7969787136644,-0.396734569314049,-3.20439459830618
1580421254.92992,-23.0411230640116,-1.49538414587619,-3.93682764934761
1580421254.93391,-22.9800869764247,-2.89921416037237,-4.66926070038903
1580421254.93791,-22.7359426260775,-5.09651331349664,-5.09651331349664
1580421254.9419,-22.919050888838,-8.02624551766235,-5.58480201419093
1580421254.9459,-23.5904478522925,-11.2611581597619,-5.88998245212474
1580421254.94989,-24.8111696040282,-14.4350347142747,-6.37827115281902
1580421254.95388,-26.2149996185244,-17.486839093614,-7.11070420386045
1580421254.95788,-27.5577935454337,-20.1724269474325,-8.02624551766235
1580421254.96187,-28.7785152971694,-22.3086900129701,-9.30800335698473
1580421254.96585,-29.8161287861446,-23.8345922026397,-10.650797283894
1580421254.96984,-30.5485618371861,-25.2994583047225,-12.1156633859769
1580421254.97384,-31.0368505378804,-27.4357213702601,-13.5805294880597
1580421254.97783,-31.2809948882277,-29.755092698558,-14.6181429770352
1580421254.98183,-31.5251392385749,-32.3186083772032,-15.2895399404897
1580421254.98582,-31.9523918516825,-34.637979705501,-15.8388647287709
1580421254.98981,-32.1355001144427,-36.7132066834517,-16.083009079118
1580421254.99381,-31.769283588922,-37.9949645227741,-16.3271534294652
1580421254.9978,-30.7316700999465,-38.8494697489891,-16.3881895170518
1580421255.0018,-28.6564431219958,-41.0467689021134,-16.2661173418783
1580421255.00579,-26.0929274433508,-44.8310063324941,-15.8999008163576
1580421255.00978,-22.8580148012511,-49.7138933394369,-15.777828641184
1580421255.01378,-19.2568856336309,-54.9019607843138,-15.8388647287709
1580421255.01777,-14.4960708018616,-60.0289921416038,-16.2050812542916
1580421255.02177,-8.39246204318306,-65.7663843747616,-16.9985503929197
1580421255.02576,-1.49538414587619,-71.3817044327459,-18.2192721446554
1580421255.02975,5.88998245212474,-76.1425192645152,-19.9282825970854
1580421255.03375,12.9091325246052,-79.865720607309,-21.9424734874494
1580421255.03774,19.6841382467383,-82.3071641107804,-24.5059891660944
1580421255.04174,26.5201800564582,-82.734416723888,-27.4357213702601
1580421255.04574,34.1496910048065,-81.2695506218051,-31.0368505378804
1580421255.04974,43.1830319676508,-78.2177462424659,-34.637979705501
1580421255.05373,53.3760585946438,-74.5555809872587,-38.1780727855346
1580421255.05773,63.5080491340509,-71.3817044327459,-41.3519493400474
1580421255.06172,72.0531013962009,-69.1233691920347,-44.1596093690396
1580421255.06571,78.4618905928132,-67.4753948271916,-46.4789806973374
1580421255.06971,83.6499580376899,-66.6819256885633,-48.8593881132219
1580421255.0737,88.4718089570461,-66.8039978637369,-50.8125429159991
1580421255.0777,93.2936598764022,-66.9871061264973,-52.4605172808424
1580421255.08169,97.566186007477,-67.5364309147783,-53.3150225070574
1580421255.08569,100.129701686122,-68.8181887541009,-53.5591668574045
1580421255.08968,100.862134737164,-70.2830548561838,-53.0708781567103
1580421255.09367,99.6414129854279,-72.0531013962004,-51.8501564049745
1580421255.09767,96.6506446936751,-73.7010757610437,-50.4463263904784
1580421255.10166,92.7443350881208,-75.1659418631266,-48.310063324941
1580421255.10565,89.4483863584346,-76.3256275272754,-45.9906919966431
1580421255.10965,87.1290150301365,-77.4242771038375,-43.5492484931717
1580421255.11364,85.7862211032275,-79.1332875562675,-40.9857328145267
1580421255.11764,84.6875715266651,-81.3916227969787,-38.910505836576
1580421255.12163,83.1006332494089,-83.9551384756237,-37.0183871213856
1580421255.12561,80.5371175707637,-86.5796902418554,-34.8821240558482
1580421255.1296,76.9970244907304,-89.2042420080872,-32.7458609903106
1580421255.1336,73.5179674982837,-92.1950102998396,-30.3044174868389
1580421255.13759,70.0999465934237,-95.857175555047,-27.8019378957808
1580421255.14159,66.6819256885638,-99.4583047226674,-25.1773861295489
1580421255.14558,62.8976882581828,-102.26596475166,-22.3697261005568
1580421255.14957,57.648584725719,-104.34119172961,-19.501029983978
1580421255.15357,50.9346150911724,-105.989166094453,-16.8154421301595
1580421255.15756,42.0843823910886,-107.698176546883,-14.373998626688
1580421255.16156,31.7692835889218,-110.200656137942,-12.4208438239109
1580421255.16555,20.4165712977797,-113.252460517281,-10.8339055466545
1580421255.16954,9.06385900663759,-116.731517509728,-10.0404364080262
1580421255.17354,-1.19020370794237,-120.454718852522,-10.0404364080262
1580421255.17753,-9.67421988250544,-123.750667582208,-10.7118333714809
1580421255.18153,-16.0219729915311,-126.497291523613,-11.810482948043
1580421255.18552,-20.2944991226061,-128.389410238804,-12.9701686121919
1580421255.18951,-22.7969787136644,-129.7932402533,-14.2519264515145
1580421255.19351,-24.2008087281604,-130.525673304341,-15.3505760280766
1580421255.1975,-25.1773861295489,-130.464637216754,-16.2661173418783
1580421255.2015,-26.1539635309375,-129.915312428473,-16.7544060425726
1580421255.2055,-27.8629739833675,-128.755626764324,-16.632333867399
1580421255.2095,-30.3654535744258,-127.718013275349,-16.5102616922254
1580421255.21349,-33.478294041352,-127.046616311894,-16.1440451667047
1580421255.21749,-37.0794232089725,-126.314183260853,-15.4726482032502
1580421255.22148,-40.7415884641796,-125.947966735332,-14.8012512397954
1580421255.22547,-43.5492484931717,-125.764858472572,-14.1298542763409
1580421255.22947,-45.6244754711224,-125.459678034638,-13.4584573128861
1580421255.23346,-47.0283054856184,-125.276569771878,-12.8480964370183
1580421255.23746,-48.310063324941,-124.544136720836,-12.4818799114976
1580421255.24145,-49.5918211642634,-123.262378881514,-12.5429159990845
1580421255.24545,-50.9956511787595,-121.61440451667,-12.6039520866711
1580421255.24944,-52.7656977187762,-119.783321889067,-12.664988174258
1580421255.25343,-54.5357442587931,-117.83016708629,-12.8480964370183
1580421255.25743,-56.4888990615702,-115.693904020752,-12.7260242618447
1580421255.26142,-58.8082703898681,-113.618677042802,-12.4208438239109
1580421255.26541,-60.8224612802319,-111.238269626917,-11.810482948043
1580421255.26941,-63.0807965209431,-108.430609597925,-10.8339055466545
1580421255.2734,-65.0339513237202,-105.622949568933,-9.73525597009234
1580421255.2774,-65.8274204623483,-102.571145189593,-8.02624551766235
1580421255.28139,-65.4001678492409,-99.3362325474939,-6.37827115281902
1580421255.28537,-63.630121309224,-96.4065003433282,-4.42511635004189
1580421255.28936,-60.5172808422981,-93.6598764019225,-2.7161058976119
1580421255.29336,-56.4888990615702,-91.0353246356908,-1.12916762035547
1580421255.29735,-52.3384451056688,-88.7769893949796,0.213626306553806
1580421255.30134,-48.8593881132219,-86.6407263294423,1.25123979552905
1580421255.30534,-45.9906919966431,-84.1992828259708,1.73952849622333
1580421255.30933,-43.8544289311055,-82.0019836728466,1.61745632104976
1580421255.31333,-42.1454184786755,-79.6215762569618,1.12916762035547
1580421255.31732,-40.3753719386589,-77.0580605783168,0.213626306553806
1580421255.32131,-38.7273975738156,-74.2504005493247,-1.25123979552905
1580421255.32531,-36.9573510337989,-71.1375600823987,-2.65506981002522
1580421255.3293,-34.8210879682613,-68.2688639658197,-3.63164721141379
1580421255.3333,-32.5017166399634,-65.5222400244145,-4.97444113832307
1580421255.33729,-30.1823453116654,-62.4093995574883,-6.31723506523235
1580421255.34128,-27.8629739833675,-59.2355230029755,-7.23277637903402
1580421255.34528,-25.3604943923094,-56.2447547112231,-7.96520943007545
1580421255.34927,-23.2852674143587,-53.6202029449912,-8.6366063935302
1580421255.35327,-22.0035095750361,-51.3008316166934,-9.12489509422448
1580421255.35726,-21.4541847867551,-49.1035324635691,-9.4300755321583
1580421255.36125,-21.6372930495154,-46.9062333104448,-10.0404364080262
1580421255.36526,-22.613870450904,-44.8310063324941,-10.5287251087204
1580421255.36926,-23.5904478522925,-42.877851529717,-10.8339055466545
1580421255.37325,-24.628061341268,-40.7415884641796,-11.3832303349354
1580421255.37725,-25.1773861295489,-38.5442893110553,-11.7494468604561
1580421255.38124,-25.6046387426566,-36.2859540703441,-12.1766994735638
1580421255.38523,-25.2384222171358,-34.0276188296332,-12.1766994735638
1580421255.38923,-24.3839169909209,-32.0134279392691,-12.359807736324
1580421255.39322,-22.613870450904,-29.9382009613182,-12.1766994735638
1580421255.39722,-20.050354772259,-27.5577935454337,-11.7494468604561
1580421255.40121,-16.5102616922254,-24.8722056916151,-11.0780498970016
1580421255.4052,-12.2987716487373,-22.064545662623,-10.1014724956131
1580421255.4092,-7.72106507972831,-19.2568856336309,-9.00282291905091
1580421255.41319,-3.32646677347975,-16.8154421301595,-7.66002899214163
1580421255.41719,0.640878919661191,-14.6791790646218,-6.25619897764545
1580421255.42118,3.93682764934761,-12.664988174258,-4.7913328755626
1580421255.42517,6.37827115281902,-10.8339055466545,-3.20439459830618
1580421255.42917,8.20935378042259,-9.30800335698473,-1.55642023346309
1580421255.43316,9.55214770733187,-7.84313725490188,-0.0305180437933359
1580421255.43716,10.3456168459602,-6.5003433279926,1.37331197070262
1580421255.44115,10.7728694590676,-5.03547722590974,3.20439459830618
1580421255.44513,10.955977721828,-3.26543068589308,4.73029678797593
1580421255.44912,10.8339055466545,-1.9226367589838,6.13412680247188
1580421255.45312,10.3456168459602,-0.457770656900948,7.41588464179449
1580421255.45711,9.67421988250544,1.19020370794237,8.51453421835663
1580421255.4611,9.4300755321583,2.7161058976119,9.30800335698473
1580421255.4651,9.61318379491877,4.73029678797593,10.1014724956131
1580421255.46909,10.955977721828,6.98863202868688,10.650797283894
1580421255.47309,13.0312046997788,9.55214770733187,11.2611581597619
1580421255.47708,16.083009079118,12.359807736324,11.9935912108033
1580421255.48107,20.1113908598459,15.3505760280766,12.5429159990845
1580421255.48507,25.1773861295489,18.5244525825894,13.3363851377126
1580421255.48906,30.9147783627068,21.5762569619287,14.373998626688
1580421255.49306,37.384603646906,24.322880903334,15.5947203784237
1580421255.49705,44.1596093690393,26.6422522316318,16.9985503929197
1580421255.50104,50.1411459525443,28.4733348592354,18.5244525825894
1580421255.50504,55.0240329594872,29.5109483482108,19.8672465094987
1580421255.50903,57.7096208133057,29.6940566109711,21.2710765239947
1580421255.51303,57.8927290760662,29.2057679102768,22.3697261005568
1580421255.51702,55.329213397421,27.7409018081939,23.468375677119
1580421255.52101,50.5073624780648,25.4215304798961,24.4449530785075
1580421255.52502,44.5868619821467,22.613870450904,24.8722056916151
1580421255.52902,38.4832532234682,19.6231021591516,25.1163500419623
1580421255.53301,32.6237888151368,17.1206225680933,25.2384222171358
1580421255.53701,27.0695048447394,15.1064316777295,24.7501335164416
1580421255.541,21.3321126115816,14.0077821011673,23.8956282902266
1580421255.54499,14.923323414969,13.4584573128861,22.5528343633173
1580421255.54899,7.29381246662092,13.3363851377126,20.9658960860609
1580421255.55298,-1.0070954451819,13.0922407873654,19.2568856336309
1580421255.55698,-10.2845807583733,12.5429159990845,17.486839093614
1580421255.56097,-19.9893186846723,11.5663385976959,15.8388647287709
1580421255.56496,-29.6940566109711,10.1625085831997,14.5571068894483
1580421255.56896,-38.7884336614025,7.90417334248878,13.7026016632333
1580421255.57295,-46.2958724345769,4.8523689631495,13.2753490501259
1580421255.57695,-52.0943007553217,1.37331197070262,13.214312962539
1580421255.58094,-56.2447547112231,-2.53299763485165,13.519493400473
1580421255.58493,-59.2355230029755,-6.37827115281902,14.1298542763409
1580421255.58893,-60.9445334554055,-10.0404364080262,14.8012512397954
1580421255.59292,-61.5548943312733,-13.519493400473,15.5336842908368
1580421255.59692,-61.4328221560997,-16.2050812542916,16.2050812542916
1580421255.60091,-61.2497138933395,-17.6699473563745,16.7544060425726
1580421255.60489,-60.9445334554055,-18.1582360570687,17.1206225680933
1580421255.60888,-60.3341725795376,-17.1206225680933,17.6089112687876
1580421255.61288,-59.357595178149,-14.4960708018616,17.9140917067216
1580421255.61687,-57.9537651636531,-10.8339055466545,18.5244525825894
1580421255.62086,-55.5733577477683,-6.5003433279926,19.6231021591516
1580421255.62486,-52.8267338063631,-2.47196154726475,21.0269321736475
1580421255.62885,-50.6294346532388,0.70191500724809,22.613870450904
1580421255.63285,-49.7138933394369,2.53299763485165,24.6890974288547
1580421255.63684,-50.2021820401312,2.96025024795904,26.6422522316318
1580421255.64083,-51.4229037918669,2.65506981002522,28.5343709468223
1580421255.64483,-52.0943007553217,1.8616006713969,29.9382009613182
1580421255.64882,-51.6670481422141,1.25123979552905,30.9758144502937
1580421255.65282,-49.7749294270238,1.61745632104976,31.5251392385746
1580421255.65681,-46.601052872511,3.02128633554594,31.9523918516823
1580421255.6608,-42.6947432669567,5.15754940108332,32.2575722896161
1580421255.6648,-38.4832532234684,7.47692072938116,32.1965362020294
1580421255.66879,-35.4314488441291,9.4300755321583,32.1965362020294
1580421255.67279,-33.478294041352,10.7118333714809,31.7692835889218
1580421255.67678,-32.2575722896163,11.810482948043,30.9758144502937
1580421255.68077,-31.1589227130539,12.2377355611504,29.5719844357975
1580421255.68478,-29.6330205233844,12.1156633859769,27.6188296330204
1580421255.68878,-27.8019378957808,11.5663385976959,25.5436026550697
1580421255.69277,-25.6656748302432,10.1014724956131,23.1021591515982
1580421255.69677,-23.2242313267718,7.96520943007545,20.7827878233004
1580421255.70076,-21.210040436408,5.52376592660403,18.2192721446554
1580421255.70475,-19.8672465094987,3.32646677347975,15.6557564660104
1580421255.70875,-18.8906691081102,1.8616006713969,13.0922407873654
1580421255.71274,-17.9751277943083,1.43434805828952,10.7728694590676
1580421255.71673,-16.6933699549859,1.61745632104976,8.69764248111687
1580421255.72073,-15.3505760280766,2.16678110933094,7.04966811627378
1580421255.72472,-13.9467460135804,2.89921416037237,5.76791027695117
1580421255.72872,-12.664988174258,3.69268329900046,5.09651331349664
1580421255.73271,-11.3832303349354,4.60822461280236,4.97444113832307
1580421255.7367,-9.91836423285258,6.19516289005878,4.97444113832307
1580421255.7407,-8.20935378042259,8.45349813076973,5.21858548867021
1580421255.74469,-5.15754940108332,11.0170138094147,5.58480201419093
1580421255.74869,-1.0070954451819,13.3363851377126,6.5003433279926
1580421255.75268,3.81475547417404,14.8622873273823,8.08728160524902
1580421255.75668,9.24696726939806,16.0219729915311,10.2845807583733
1580421255.76067,15.228503852903,17.3647669184404,13.0312046997788
1580421255.76465,21.5762569619287,18.341344319829,15.8999008163576
1580421255.76864,28.3512626840618,18.4023804074159,18.4023804074159
1580421255.77264,35.2483405813687,17.8530556191347,20.7827878233004
1580421255.77663,41.7181658655679,17.7309834439611,23.5294117647059
1580421255.78062,47.0283054856181,18.2803082322423,26.337071793698
1580421255.78462,50.5073624780648,18.7685969329366,29.2057679102768
1580421255.78861,51.911192492561,18.4023804074159,32.0134279392689
1580421255.79261,50.3242542153048,17.9751277943083,34.3938353551537
1580421255.7966,46.5400167849239,18.0361638818952,36.4690623331044
1580421255.80059,42.3895628290225,18.7685969329366,38.239108873121
1580421255.80459,38.9715419241625,20.355535210193,39.7650110627908
1580421255.80858,36.1638818951703,22.3086900129701,41.0467689021132
1580421255.81258,32.8068970778972,24.4449530785075,41.5350576028075
1580421255.81657,27.3136491950866,25.7877470054168,40.9246967269396
1580421255.82056,18.7685969329366,26.2760357061111,39.1546501869229
1580421255.82456,7.41588464179449,25.482566567483,36.0418097199968
1580421255.82855,-5.21858548867021,23.9566643778132,31.8913557640954
1580421255.83255,-17.3647669184404,21.9424734874494,27.2526131074997
1580421255.83654,-26.8253604943923,19.6841382467383,22.7359426260775
1580421255.84053,-31.8913557640956,17.9751277943083,18.7075608453497
1580421255.84454,-31.6472114137484,17.1816586556802,15.777828641184
1580421255.84854,-26.6422522316318,17.486839093614,14.1298542763409
1580421255.85253,-19.3179217212175,18.9517051956968,13.7636377508202
1580421255.85652,-12.9701686121919,21.210040436408,14.6791790646218
1580421255.86052,-10.2235446707866,23.5294117647059,16.3271534294652
1580421255.86451,-11.4442664225223,25.6046387426566,18.0971999694818
1580421255.86851,-15.1064316777295,27.6188296330204,19.1348134584573
1580421255.8725,-19.0127412832837,29.8771648737315,19.2568856336309
1580421255.87649,-21.1490043488211,32.3796444647896,18.5244525825894
1580421255.88049,-21.2710765239947,34.8210879682611,17.4258030060273
1580421255.88448,-19.501029983978,37.384603646906,16.083009079118
1580421255.88848,-16.632333867399,39.093614099336,15.777828641184
1580421255.89247,-13.7026016632333,39.8260471503775,16.4492256046387
1580421255.89646,-11.9935912108033,39.948119325551,18.1582360570687
1580421255.90046,-11.5663385976959,40.0091554131379,20.4776073853666
1580421255.90445,-12.1156633859769,40.8636606393529,22.4917982757304
1580421255.90845,-12.5429159990845,42.7557793545432,24.1397726405737
1580421255.91244,-12.2377355611504,45.6244754711222,25.1773861295489
1580421255.91644,-10.1625085831997,49.2256046387424,25.8487830930037
1580421255.92043,-5.95101853971164,52.8877698939496,26.337071793698
1580421255.92441,0.091554131380235,56.3668268863962,27.0695048447394
1580421255.9284,6.86655985351331,59.7848477912562,27.7409018081939
1580421255.9324,13.3974212252995,63.5690852216376,28.2291905088882
1580421255.93639,18.5854886701761,66.9871061264976,28.7174792095825
1580421255.94038,22.4917982757304,69.6116578927295,28.5954070344089
1580421255.94438,24.9942778667887,70.9544518196385,28.1071183337147
1580421255.94837,26.2149996185244,71.5037766079195,27.0695048447394
1580421255.95237,26.3981078812847,71.4427405203328,25.6046387426566
1580421255.95636,26.2760357061111,70.8323796444652,23.773556115053
1580421255.96035,25.482566567483,70.0389105058366,21.759365224689
1580421255.96435,24.9332417792018,69.5506218051423,19.5620660715647
1580421255.96834,24.9942778667887,69.2454413672085,17.5478751812009
1580421255.97233,25.6656748302432,68.8181887541009,16.1440451667047
1580421255.97633,27.0695048447394,67.9636835278861,14.923323414969
1580421255.98032,28.5954070344089,66.9871061264976,14.3129625391011
1580421255.98432,29.3278400854504,65.6443121995881,14.1298542763409
1580421255.98831,28.7174792095825,64.3625543602657,13.6415655756466
1580421255.99231,26.5812161440451,63.3249408712904,12.6039520866711
1580421255.9963,23.2242313267718,62.2873273823147,11.6884107728695
1580421256.00029,19.0737773708704,61.066605630579,10.2845807583733
1580421256.0043,14.5571068894483,59.4796673533224,8.88075074387734
1580421256.0083,10.1625085831997,57.648584725719,7.29381246662092
1580421256.01229,5.76791027695117,55.5123216601814,5.95101853971164
1580421256.01628,1.43434805828952,53.3150225070572,4.7913328755626
1580421256.02028,-2.89921416037237,51.3008316166934,3.81475547417404
1580421256.02427,-6.43930724040592,49.4697489890896,3.14335851071951
1580421256.02827,-9.06385900663759,47.8828107118331,2.89921416037237
1580421256.03226,-10.650797283894,46.5400167849239,3.02128633554594
1580421256.03625,-12.0546272983902,45.5024032959486,3.57061112382689
1580421256.04025,-13.7636377508202,45.075150682841,4.36408026245522
1580421256.04424,-15.5947203784237,45.1972228580146,5.21858548867021
1580421256.04824,-17.4258030060273,45.2582589456015,5.95101853971164
1580421256.05223,-19.1348134584573,45.3803311207751,7.11070420386045
1580421256.05622,-21.0879682612344,45.2582589456015,8.33142595559616
1580421256.06022,-23.3463035019454,44.9530785076674,9.67421988250544
1580421256.06421,-25.7877470054168,44.2816815442129,11.0780498970016
1580421256.06821,-27.9240100709544,43.7933928435186,12.1766994735638
1580421256.0722,-29.4499122606239,43.366140230411,13.214312962539
1580421256.07619,-29.8161287861446,42.9999237048903,14.1298542763409
1580421256.08019,-29.5109483482108,42.3895628290225,15.1674677653161
1580421256.08417,-28.7174792095825,41.4740215152208,16.2050812542916
1580421256.08816,-28.046082246128,40.3143358510717,17.3647669184404
1580421256.09215,-27.2526131074997,39.1546501869229,18.4023804074159
1580421256.09615,-25.8487830930037,38.3611810482946,19.0127412832837
1580421256.10014,-23.773556115053,37.8118562600137,19.3789578088044
1580421256.10414,-21.2710765239947,37.3235675593194,19.7451743343252
1580421256.10813,-19.3179217212175,37.0794232089722,19.9282825970854
1580421256.11212,-17.0595864805066,37.2014953841458,19.8672465094987
1580421256.11612,-14.2519264515145,37.6287479972532,19.3789578088044
1580421256.12011,-10.650797283894,38.3611810482946,18.4634164950025
1580421256.12411,-6.01205462729831,39.5819028000303,17.5478751812009
1580421256.1281,-0.579842832074519,41.2298771648736,16.3881895170518
1580421256.13209,5.27962157625689,42.8778515297167,15.3505760280766
1580421256.13609,10.955977721828,44.2816815442129,14.3129625391011
1580421256.14008,16.2661173418783,45.5024032959486,13.4584573128861
1580421256.14408,20.8438239108873,46.3569085221636,12.7870603494316
1580421256.14807,25.0553139543754,47.3945220111389,12.0546272983902
1580421256.15207,28.9616235599296,48.1879911497672,11.1390859845883
1580421256.15606,32.5017166399632,48.7373159380481,10.3456168459602
1580421256.16005,35.9197375448232,49.042496375982,10.1014724956131
1580421256.16403,38.4832532234682,48.7983520256348,9.67421988250544
1580421256.16803,39.948119325551,48.2490272373539,9.4911116197452
1580421256.17202,39.7039749752039,47.94384679942,9.61318379491877
1580421256.17601,37.9949645227739,47.2724498359653,9.12489509422448
1580421256.18001,35.4924849317158,46.1738002594032,6.68345159075307
1580421256.184,33.2951857785915,44.8310063324939,1.49538414587619
1580421256.188,31.2199588006408,43.6713206683451,-0.885023270008332
1580421256.19199,28.3512626840618,43.5492484931715,1.37331197070262
1580421256.19598,24.8111696040282,44.4647898069732,3.44853894865332
1580421256.19998,20.904859998474,41.657129777981,6.25619897764545
1580421256.20397,18.0361638818952,39.948119325551,5.58480201419093
1580421256.20796,16.5102616922254,39.8870832379644,4.66926070038903
1580421256.21196,15.7167925535973,40.9246967269396,3.75371938658736
1580421256.21595,14.9843595025559,40.9246967269396,2.7771419851988
1580421256.21995,13.8857099259938,40.4364080262453,1.55642023346309
1580421256.22394,12.2377355611504,40.0701915007246,0.823987182421661
1580421256.22793,10.2235446707866,40.2532997634851,0.762951094834762
1580421256.23193,8.6366063935302,40.6805523765925,0.640878919661191
1580421256.23592,7.35484855420759,41.1688410772867,0.762951094834762
1580421256.23992,7.04966811627378,41.9012741283282,1.0070954451819
1580421256.24393,6.98863202868688,42.6947432669565,1.25123979552905
1580421256.24792,7.17174029144735,43.1830319676508,2.04470893415737
1580421256.25191,7.23277637903402,43.6102845807582,2.7161058976119
1580421256.25591,7.04966811627378,43.4271763179979,3.32646677347975
1580421256.2599,6.31723506523235,42.6947432669565,3.93682764934761
1580421256.2639,5.34065766384379,41.7181658655679,4.66926070038903
1580421256.26789,4.42511635004189,40.6195162890058,5.15754940108332
1580421256.27188,3.99786373693451,39.7039749752039,5.34065766384379
1580421256.27588,3.81475547417404,38.6053253986418,5.46272983901736
1580421256.27987,3.99786373693451,37.9949645227739,5.46272983901736
1580421256.28387,4.11993591210808,37.7508201724268,5.27962157625689
1580421256.28786,4.48615243762879,37.8118562600137,5.09651331349664
1580421256.29185,4.91340505073617,37.9339284351872,4.8523689631495
1580421256.29585,5.7068741893645,37.8118562600137,4.36408026245522
1580421256.29984,6.37827115281902,37.5677119096665,3.75371938658736
1580421256.30384,6.80552376592664,37.0183871213853,2.89921416037237
1580421256.30783,7.41588464179449,36.2859540703439,1.98367284657047
1580421256.31182,7.96520943007545,35.4924849317158,1.0070954451819
1580421256.31582,8.75867856870377,34.8210879682611,0.0305180437933359
1580421256.31981,9.97940032043948,34.0886549172196,-0.70191500724809
1580421256.32379,11.1390859845883,33.4782940413518,-1.0070954451819
1580421256.32779,11.9935912108033,33.2951857785915,-1.19020370794237
1580421256.33178,12.6039520866711,33.2341496910046,-1.0681315327688
1580421256.33577,13.519493400473,33.6614023041122,-0.762951094834762
1580421256.33977,15.1064316777295,34.3327992675668,0.0305180437933359
1580421256.34376,17.1816586556802,35.3093766689553,0.762951094834762
1580421256.34775,19.7451743343252,36.2859540703439,1.73952849622333
1580421256.35175,21.8814373998625,37.3235675593194,2.83817807278547
1580421256.35574,23.3463035019454,37.9949645227739,3.99786373693451
1580421256.35974,23.8956282902266,37.9949645227739,5.15754940108332
1580421256.36373,23.7125200274661,37.7508201724268,6.07309071488521
1580421256.36772,23.2242313267718,37.2014953841458,6.92759594110021
1580421256.37172,22.4917982757304,36.8963149462118,7.41588464179449
1580421256.37571,22.064545662623,36.7132066834515,7.84313725490188
1580421256.37971,22.4917982757304,36.7132066834515,7.7821011673152
1580421256.3837,23.5904478522925,36.8352788586251,7.47692072938116
1580421256.38769,25.3604943923094,37.0794232089722,6.80552376592664
1580421256.39169,27.0084687571525,37.4456397344929,5.88998245212474
1580421256.39568,28.5343709468223,37.8728923476003,4.7913328755626
1580421256.39968,29.755092698558,38.1780727855344,3.44853894865332
1580421256.40369,30.9147783627068,38.1780727855344,2.16678110933094
1580421256.40768,32.0744640268558,37.6287479972532,0.885023270008332
1580421256.41167,32.9900053406575,36.9573510337987,-0.152590218966907
1580421256.41567,33.4172579537651,36.1028458075837,-1.0070954451819
1580421256.41966,33.4172579537651,35.3704127565422,-1.8616006713969
1580421256.42366,33.1120775158311,34.9431601434346,-2.65506981002522
1580421256.42765,32.7458609903103,35.2483405813687,-3.08232242313261
1580421256.43164,32.6237888151368,35.9197375448232,-3.20439459830618
1580421256.43564,32.3796444647896,36.5911345082779,-2.96025024795904
1580421256.43963,32.318608377203,36.7742427710382,-2.41092545967808
1580421256.44363,32.0744640268558,36.3469901579308,-1.49538414587619
1580421256.44762,31.464103150988,35.1873044937818,-0.274662394140478
1580421256.45161,30.3654535744258,33.8445105668725,0.946059357595232
1580421256.45561,28.4733348592354,32.6237888151368,2.28885328450451
1580421256.4596,26.0318913557639,31.7082475013351,3.57061112382689
1580421256.4636,23.6514839398794,31.2809948882275,4.73029678797593
1580421256.46759,21.759365224689,31.0978866254673,5.46272983901736
1580421256.47158,20.5386434729533,31.0368505378804,5.76791027695117
1580421256.47558,19.4399938963911,31.1589227130539,6.01205462729831
1580421256.47957,18.5854886701761,31.2809948882275,5.82894636453807
1580421256.48355,17.8530556191347,31.5251392385746,5.52376592660403
1580421256.48755,17.7309834439611,31.464103150988,5.15754940108332
1580421256.49154,17.792019531548,30.9758144502937,4.73029678797593
1580421256.49553,18.2803082322423,30.2433813992523,4.18097199969475
1580421256.49953,18.9517051956968,29.5719844357975,3.50957503624022
1580421256.50352,19.9893186846723,29.0836957351032,2.7161058976119
1580421256.50751,21.5762569619287,28.6564431219958,1.80056458381023
1580421256.51151,23.1631952391851,28.5343709468223,1.0681315327688
1580421256.5155,24.628061341268,28.2291905088882,0.396734569314049
1580421256.5195,25.9098191805904,28.2291905088882,-0.213626306553806
1580421256.52349,26.9474326695658,28.4122987716487,-1.0070954451819
1580421256.52748,28.2291905088882,28.2902265964751,-1.43434805828952
1580421256.53148,29.2668039978637,28.1071183337147,-1.61745632104976
1580421256.53547,29.9992370489051,27.6188296330204,-1.80056458381023
1580421256.53947,30.1823453116654,26.9474326695658,-1.8616006713969
1580421256.54346,29.9382009613182,26.2760357061111,-1.98367284657047
1580421256.54745,29.6940566109711,25.8487830930037,-1.98367284657047
1580421256.55145,29.6330205233844,25.6046387426566,-2.10574502174404
1580421256.55544,29.6940566109711,25.1773861295489,-2.41092545967808
1580421256.55944,29.6940566109711,24.5059891660944,-2.59403372243833
1580421256.56345,29.0226596475165,23.6514839398794,-2.7771419851988
1580421256.56744,27.8019378957808,22.9800869764247,-3.08232242313261
1580421256.57143,26.337071793698,22.0035095750361,-3.32646677347975
1580421256.57543,25.2994583047225,20.9658960860609,-3.38750286106665
1580421256.57942,24.5059891660944,19.8672465094987,-3.32646677347975
1580421256.58342,24.0787365529868,18.5854886701761,-2.96025024795904
1580421256.58741,23.9566643778132,16.8764782177461,-2.59403372243833
1580421256.5914,23.6514839398794,15.2895399404897,-2.47196154726475
1580421256.5954,23.1631952391851,13.9467460135804,-2.41092545967808
1580421256.59939,22.919050888838,13.0922407873654,-2.47196154726475
1580421256.60339,22.9800869764247,12.664988174258,-2.7161058976119
1580421256.60738,23.2242313267718,12.0546272983902,-2.89921416037237
1580421256.61137,23.468375677119,11.3221942473488,-3.02128633554594
1580421256.61537,23.773556115053,10.5897611963073,-3.08232242313261
1580421256.61936,24.1397726405737,9.85732814526591,-3.26543068589308
1580421256.62335,24.5059891660944,9.24696726939806,-3.32646677347975
1580421256.62735,25.0553139543754,8.94178683146401,-3.26543068589308
1580421256.63134,25.2994583047225,9.00282291905091,-3.08232242313261
1580421256.63534,25.2384222171358,9.30800335698473,-2.89921416037237
1580421256.63933,24.8722056916151,9.4911116197452,-2.7161058976119
1580421256.64331,24.0787365529868,9.55214770733187,-2.34988937209118
1580421256.6473,22.9800869764247,9.30800335698473,-1.80056458381023
1580421256.6513,21.3321126115816,8.81971465629044,-1.0070954451819
1580421256.65529,19.3789578088044,8.39246204318306,-0.274662394140478
1580421256.65929,17.1816586556802,8.20935378042259,0.152590218966907
1580421256.66328,15.1064316777295,7.90417334248878,0.396734569314049
1580421256.66727,12.9701686121919,7.41588464179449,0.335698481727377
1580421256.67127,10.8949416342411,6.98863202868688,-0.152590218966907
1580421256.67526,9.06385900663759,6.74448767833974,-1.0070954451819
1580421256.67926,7.84313725490188,6.56137941557949,-1.80056458381023
1580421256.68325,7.17174029144735,6.31723506523235,-2.65506981002522
1580421256.68724,6.92759594110021,5.7068741893645,-3.44853894865332
1580421256.69124,6.43930724040592,4.54718852521546,-4.24200808728165
1580421256.69523,5.58480201419093,2.7771419851988,-5.03547722590974
1580421256.69923,4.05889982452118,1.12916762035547,-5.6458381017776
1580421256.70322,2.47196154726475,-0.213626306553806,-6.56137941557949
1580421256.70721,1.43434805828952,-1.37331197070262,-7.59899290455473
1580421256.71121,1.19020370794237,-2.53299763485165,-8.6366063935302
1580421256.7152,1.25123979552905,-4.05889982452118,-9.4911116197452
1580421256.7192,1.25123979552905,-6.01205462729831,-10.3456168459602
1580421256.7232,0.762951094834762,-8.45349813076973,-11.0780498970016
1580421256.7272,0.0305180437933359,-11.6273746852826,-11.5663385976959
1580421256.73119,-1.12916762035547,-15.3505760280766,-11.7494468604561
1580421256.73519,-2.53299763485165,-19.3179217212175,-11.7494468604561
1580421256.73918,-3.99786373693451,-23.468375677119,-11.3832303349354
1580421256.74318,-5.34065766384379,-27.4967574578468,-11.0780498970016
1580421256.74717,-6.07309071488521,-31.5251392385749,-10.650797283894
1580421256.75116,-6.98863202868688,-35.7366292820632,-10.1625085831997
1580421256.75516,-7.41588464179449,-40.314335851072,-9.73525597009234
1580421256.75915,-7.35484855420759,-45.2582589456017,-9.55214770733187
1580421256.76314,-6.56137941557949,-50.6904707408255,-9.18593118181116
1580421256.76714,-5.34065766384379,-56.2447547112231,-9.18593118181116
1580421256.77113,-4.30304417486832,-62.3483634699016,-9.30800335698473
1580421256.77513,-3.87579156176093,-68.3909361409933,-9.97940032043948
1580421256.77912,-4.18097199969475,-75.043869687953,-10.955977721828
1580421256.78311,-5.21858548867021,-82.0630197604332,-12.5429159990845
1580421256.78711,-6.80552376592664,-89.4483863584344,-14.373998626688
1580421256.7911,-8.81971465629044,-96.5285725185017,-16.9985503929197
1580421256.7951,-10.8949416342411,-103.486686503395,-20.4165712977797
1580421256.79909,-12.0546272983902,-110.017547875181,-24.9332417792018
1580421256.80307,-12.2377355611504,-115.815976195926,-30.5485618371861
1580421256.80706,-10.7118333714809,-120.576791027695,-37.0794232089725
1580421256.81106,-7.11070420386045,-124.116884107729,-43.7933928435189
1580421256.81505,-1.25123979552905,-126.192111085679,-50.3242542153048
1580421256.81905,7.04966811627378,-126.680399786374,-56.2447547112231
1580421256.82304,17.6699473563745,-125.886930647745,-60.8834973678188
1580421256.82703,30.1823453116654,-124.299992370489,-63.9963378347447
1580421256.83103,44.220645456626,-122.468909742885,-65.2170595864804
1580421256.83502,58.6861982146943,-121.065079728389,-64.484626535439
1580421256.83902,72.846570534829,-119.966430151827,-62.1652552071412
1580421256.84301,86.3355458915084,-119.356069275959,-58.6251621271076
1580421256.847,98.9089799343865,-118.745708400092,-53.8643472953383
1580421256.851,109.773403524834,-118.074311436637,-48.0048828870069
1580421256.85499,118.196383611811,-117.280842298009,-41.168841077287
1580421256.85899,122.835126268406,-116.30426489662,-33.6003662165256
1580421256.86298,123.079270618754,-115.388723582818,-26.2760357061111
1580421256.86697,119.050888838025,-114.351110093843,-18.8906691081102
1580421256.87097,111.604486152438,-113.435568780041,-12.1156633859769
1580421256.87496,101.472495613031,-112.703135729,-6.13412680247188
1580421256.87895,89.8756389715422,-112.397955291066,-0.946059357595232
1580421256.88296,77.607385366598,-112.825207904173,3.14335851071951
1580421256.88696,65.4001678492409,-113.435568780041,5.88998245212474
1580421256.89095,53.6812390325777,-114.290074006256,7.7821011673152
1580421256.89495,42.5726710917829,-115.083543144885,8.51453421835663
1580421256.89894,32.1965362020294,-115.754940108339,8.14831769283592
1580421256.90294,22.2476539253832,-116.426337071794,6.74448767833974
1580421256.90693,12.4818799114976,-116.853589684901,4.54718852521546
1580421256.91092,3.26543068589308,-117.341878385595,1.55642023346309
1580421256.91492,-5.34065766384379,-117.524986648356,-1.9226367589838
1580421256.91891,-13.2753490501259,-117.64705882353,-5.46272983901736
1580421256.9229,-20.355535210193,-117.524986648356,-8.88075074387734
1580421256.9269,-26.2760357061111,-117.280842298009,-11.9325551232166
1580421256.93089,-31.5251392385749,-116.914625772488,-14.5571068894483
1580421256.93489,-35.6755931944763,-116.243228809033,-16.937514305333
1580421256.93888,-38.8494697489891,-115.693904020752,-18.9517051956968
1580421256.94287,-40.619516289006,-115.022507057298,-20.2944991226061
1580421256.94687,-41.2298771648739,-114.106965743496,-21.1490043488211
1580421256.95086,-40.619516289006,-113.496604867628,-21.759365224689
1580421256.95486,-39.1546501869232,-112.764171816587,-21.9424734874494
1580421256.95885,-37.3235675593196,-111.665522240025,-21.6983291371023
1580421256.96283,-35.187304493782,-110.383764400702,-21.210040436408
1580421256.96682,-32.623788815137,-108.796826123445,-20.2334630350194
1580421256.97082,-30.1213092240787,-107.026779583429,-19.2568856336309
1580421256.97481,-27.4357213702601,-105.317769130999,-18.0971999694818
1580421256.9788,-24.5670252536811,-103.425650415808,-16.6933699549859
1580421256.9828,-21.8204013122759,-102.082856488899,-15.5336842908368
1580421256.98679,-19.501029983978,-100.92317082475,-14.5571068894483
1580421256.99079,-17.4258030060273,-99.8245212481881,-13.7026016632333
1580421256.99478,-15.4116121156633,-98.4817273212789,-12.9701686121919
1580421256.99878,-13.2753490501259,-97.2610055695432,-12.6039520866711
1580421257.00277,-11.0780498970016,-96.1013199053941,-12.359807736324
1580421257.00676,-8.75867856870377,-94.6364538033113,-12.1766994735638
1580421257.01076,-6.5003433279926,-92.927443350881,-11.810482948043
1580421257.01475,-4.73029678797593,-90.7301441977568,-11.4442664225223
1580421257.01874,-3.75371938658736,-88.2276646066987,-10.7728694590676
1580421257.02274,-3.75371938658736,-85.6641489280537,-9.73525597009234
1580421257.02673,-4.8523689631495,-82.5513084611275,-8.88075074387734
1580421257.03073,-7.17174029144735,-79.6215762569618,-7.7821011673152
1580421257.03472,-10.5287251087204,-76.447699702449,-6.86655985351331
1580421257.03871,-14.6181429770352,-73.5179674982833,-5.7068741893645
1580421257.04269,-19.4399938963911,-70.6492713817045,-4.60822461280236
1580421257.04669,-24.6890974288547,-67.7805752651254,-3.57061112382689
1580421257.05068,-29.9992370489051,-64.9729152361333,-2.41092545967808
1580421257.05468,-35.3093766689556,-62.4093995574883,-1.31227588311594
1580421257.05867,-40.2532997634853,-59.6017395284962,-0.396734569314049
1580421257.06266,-45.0141145952546,-56.9771877622645,0.335698481727377
1580421257.06666,-49.4697489890898,-54.291599908446,0.823987182421661
1580421257.07065,-53.3150225070574,-51.4839398794538,1.0070954451819
1580421257.07465,-56.0616464484626,-48.310063324941,0.885023270008332
1580421257.07864,-57.7096208133059,-45.0141145952546,0.946059357595232
1580421257.08263,-57.8316929884795,-41.9623102159153,0.823987182421661
1580421257.08663,-56.3668268863967,-38.8494697489891,0.51880674448762
1580421257.09062,-53.8033112077517,-35.7366292820632,0.213626306553806
1580421257.09462,-50.1411459525445,-32.3186083772032,-0.274662394140478
1580421257.09861,-45.9296559090562,-29.2668039978637,-0.579842832074519
1580421257.1026,-41.168841077287,-26.5201800564582,-1.0070954451819
1580421257.1066,-36.1638818951706,-24.0177004654001,-1.61745632104976
1580421257.11059,-30.9147783627068,-21.8204013122759,-1.98367284657047
1580421257.11459,-25.482566567483,-19.6841382467383,-2.41092545967808
1580421257.11858,-20.355535210193,-17.9140917067216,-2.96025024795904
1580421257.12259,-15.4726482032502,-16.3271534294652,-3.44853894865332
1580421257.12658,-11.6273746852826,-14.8012512397954,-3.75371938658736
1580421257.13058,-8.6366063935302,-13.3974212252995,-3.93682764934761
1580421257.13457,-6.80552376592664,-11.9935912108033,-4.11993591210808
1580421257.13856,-6.01205462729831,-10.5287251087204,-4.05889982452118
1580421257.14256,-5.58480201419093,-9.12489509422448,-4.05889982452118
1580421257.14655,-5.46272983901736,-7.59899290455473,-3.87579156176093
1580421257.15055,-4.73029678797593,-6.13412680247188,-3.69268329900046
1580421257.15454,-3.63164721141379,-4.42511635004189,-3.26543068589308
1580421257.15854,-2.04470893415737,-2.59403372243833,-2.96025024795904
1580421257.16253,0.274662394140478,-0.70191500724809,-2.59403372243833
1580421257.16652,2.7161058976119,1.37331197070262,-2.22781719691761
1580421257.17052,5.46272983901736,3.63164721141379,-1.9226367589838
1580421257.17451,8.33142595559616,6.25619897764545,-1.49538414587619
1580421257.1785,10.955977721828,9.18593118181116,-0.823987182421661
1580421257.1825,13.0312046997788,12.1156633859769,0.091554131380235
1580421257.18649,14.6791790646218,14.7402151522087,1.12916762035547
1580421257.19049,15.6557564660104,16.8764782177461,2.16678110933094
1580421257.19448,16.1440451667047,18.2803082322423,3.32646677347975
1580421257.19847,16.3881895170518,19.1348134584573,4.60822461280236
1580421257.20245,16.8154421301595,19.3789578088044,6.01205462729831
1580421257.20645,17.8530556191347,19.1348134584573,7.35484855420759
1580421257.21044,19.4399938963911,18.5854886701761,8.75867856870377
1580421257.21443,21.2710765239947,18.2803082322423,10.0404364080262
1580421257.21843,23.3463035019454,18.2192721446554,11.505302510109
1580421257.22242,25.1773861295489,17.4258030060273,12.5429159990845
1580421257.22642,26.5201800564582,16.3271534294652,13.7026016632333
1580421257.23041,26.8863965819789,15.0453955901426,14.7402151522087
1580421257.23441,25.9708552681773,13.8246738384069,15.7167925535973
1580421257.2384,23.2242313267718,12.6039520866711,16.7544060425726
1580421257.24239,18.4634164950025,10.5287251087204,17.7309834439611
1580421257.24639,12.4818799114976,8.51453421835663,18.7075608453497
1580421257.25038,6.37827115281902,6.86655985351331,19.7451743343252
1580421257.25437,1.67849240863666,6.19516289005878,20.6607156481268
1580421257.25837,-1.49538414587619,6.92759594110021,21.5152208743418
1580421257.26236,-3.57061112382689,8.45349813076973,22.3086900129701
1580421257.26636,-5.40169375143046,10.1625085831997,23.0411230640116
1580421257.27035,-8.51453421835663,11.9325551232166,23.5904478522925
1580421257.27434,-13.1532768749523,13.9467460135804,23.9566643778132
1580421257.27834,-18.7075608453497,17.0595864805066,24.2008087281604
1580421257.28235,-23.7125200274661,20.8438239108873,24.7501335164416
1580421257.28634,-27.5577935454337,25.1773861295489,25.6656748302432
1580421257.29034,-29.5719844357975,29.8771648737315,27.1305409323261
1580421257.29433,-29.6330205233844,33.9665827420461,28.900587472343
1580421257.29832,-27.8019378957808,36.5911345082779,31.1589227130539
1580421257.30232,-25.3604943923094,37.2014953841458,33.6003662165253
1580421257.30631,-23.3463035019454,36.2859540703439,35.8587014572365
1580421257.31031,-22.7969787136644,33.9665827420461,37.6897840848401
1580421257.3143,-23.7125200274661,31.5251392385746,38.7884336614022
1580421257.31829,-25.7877470054168,29.8161287861446,39.093614099336
1580421257.32229,-27.9240100709544,28.7174792095825,38.4832532234682
1580421257.32628,-29.2057679102768,27.6188296330204,37.5677119096665
1580421257.33028,-29.3278400854504,25.5436026550697,36.4690623331044
1580421257.33427,-29.2057679102768,22.2476539253832,35.1873044937818
1580421257.33826,-30.2433813992523,17.8530556191347,33.173113603418
1580421257.34226,-33.4172579537653,13.0312046997788,30.2433813992523
1580421257.34625,-37.9949645227741,8.33142595559616,26.5812161440451
1580421257.35025,-43.4271763179981,3.50957503624022,22.1866178377966
1580421257.35424,-48.4931715877012,-1.0070954451819,17.8530556191347
1580421257.35823,-53.1319142442969,-4.66926070038903,13.2753490501259
1580421257.36224,-56.9161516746776,-8.02624551766235,8.94178683146401
1580421257.36624,-60.3341725795376,-11.3221942473488,4.8523689631495
1580421257.37023,-62.6535439078355,-14.4960708018616,0.946059357595232
1580421257.37422,-63.7521934843976,-16.632333867399,-2.34988937209118
1580421257.37822,-63.0197604333562,-17.4258030060273,-4.91340505073617
1580421257.38221,-59.6627756160831,-16.9985503929197,-6.13412680247188
1580421257.38621,-53.6812390325781,-15.8388647287709,-6.31723506523235
1580421257.3902,-45.9296559090562,-14.4350347142747,-4.97444113832307
1580421257.39419,-37.5066758220798,-13.0312046997788,-2.96025024795904
1580421257.39819,-29.6330205233844,-11.6273746852826,-0.70191500724809
1580421257.40218,-22.7359426260775,-10.4676890211338,1.80056458381023
1580421257.40618,-16.5102616922254,-9.18593118181116,4.18097199969475
1580421257.41017,-10.955977721828,-7.47692072938116,6.31723506523235
1580421257.41417,-4.97444113832307,-6.13412680247188,8.45349813076973
1580421257.41816,1.61745632104976,-4.91340505073617,10.8339055466545
1580421257.42215,8.69764248111687,-3.57061112382689,13.1532768749523
1580421257.42615,15.2895399404897,-1.80056458381023,15.5947203784237
1580421257.43014,20.6607156481268,-0.0305180437933359,17.792019531548
1580421257.43413,25.2994583047225,1.25123979552905,19.501029983978
1580421257.43813,29.8161287861446,2.22781719691761,20.2944991226061
1580421257.44211,34.6379797055008,2.96025024795904,20.2944991226061
1580421257.4461,39.8260471503775,3.26543068589308,19.5620660715647
1580421257.4501,44.5868619821467,1.9226367589838,18.5854886701761
1580421257.45409,46.7231250476843,-1.80056458381023,17.5478751812009
1580421257.45808,44.8310063324939,-7.35484855420759,16.2661173418783
1580421257.46208,38.7884336614022,-13.2753490501259,14.4960708018616
1580421257.46607,29.8771648737315,-17.8530556191347,12.2377355611504
1580421257.47007,20.1724269474325,-20.4776073853666,9.91836423285258
1580421257.47406,11.3832303349354,-21.4541847867551,8.14831769283592
1580421257.47805,4.8523689631495,-21.2710765239947,7.47692072938116
1580421257.48205,0.579842832074519,-20.4165712977797,7.90417334248878
1580421257.48604,-2.41092545967808,-18.646524757763,9.55214770733187
1580421257.49004,-4.66926070038903,-16.2661173418783,11.6884107728695
1580421257.49403,-6.5003433279926,-14.068818188754,13.7026016632333
1580421257.49802,-8.51453421835663,-12.4208438239109,15.3505760280766
1580421257.50202,-11.0170138094147,-11.7494468604561,16.5102616922254
1580421257.50601,-14.9843595025559,-11.505302510109,16.8764782177461
1580421257.51001,-20.5996795605402,-11.3832303349354,16.5712977798123
1580421257.514,-26.8863965819789,-11.1390859845883,15.777828641184
1580421257.51799,-32.1355001144427,-10.0404364080262,14.6791790646218
1580421257.522,-34.7600518806746,-8.51453421835663,13.7636377508202
1580421257.526,-34.2107270923934,-6.37827115281902,13.0312046997788
1580421257.52999,-30.5485618371861,-3.20439459830618,12.4818799114976
1580421257.53398,-24.5059891660944,1.0681315327688,12.1156633859769
1580421257.53798,-17.792019531548,5.6458381017776,11.810482948043
1580421257.54197,-12.4208438239109,10.2235446707866,11.6273746852826
1580421257.54597,-9.30800335698473,14.9843595025559,11.3832303349354
1580421257.54996,-8.20935378042259,19.3179217212175,11.1390859845883
1580421257.55395,-8.02624551766235,22.3086900129701,11.0780498970016
1580421257.55795,-8.14831769283592,23.2852674143587,11.5663385976959
1580421257.56194,-8.88075074387734,23.2242313267718,12.5429159990845
1580421257.56594,-10.0404364080262,23.2242313267718,13.7636377508202
1580421257.56993,-10.7728694590676,24.1397726405737,14.9843595025559
1580421257.57393,-11.0780498970016,26.0929274433508,15.9609369039445
1580421257.57792,-10.650797283894,28.1681544213016,17.0595864805066
1580421257.58191,-10.7118333714809,29.4499122606239,18.0971999694818
1580421257.58591,-11.7494468604561,30.609597924773,18.9517051956968
1580421257.5899,-13.5805294880597,32.318608377203,19.4399938963911
1580421257.59389,-15.8999008163576,34.3327992675668,19.8062104219118
1580421257.59789,-18.341344319829,36.3469901579308,19.7451743343252
1580421257.60187,-20.1113908598459,37.9949645227739,19.8062104219118
1580421257.60586,-20.9658960860609,39.1546501869229,19.8672465094987
1580421257.60985,-20.7217517357137,40.0701915007246,19.6231021591516
1580421257.61385,-19.1348134584573,41.5350576028075,19.4399938963911
1580421257.61784,-16.2050812542916,43.366140230411,19.4399938963911
1580421257.62184,-12.1156633859769,45.8686198214693,19.7451743343252
1580421257.62583,-7.84313725490188,48.3710994125277,20.1724269474325
1580421257.62982,-3.81475547417404,50.8125429159991,21.0269321736475
1580421257.63382,-1.0070954451819,52.8877698939496,22.0035095750361
1580421257.63781,0.274662394140478,54.7188525215533,23.1631952391851
1580421257.64181,-0.091554131380235,56.1226825360491,24.628061341268
1580421257.6458,-1.8616006713969,56.6109712367434,25.9708552681773
1580421257.64979,-4.91340505073617,56.4278629739833,27.4967574578468
1580421257.65379,-8.08728160524902,56.0006103608757,28.5343709468223
1580421257.65778,-9.91836423285258,55.9395742732891,29.4499122606239
1580421257.66178,-10.2845807583733,56.3668268863962,30.2433813992523
1580421257.66577,-9.12489509422448,56.9771877622643,31.0978866254673
1580421257.66976,-7.17174029144735,57.5265125505452,31.8303196765087
1580421257.67376,-4.36408026245522,57.8927290760662,32.5627527275501
1580421257.67775,-1.0681315327688,58.4420538643471,32.9289692530708
1580421257.68176,2.28885328450451,59.4796673533224,32.9289692530708
1580421257.68576,5.40169375143046,60.8834973678186,32.2575722896161
1580421257.68975,8.39246204318306,62.1042191195543,31.464103150988
1580421257.69374,11.3832303349354,62.9587243457695,30.3044174868389
1580421257.69774,14.8622873273823,63.8132295719847,28.9616235599296
1580421257.70173,19.0127412832837,64.6066987106128,27.9240100709544
1580421257.70573,24.0787365529868,65.2780956740676,26.2760357061111
1580421257.70972,29.3888761730373,65.8274204623485,24.3839169909209
1580421257.71371,34.2717631799801,66.2546730754561,22.3697261005568
1580421257.71771,38.3001449607079,66.4988174258033,19.9893186846723
1580421257.7217,41.4129854276339,66.3767452506295,17.792019531548
1580421257.7257,43.4882124055846,66.4377813382166,15.5947203784237
1580421257.72969,45.5634393835353,66.55985351339,13.5805294880597
1580421257.73368,47.2724498359653,66.6208896009766,11.810482948043
1580421257.73768,48.7373159380481,65.7053482871752,10.5287251087204
1580421257.74167,49.042496375982,64.4235904478523,9.73525597009234
1580421257.74567,47.5776302738993,62.8366521705962,9.12489509422448
1580421257.74966,44.4647898069732,61.1276417181657,8.6366063935302
1580421257.75365,40.2532997634851,59.5407034409091,8.33142595559616
1580421257.75765,35.5535210193025,57.5265125505452,8.27038986800949
1580421257.76163,30.609597924773,55.329213397421,8.33142595559616
1580421257.76562,25.5436026550697,52.7656977187762,8.51453421835663
1580421257.76961,19.7451743343252,49.9580376897839,8.6366063935302
1580421257.77361,13.7026016632333,47.2724498359653,8.45349813076973
1580421257.7776,7.84313725490188,45.1361867704279,7.7821011673152
1580421257.7816,2.65506981002522,43.4882124055846,6.80552376592664
1580421257.78559,-1.12916762035547,42.2674906538489,5.82894636453807
1580421257.78958,-3.38750286106665,41.7792019531546,4.97444113832307
1580421257.79358,-3.99786373693451,42.0233463035017,4.42511635004189
1580421257.79757,-3.26543068589308,42.3285267414358,4.11993591210808
1580421257.80157,-1.9226367589838,42.6947432669565,3.81475547417404
1580421257.80556,-0.274662394140478,42.8778515297167,3.69268329900046
1580421257.80955,0.946059357595232,42.9388876173036,3.63164721141379
1580421257.81355,1.19020370794237,42.6337071793696,3.81475547417404
1580421257.81754,0.457770656900948,42.2674906538489,3.69268329900046
1580421257.82154,-0.579842832074519,41.9012741283282,3.87579156176093
1580421257.82553,-1.37331197070262,41.5960936903944,4.11993591210808
1580421257.82952,-1.61745632104976,41.3519493400472,4.73029678797593
1580421257.83352,-1.19020370794237,41.0467689021132,5.58480201419093
1580421257.83751,-0.946059357595232,40.6805523765925,6.68345159075307
1580421257.84152,-1.31227588311594,40.0091554131379,7.7821011673152
1580421257.84552,-1.98367284657047,39.3987945372701,8.81971465629044
1580421257.84951,-3.08232242313261,39.2767223620965,9.67421988250544
1580421257.8535,-3.93682764934761,39.6429388876172,10.2845807583733
1580421257.8575,-3.99786373693451,40.6195162890058,10.7118333714809
1580421257.86149,-3.14335851071951,41.657129777981,10.8339055466545
1580421257.86549,-1.37331197070262,42.5726710917829,10.650797283894
1580421257.86948,1.12916762035547,43.366140230411,10.4676890211338
1580421257.87347,4.30304417486832,44.1596093690393,10.2845807583733
1580421257.87747,7.66002899214163,44.7699702449072,10.3456168459602
1580421257.88146,10.2235446707866,45.1972228580146,10.5287251087204
1580421257.88546,11.810482948043,45.6244754711222,10.8339055466545
1580421257.88945,12.6039520866711,46.1127641718165,11.0780498970016
1580421257.89344,13.3363851377126,46.784161135271,11.0780498970016
1580421257.89744,14.1298542763409,47.638666361486,10.7728694590676
1580421257.90143,15.5947203784237,48.3710994125277,10.4066529335469
1580421257.90543,17.1816586556802,48.8593881132219,10.1014724956131
1580421257.90942,19.0127412832837,49.2256046387424,9.61318379491877
1580421257.91341,20.7827878233004,49.7749294270234,9.12489509422448
1580421257.91741,22.3697261005568,50.4463263904781,8.33142595559616
1580421257.92139,23.6514839398794,51.2397955291062,7.41588464179449
1580421257.92538,24.8111696040282,51.911192492561,6.74448767833974
1580421257.92937,25.3604943923094,52.4605172808419,5.15754940108332
1580421257.93337,24.9942778667887,52.5825894560157,3.02128633554594
1580421257.93736,24.0177004654001,52.0332646677348,-3.08232242313261
1580421257.94136,21.6372930495154,50.8735790035857,-2.96025024795904
1580421257.94535,17.5478751812009,52.0943007553215,-0.70191500724809
1580421257.94934,12.9701686121919,50.4463263904781,0.335698481727377
1580421257.95334,9.24696726939806,47.4555580987258,1.80056458381023
1580421257.95733,6.25619897764545,47.5776302738993,4.73029678797593
1580421257.96133,3.99786373693451,46.2958724345767,5.03547722590974
1580421257.96532,2.53299763485165,44.6478980697336,4.11993591210808
1580421257.96931,1.25123979552905,44.5868619821467,3.57061112382689
1580421257.97331,0.274662394140478,45.0141145952543,2.53299763485165
1580421257.9773,-0.396734569314049,45.3803311207751,1.61745632104976
1580421257.9813,-0.152590218966907,45.8686198214693,1.19020370794237
1580421257.98529,0.885023270008332,46.4789806973372,0.946059357595232
1580421257.98928,2.41092545967808,46.4789806973372,1.12916762035547
1580421257.99328,3.38750286106665,45.929655909056,1.43434805828952
1580421257.99727,2.83817807278547,45.0141145952543,2.10574502174404
1580421258.00128,0.885023270008332,44.4647898069732,2.83817807278547
1580421258.00528,-2.53299763485165,43.8544289311053,3.69268329900046
1580421258.00927,-6.25619897764545,43.6102845807582,4.24200808728165
1580421258.01326,-8.81971465629044,43.2440680552374,4.30304417486832
1580421258.01726,-9.61318379491877,43.1219958800639,4.11993591210808
1580421258.02125,-8.75867856870377,43.2440680552374,3.75371938658736
1580421258.02524,-7.47692072938116,43.6102845807582,3.44853894865332
1580421258.02924,-6.43930724040592,43.9154650186922,2.96025024795904
1580421258.03323,-6.19516289005878,44.3427176317996,2.65506981002522
1580421258.03723,-6.74448767833974,44.8310063324939,2.28885328450451
1580421258.04122,-7.7821011673152,45.3192950331882,1.9226367589838
1580421258.04521,-8.88075074387734,45.929655909056,1.61745632104976
1580421258.04921,-9.97940032043948,46.7231250476843,1.25123979552905
1580421258.0532,-10.8949416342411,47.1503776607917,0.762951094834762
1580421258.0572,-11.7494468604561,47.94384679942,0.0305180437933359
1580421258.06119,-12.664988174258,48.4321355001143,-0.213626306553806
1580421258.06518,-13.0922407873654,49.2866407263291,-0.51880674448762
1580421258.06918,-13.0312046997788,50.0801098649576,-0.640878919661191
1580421258.07317,-12.359807736324,51.1177233539329,-0.579842832074519
1580421258.07717,-11.0170138094147,52.0332646677348,-0.152590218966907
1580421258.08115,-9.36903944457163,53.07087815671,0.457770656900948
1580421258.08514,-7.23277637903402,54.3526359960324,1.25123979552905
1580421258.08913,-4.97444113832307,55.3902494850076,2.16678110933094
1580421258.09313,-2.59403372243833,56.6109712367434,3.08232242313261
1580421258.09712,-0.335698481727377,57.3434042877848,4.24200808728165
1580421258.10112,1.80056458381023,57.5875486381319,5.21858548867021
1580421258.10511,3.57061112382689,57.2213321126114,6.13412680247188
1580421258.1091,4.7913328755626,56.1226825360491,7.04966811627378
1580421258.1131,5.52376592660403,54.4747081712062,7.90417334248878
1580421258.11709,6.19516289005878,52.7656977187762,8.45349813076973
1580421258.12109,7.47692072938116,51.0566872663462,8.6366063935302
1580421258.12508,9.12489509422448,49.7138933394367,8.51453421835663
1580421258.12907,11.0170138094147,48.1879911497672,7.90417334248878
1580421258.13307,11.9935912108033,46.6010528725108,7.04966811627378
1580421258.13706,12.1156633859769,45.0141145952543,5.52376592660403
1580421258.14106,11.4442664225223,43.366140230411,3.99786373693451
1580421258.14505,10.2845807583733,41.4129854276339,2.34988937209118
1580421258.14904,8.5755703059433,39.5819028000303,0.762951094834762
1580421258.15304,6.74448767833974,37.5066758220796,-0.457770656900948
1580421258.15703,5.21858548867021,35.7366292820629,-1.67849240863666
1580421258.16104,4.30304417486832,34.1496910048065,-2.34988937209118
1580421258.16504,4.24200808728165,32.8068970778972,-3.14335851071951
1580421258.16903,4.8523689631495,31.8303196765087,-3.32646677347975
1580421258.17302,5.82894636453807,31.0978866254673,-3.26543068589308
1580421258.17702,6.68345159075307,30.6706340123596,-3.20439459830618
1580421258.18101,7.35484855420759,30.3654535744258,-2.89921416037237
1580421258.185,7.11070420386045,29.6330205233844,-2.34988937209118
1580421258.189,6.43930724040592,28.7785152971694,-1.37331197070262
1580421258.19299,5.88998245212474,27.3746852826732,-0.396734569314049
1580421258.19699,6.19516289005878,25.4215304798961,0.823987182421661
1580421258.20098,7.29381246662092,23.5904478522925,2.16678110933094
1580421258.20497,9.24696726939806,22.5528343633173,3.44853894865332
1580421258.20897,11.2611581597619,22.2476539253832,4.18097199969475
1580421258.21296,13.214312962539,22.4917982757304,4.60822461280236
1580421258.21696,14.9843595025559,22.8580148012511,4.73029678797593
1580421258.22095,17.2426947432668,23.0411230640116,4.66926070038903
1580421258.22494,19.3179217212175,22.4917982757304,4.73029678797593
1580421258.22894,21.1490043488211,21.6372930495154,4.60822461280236
1580421258.23293,22.4917982757304,20.5386434729533,4.11993591210808
1580421258.23693,23.8345922026397,19.6841382467383,3.81475547417404
1580421258.24091,25.2994583047225,19.0737773708704,3.02128633554594
1580421258.2449,26.7643244068054,18.7685969329366,2.22781719691761
1580421258.24889,28.1071183337147,18.5854886701761,1.37331197070262
1580421258.25289,28.900587472343,18.2803082322423,0.335698481727377
1580421258.25688,29.2057679102768,17.792019531548,-0.579842832074519
1580421258.26087,29.2057679102768,17.4258030060273,-1.31227588311594
1580421258.26487,29.0226596475165,16.6933699549859,-1.8616006713969
1580421258.26886,28.4122987716487,15.5336842908368,-2.16678110933094
1580421258.27286,27.6188296330204,14.6181429770352,-2.41092545967808
1580421258.27685,26.5201800564582,13.7636377508202,-2.47196154726475
1580421258.28084,25.6656748302432,12.7870603494316,-2.28885328450451
1580421258.28484,24.7501335164416,11.6273746852826,-2.10574502174404
1580421258.28883,23.773556115053,10.7728694590676,-1.8616006713969
1580421258.29283,23.2242313267718,10.2235446707866,-1.73952849622333
1580421258.29682,22.9800869764247,9.97940032043948,-1.67849240863666
1580421258.30081,22.613870450904,9.73525597009234,-1.43434805828952
1580421258.30481,22.1866178377966,9.30800335698473,-1.25123979552905
1580421258.3088,21.4541847867551,9.24696726939806,-1.19020370794237
1580421258.3128,20.5386434729533,9.00282291905091,-1.0070954451819
1580421258.31679,19.9282825970854,8.5755703059433,-0.946059357595232
1580421258.3208,19.9282825970854,7.84313725490188,-0.640878919661191
1580421258.32479,20.1724269474325,6.5003433279926,-0.396734569314049
1580421258.32879,20.5996795605402,4.97444113832307,-0.0305180437933359
1580421258.33278,20.5386434729533,2.83817807278547,0.457770656900948
1580421258.33678,20.4165712977797,0.823987182421661,0.946059357595232
1580421258.34077,20.050354772259,-1.25123979552905,1.0681315327688
1580421258.34476,20.2334630350194,-3.50957503624022,1.0070954451819
1580421258.34876,20.5996795605402,-5.27962157625689,0.640878919661191
