Timestamp_seconds,Accel_X_g,Accel_Y_g,Accel_Z_g
1580421251.43601,-0.954848554207675,-0.112062256809338,0.28784618905928
1580421251.46798,-0.952895399404898,-0.160402838178072,0.304448004882886
1580421251.49994,-0.939711604486153,-0.211673151750972,0.281498435950255
1580421251.53191,-0.94508278019379,-0.23657587548638,0.30151827267872
1580421251.56388,-0.951430533302815,-0.227298390173189,0.30151827267872
1580421251.59585,-0.949477378500038,-0.194583047226672,0.262943465323872
1580421251.62782,-0.961684596017395,-0.201907377737086,0.278080415045395
1580421251.65979,-0.959731441214618,-0.183352407110704,0.237064164187075
1580421251.69175,-0.957778286411841,-0.154543373769741,0.302494850080109
1580421251.72372,-0.956313420309758,-0.175051499198901,0.277103837644006
1580421251.75569,-0.947035934996567,-0.200442511635003,0.281986724650949
1580421251.78766,-0.953871976806287,-0.181887541008621,0.264896620126649
1580421251.81963,-0.952895399404898,-0.184328984512092,0.262943465323872
1580421251.85159,-0.962661173418784,-0.175051499198901,0.27417410543984
1580421251.88356,-0.968032349126421,-0.169680323491264,0.272220950637063
1580421251.91553,-0.960708018616007,-0.203372243839169,0.265384908827343
1580421251.9475,-0.948989089799344,-0.197024490730143,0.265384908827343
1580421251.97947,-0.947035934996567,-0.186282139314869,0.29126420996414
1580421252.01144,-0.949477378500038,-0.192629892423895,0.296635385671777
1580421252.0437,-0.955825131609064,-0.180422674906538,0.28101014724956
1580421252.07567,-0.95191882200351,-0.180422674906538,0.268802929732203
1580421252.10764,-0.953383688105593,-0.188723582818341,0.290287632562752
1580421252.13961,-0.957778286411841,-0.180422674906538,0.287357900358586
1580421252.17157,-0.963637750820173,-0.166750591287098,0.272220950637063
1580421252.20354,-0.956313420309758,-0.187747005416952,0.278080415045395
1580421252.23551,-0.954360265506981,-0.187258716716258,0.271244373235675
1580421252.26748,-0.953871976806287,-0.165774013885709,0.296147096971083
1580421252.29945,-0.950453955901427,-0.178957808804455,0.281986724650949
1580421252.33141,-0.949477378500038,-0.182864118410009,0.297123674372472
1580421252.36338,-0.950942244602121,-0.181887541008621,0.312748912794689
1580421252.39535,-0.952895399404898,-0.168703746089875,0.293705653467612
1580421252.42732,-0.953383688105593,-0.175539787899595,0.289311055161363
1580421252.45929,-0.956801709010453,-0.168703746089875,0.293705653467612
1580421252.49125,-0.950453955901427,-0.165285725185015,0.294193942168306
1580421252.52322,-0.949477378500038,-0.169680323491264,0.282475013351643
1580421252.55519,-0.946547646295873,-0.165774013885709,0.282475013351643
1580421252.58716,-0.946059357595178,-0.170656900892652,0.294193942168306
1580421252.61913,-0.944106202792401,-0.153566796368352,0.327885862516212
1580421252.65109,-0.943617914091707,-0.175539787899595,0.305912870984969
1580421252.68306,-0.941176470588236,-0.180422674906538,0.322514686808574
1580421252.71503,-0.953383688105593,-0.165285725185015,0.296635385671777
1580421252.747,-0.950453955901427,-0.156496528572518,0.300541695277332
1580421252.77897,-0.94850080109865,-0.178469520103761,0.292729076066223
1580421252.81094,-0.945571068894484,-0.185793850614175,0.317143511100937
1580421252.8429,-0.93482871747921,-0.180910963607232,0.315678644998854
1580421252.87487,-0.933852140077821,-0.168215457389181,0.320561532005797
1580421252.90684,-0.934340428778516,-0.192629892423895,0.340581368734263
1580421252.93881,-0.948012512397955,-0.148683909361409,0.316166933699549
1580421252.97078,-0.966567483024338,-0.152101930266269,0.278568703746089
1580421253.00274,-0.963149462119478,-0.190188448920424,0.26392004272526
1580421253.03471,-0.959731441214618,-0.161379415579461,0.280033569848172
1580421253.06668,-0.956313420309758,-0.151613641565575,0.292240787365529
1580421253.09865,-0.957778286411841,-0.109620813305867,0.315678644998854
1580421253.13062,-0.954848554207675,-0.141847867551689,0.321538109407186
1580421253.16259,-0.952895399404898,-0.151613641565575,0.292240787365529
1580421253.19455,-0.961196307316701,-0.135988403143358,0.296147096971083
1580421253.22652,-0.975356679636835,-0.167238879987792,0.280521858548866
1580421253.25849,-0.985610742351415,-0.135011825741969,0.271732661936369
1580421253.29046,-1.0300450141146,-0.0910658426794839,0.213138017853055
1580421253.32223,-1.0720378423743,-0.0544441901274126,0.116945143816281
1580421253.3542,-1.10963607232776,-0.0104982070649271,0.0666514076447697
1580421253.38617,-1.12867933165484,-0.0144045166704814,0.116456855115587
1580421253.41814,-1.09449912260624,-0.0944838635843439,0.32202639810788
1580421253.45011,-1.17750820172427,-0.35718318455787,0.526619363698789
1580421253.48208,-1.00660715648127,-0.273685816739148,0.633066300450142
1580421253.51405,-0.690196078431372,-0.190188448920424,0.81519798580911
1580421253.54602,-0.448493171587701,0.031006332494087,0.495368886854351
1580421253.57798,-0.416266117341879,0.073975738155184,0.39380483710994
1580421253.60995,-0.521736476691844,-0.41528953994049,0.357183184557869
1580421253.64192,-0.498786907759213,-0.748790722514686,0.402594033722437
1580421253.67389,-0.713633936064697,-0.475349050125887,0.493904020752268
1580421253.70586,-0.788342107270925,0.0407721065079727,0.497322041657128
1580421253.73783,-1.00904859998474,0.162355992980849,0.415289539940488
1580421253.76979,-1.10914778362707,-0.250247959105822,0.309819180590523
1580421253.80176,-1.03346303501946,-0.308842603189136,0.387945372701608
1580421253.83373,-0.999282825970855,-0.150148775463492,0.399176012817577
1580421253.8657,-0.94508278019379,-0.0588387884336612,0.52906080720226
1580421253.89767,-1.06617837796597,0.0349126420996413,0.31860837720302
1580421253.92964,-1.02906843671321,0.0612802319371326,0.439703974975203
1580421253.96161,-1.01197833218891,-0.184328984512092,0.482185091935605
1580421253.99357,-1.16823071641108,-0.203860532539863,-0.271244373235676
1580421254.02554,-1.12867933165484,-0.334233615625239,0.317631799801632
1580421254.05751,-0.944594491493095,-0.165774013885709,0.343511100938429
1580421254.08948,-0.95191882200351,-0.0524910353246355,0.235111009384298
1580421254.12145,-0.888929579613947,-0.205813687342641,0.321049820706492
1580421254.15342,-0.884534981307699,-0.314702067597468,0.289311055161363
1580421254.18539,-0.886488136110476,-0.259037155718319,0.257572289616235
1580421254.21736,-0.957289997711147,-0.099855039291981,0.327885862516212
1580421254.24932,-0.911390859845884,-0.233646143282215,0.321049820706492
1580421254.28129,-0.942641336690318,-0.296147096971085,0.204837109941252
1580421254.31326,-0.978286411841001,-0.288822766460671,0.23657587548638
1580421254.34523,-0.887953002212559,-0.432867933165484,0.302494850080109
1580421254.3772,-0.887953002212559,-0.443121995880064,0.382085908293277
1580421254.40917,-0.838147554741742,-0.393804837109942,0.457770656900891
1580421254.44114,-0.868421454184787,-0.368413824673839,0.466559853513388
1580421254.4731,-0.860120546272984,-0.33667505912871,0.441168841077285
1580421254.50507,-0.901625085831999,-0.309330891889831,0.357671473258563
1580421254.53704,-0.859143968871596,-0.279545281147479,0.355718318455786
1580421254.56901,-0.898207064927139,-0.31958495460441,0.377203021286334
1580421254.6012,-0.900160219729916,-0.315678644998856,0.35620660715648
1580421254.63316,-0.949965667200733,-0.23315785458152,0.255130846112763
1580421254.66513,-0.97926298924239,-0.201419089036392,0.212161440451666
1580421254.6971,-0.982192721446555,-0.230716411078049,0.199954222934309
1580421254.72907,-0.957289997711147,-0.331792172121768,0.33911650263218
1580421254.76104,-0.96900892652781,-0.188235294117646,0.285404745555809
1580421254.79301,-0.97584496833753,-0.183352407110704,0.318120088502326
1580421254.82498,-0.972915236133364,-0.275150682841231,0.369390402075226
1580421254.85695,-0.956313420309758,-0.337163347829405,0.425055313954374
1580421254.88891,-1.0036774242771,-0.267338063630122,0.395269703212023
1580421254.92088,-0.987563897154192,-0.221927214465552,0.381597619592583
1580421254.95285,-0.989028763256275,-0.270267795834288,0.373785000381474
1580421254.98482,-0.990005340657664,-0.252689402609294,0.370366979476614
1580421255.01679,-0.826916914625773,-0.170168612191958,0.629159990844588
1580421255.04876,-0.786877241168842,-0.248783093003738,0.660410467689022
1580421255.08072,-0.86988632028687,-0.323979552910659,0.608163576714734
1580421255.11269,-0.896253910124361,-0.41528953994049,0.540779736018923
1580421255.14466,-0.746349279011215,-0.259525444419014,0.666758220798048
1580421255.17663,-0.495857175555047,-0.273685816739148,1.13844510566873
1580421255.2086,-0.12475776302739,-0.272709239337759,0.806897077897307
1580421255.24057,-0.0471198596169984,0.159914549477378,0.336186770428014
1580421255.27254,-0.170656900892652,-0.362554360265507,0.674570840009157
1580421255.3045,-0.199465934233615,-0.523689631494621,0.612069886320288
1580421255.33647,-0.294193942168308,-0.330815594720379,0.427496757457845
1580421255.36844,-0.584237430380712,-0.24682993820096,0.650644693675137
1580421255.40041,-0.76734569314107,0.0959487296864268,0.60083924620432
1580421255.43238,-1.03590447852293,0.241458762493323,0.548104066529337
1580421255.46435,-1.20289921416037,0.00219729915312428,0.52222476539254
1580421255.49632,-1.23366140230411,-0.337651636530099,0.379156176089111
1580421255.52829,-1.13795681696803,-0.358648050659953,0.379156176089111
1580421255.56025,-1.15016403448539,-0.175051499198901,0.308842603189134
1580421255.59222,-1.01930266269932,-0.153566796368352,0.347417410543983
1580421255.62419,-0.956801709010453,-0.406500343327993,0.328374151216906
1580421255.65616,-0.968520637827115,-0.254154268711376,0.343511100938429
1580421255.68813,-0.959731441214618,0.0368657969024184,0.373785000381474
1580421255.7201,-1.14235141527428,-0.0178225375753414,0.39380483710994
1580421255.75206,-1.11110093842985,0.146730754558632,-0.0212405584802013
1580421255.78403,-1.11647211413748,-0.174074921797512,0.245853360799572
1580421255.816,-1.13795681696803,-0.301029983978028,0.189700160219729
1580421255.84797,-0.977798123140307,-0.348393987945373,0.326420996414129
1580421255.87979,-0.806408789196613,-0.245365072098878,0.597909514000154
1580421255.91176,-0.800549324788282,-0.0910658426794839,0.430914778362705
1580421255.94373,-0.922133211261158,-0.216067750057221,0.248783093003738
1580421255.9757,-0.95533684290837,-0.349858854047456,0.227298390173189
1580421256.00766,-0.986587319752804,-0.208255130846112,0.230716411078049
1580421256.03963,-0.969985503929198,-0.187747005416952,0.23657587548638
1580421256.0716,-0.928969253070878,-0.395269703212024,0.352300297550926
1580421256.10357,-0.90748455024033,-0.364507515068285,0.285404745555809
1580421256.13554,-0.943617914091707,-0.211184863050278,0.301029983978026
1580421256.16751,-0.906996261539636,-0.324467841611353,0.305424582284274
1580421256.19948,-0.918715190356298,-0.241458762493323,0.330327306019683
1580421256.23144,-0.94166475928893,-0.244388494697489,0.31860837720302
1580421256.26341,-0.91432059205005,-0.283451590753033,0.33228046082246
1580421256.29538,-0.927016098268101,-0.306401159685665,0.351812008850231
1580421256.32735,-0.936293583581293,-0.273685816739148,0.350347142748149
1580421256.35932,-0.92115663385977,-0.303959716182193,0.373785000381474
1580421256.39129,-0.942153047989624,-0.297123674372473,0.327885862516212
1580421256.42326,-0.940688181887541,-0.278080415045396,0.30835431448844
1580421256.45523,-0.942641336690318,-0.311284046692608,0.350835431448843
1580421256.48719,-0.939711604486153,-0.260502021820402,0.362066071564811
1580421256.51916,-0.927016098268101,-0.224368657969023,0.353765163653009
1580421256.55113,-0.93482871747921,-0.251224536507211,0.347905699244677
1580421256.5831,-0.970962081330587,-0.253177691309988,0.385503929198137
1580421256.61507,-0.960219729915313,-0.281498435950256,0.419195849546043
1580421256.64704,-0.939711604486153,-0.253177691309988,0.445563439383534
1580421256.67901,-0.970473792629893,-0.300541695277333,0.364995803768977
1580421256.71097,-1.16090638590066,-0.308842603189136,0.231692988479438
1580421256.74294,-1.22438391699092,-0.0856946669718468,0.274662394140535
1580421256.77491,-1.00953688868544,-0.186282139314869,0.5940032043946
1580421256.80688,-0.829358358129245,-0.432867933165484,0.648203250171665
1580421256.83885,-0.658457312886243,-0.43921568627451,0.777111467154956
1580421256.87082,-0.383550774395362,-0.349858854047456,0.833752956435493
1580421256.90279,-0.206790264744029,-0.0568856336308841,0.751232166018159
1580421256.93475,-0.229739833676661,0.109132524605172,0.660410467689022
1580421256.96672,-0.142824444953078,-0.0407721065079727,0.745372701609828
1580421256.99869,-0.116456855115587,-0.179446097505149,0.668711375600825
1580421257.03066,-0.223880369268329,-0.258548867017625,0.540291447318229
1580421257.06263,-0.324956130312048,-0.393804837109942,0.605233844510568
1580421257.0946,-0.572518501564049,-0.288334477759976,0.744884412909133
1580421257.12657,-0.939223315785458,0.027588311589227,0.52906080720226
1580421257.15872,-1.1320973525597,0.119874876020447,0.456305790798808
1580421257.19069,-1.16676585030899,-0.01196307316701,0.589608606088351
1580421257.22266,-1.25270466163119,-0.205813687342641,0.384527351796748
1580421257.25463,-1.17653162432288,-0.0656748302433812,0.321049820706492
1580421257.2866,-1.1579766536965,-0.130617227435721,0.28442816815442
1580421257.31856,-1.09401083390555,-0.359136339360647,0.223880369268329
1580421257.35053,-1.02027924010071,-0.256595712214848,0.269291218432897
1580421257.3825,-1.08229190508888,-0.133058670939192,0.322514686808574
1580421257.41447,-0.922133211261158,-0.292240787365531,-0.106202792401007
1580421257.44644,-0.974868390936141,-0.0935072861829553,0.193606469825284
1580421257.47841,-1.0129549095903,-0.0319829098954756,0.364995803768977
1580421257.51038,-1.07936217288472,0.0505378805218584,0.464606698710611
1580421257.54235,-0.950942244602121,-0.194094758525978,0.560799572747388
1580421257.57431,-0.815686274509805,-0.352788586251622,0.469977874418248
1580421257.60628,-0.813244831006333,-0.511482413977264,0.344487678339817
1580421257.63825,-0.862073701075762,-0.325932707713436,0.385992217898831
1580421257.67022,-0.937758449683376,-0.0339360646982527,0.314213778896772
1580421257.70219,-0.957289997711147,-0.00512703135728998,0.272220950637063
1580421257.73416,-0.943617914091707,-0.274662394140536,0.227786678873883
1580421257.76612,-0.956801709010453,-0.53492027161059,0.326909285114823
1580421257.79809,-0.955825131609064,-0.234622720683603,0.280521858548866
1580421257.83006,-0.971450370031281,-0.126710917830167,0.272709239337757
1580421257.86203,-0.932875562676433,-0.224856946669718,0.25024795910582
1580421257.894,-0.901136797131304,-0.36743724727245,0.299565117875943
1580421257.92597,-0.92799267566949,-0.283939879453728,0.372808422980086
1580421257.95794,-0.935805294880598,-0.143312733653772,0.296147096971083
1580421257.9899,-0.891371023117419,-0.268314641031511,0.36646066987106
1580421258.02187,-0.933852140077821,-0.33325703822385,0.425055313954374
1580421258.05384,-0.943617914091707,-0.234134431982909,0.335210193026626
1580421258.08581,-0.949477378500038,-0.281986724650951,0.260990310521095
1580421258.11778,-0.974868390936141,-0.272220950637065,0.262455176623178
1580421258.14975,-0.983169298847944,-0.23315785458152,0.249759670405126
1580421258.18172,-0.961196307316701,-0.305424582284276,0.282963302052337
1580421258.21369,-0.945571068894484,-0.279056992446785,0.354741741054397
1580421258.24565,-0.97926298924239,-0.278080415045396,0.37329671168078
1580421258.27762,-0.992446784161135,-0.355718318455787,0.410406652933546
1580421258.30959,-1.00123598077363,-0.171633478294041,0.325932707713434
1580421258.34156,-1.02320897230488,-0.145265888456549,0.35620660715648
1580421258.37353,-0.998306248569467,-0.257572289616236,0.3972228580148
1580421258.4055,-1.09205767910277,-0.277103837644008,0.335210193026626
1580421258.43719,-1.20973525597009,-0.190188448920424,0.29810025177386
1580421258.46916,-1.04127565423056,-0.208255130846112,0.486091401541159
1580421258.50113,-0.828381780727856,-0.258548867017625,0.650644693675137
1580421258.5331,-0.581307698176547,-0.252201113908599,0.788342107270925
1580421258.56507,-0.297611963073168,-0.302983138780805,1.01149004348821
1580421258.59704,-0.192629892423895,-0.0236820019836728,0.545174334325171
1580421258.62901,-0.223880369268329,-0.0451667048142212,0.541756313420311
1580421258.66097,-0.176516365300984,-0.39136339360647,0.784924086366065
1580421258.69294,-0.0593270771343555,-0.375738155184253,0.643320363164722
1580421258.72491,-0.245853360799572,-0.281986724650951,0.554940108339057
1580421258.75688,-0.495368886854353,-0.212649729152361,0.640878919661251
1580421258.78885,-0.644296940566109,-0.105714503700312,0.627206836041811
1580421258.82082,-0.834729533836882,0.0158693827725642,0.619394216830703
1580421258.85279,-1.01149004348821,-0.181399252307926,0.54956893263142
1580421258.88475,-1.07692072938125,-0.438239108873121,0.494392309452962
1580421258.91672,-1.20387579156176,-0.385992217898833,0.447516594186311
1580421258.94869,-1.19606317235065,-0.130617227435721,0.414801251239794
1580421258.98066,-1.18776226443885,-0.180910963607232,0.303471427481497
1580421259.01263,-1.12184328984512,-0.145265888456549,0.305424582284274
1580421259.0446,-1.04567025253681,-0.0505378805218584,0.344487678339817
1580421259.07657,-0.964614328221561,-0.00659189745937283,0.38355077439536
1580421259.10853,-0.672617685206378,-0.0759288929579611,0.0187991149767299
1580421259.1405,-0.997817959868772,-0.170656900892652,0.224368657969023
1580421259.17247,-1.06813153276875,-0.163332570382238,0.474372472724497
1580421259.20444,-1.29567406729229,-0.0495613031204698,0.000244144350347142
1580421259.23641,-1.03053330281529,-0.218509193560692,0.420660715648125
1580421259.26838,-0.88355840390631,-0.181887541008621,0.453864347295337
1580421259.30035,-0.818127718013276,-0.232181277180132,0.351812008850231
1580421259.33231,-0.867444876783399,-0.337651636530099,0.205813687342641
1580421259.36428,-0.983169298847944,-0.341069657434959,0.170168612191958
1580421259.39625,-0.998794537270161,-0.0974135957885096,0.307866025787746
1580421259.42822,-0.963149462119478,-0.11792172121767,0.263431754024566
1580421259.46019,-0.878187228198673,-0.518806744487678,0.316655222400243
1580421259.49216,-0.870374608987564,-0.506599526970321,0.316655222400243
1580421259.52413,-0.92457465476463,-0.157473105973907,0.398199435416188
1580421259.55609,-0.916273746852827,-0.264408331425956,0.350347142748149
1580421259.58806,-0.892835889219501,-0.375738155184253,0.337651636530097
1580421259.62003,-0.957289997711147,-0.264408331425956,0.28101014724956
1580421259.652,-0.933852140077821,-0.205813687342641,0.284916456855115
1580421259.68397,-0.937758449683376,-0.294193942168308,0.290287632562752
1580421259.71625,-0.943617914091707,-0.260013733119708,0.311284046692606
1580421259.74822,-0.963149462119478,-0.210208285648889,0.2605020218204
1580421259.78018,-0.967544060425727,-0.303959716182193,0.280521858548866
1580421259.81215,-0.96217288471809,-0.274174105439842,0.268314641031509
1580421259.84412,-0.99635309376669,-0.229251544975966,0.283939879453726
1580421259.87609,-0.966079194323644,-0.228274967574578,0.308842603189134
1580421259.90806,-0.939223315785458,-0.260013733119708,0.38355077439536
1580421259.94003,-0.96900892652781,-0.275638971541925,0.393316548409246
1580421259.972,-0.997329671168078,-0.266361486228734,0.408941786831463
1580421260.00396,-1.02858014801251,-0.190676737621118,0.357183184557869
1580421260.03593,-1.05934233615625,-0.199465934233615,0.297611963073166
1580421260.0679,-1.18239108873121,-0.304448004882888,0.202883955138475
1580421260.09987,-1.1833676661326,-0.187747005416952,0.258548867017623
1580421260.13184,-0.908949416342413,-0.149660486762798,0.60767528801404
1580421260.16381,-0.859143968871596,-0.216556038757915,0.674570840009157
1580421260.19578,-0.854749370565347,-0.282475013351645,0.562264438849471
1580421260.22774,-0.675547417410543,-0.261478599221791,0.634042877851531
1580421260.25971,-0.416266117341879,-0.191653315022506,0.857679102769513
1580421260.29168,-0.177004654001678,-0.337651636530099,1.09547570000763
1580421260.32365,-0.286869611657893,-0.206790264744029,0.848889906157016
1580421260.35562,-0.0729991607537954,0.0847180895704582,0.350347142748149
1580421260.38759,0.000244144350347142,-0.402105745021744,0.538826581216146
1580421260.41956,-0.237064164187075,-0.552498664835584,0.76734569314107
1580421260.45152,-0.194583047226672,-0.202883955138475,0.552010376134891
1580421260.48349,-0.486091401541161,0.000732433051041426,0.493904020752268
1580421260.51546,-0.862073701075762,0.0876478217746239,0.712169069962616
1580421260.54743,-1.01832608529793,-0.00268558785381856,0.543221179522394
1580421260.5794,-1.17848477912566,-0.43579766536965,0.5769130998703
1580421260.61137,-1.25368123903258,-0.523689631494621,0.435797665369648
1580421260.64334,-1.26295872434577,-0.0588387884336612,0.414801251239794
1580421260.6753,-1.16481269550622,-0.145754177157244,0.416266117341877
1580421260.70727,-1.06080720225834,-0.224368657969023,0.419684138246737
1580421260.73924,-1.10475318532082,0.0104982070649271,0.47925535973144
1580421260.77121,-0.930434119172961,-0.0969253070878153,0.0681162737468526
1580421260.80318,-1.08229190508888,-0.142824444953078,0.212161440451666
1580421260.83515,-1.01832608529793,-0.207766842145418,0.368413824673837
1580421260.86712,-1.20143434805829,0.0300297550926985,0.135500114442664
1580421260.89909,-0.884046692607004,-0.195071335927366,0.449958037689782
1580421260.93105,-0.772228580148013,-0.310795757991913,0.598886091401543
1580421260.96302,-0.851331349660487,-0.274174105439842,0.424078736552985
1580421260.99481,-0.90064850843061,-0.322514686808576,0.315678644998854
1580421261.02678,-0.922133211261158,-0.298588540474556,0.309330891889829
1580421261.05875,-0.968520637827115,-0.158937972075989,0.33569848172732
1580421261.09072,-0.928969253070878,-0.315190356298162,0.261478599221789
1580421261.12269,-0.919203479056993,-0.426031891355764,0.290287632562752
1580421261.15466,-0.940199893186847,-0.259037155718319,0.265873197528038
1580421261.18663,-0.927504386968796,-0.301518272678722,0.270267795834286
1580421261.2186,-0.913344014648661,-0.264408331425956,0.303471427481497
1580421261.25056,-0.937758449683376,-0.298588540474556,0.288334477759975
1580421261.28253,-0.940688181887541,-0.243900205996795,0.307866025787746
1580421261.3145,-0.887953002212559,-0.301029983978028,0.405523765926603
1580421261.34647,-0.864515144579233,-0.32300297550927,0.392828259708551
1580421261.37844,-0.900160219729916,-0.317143511100939,0.364507515068283
1580421261.41041,-0.930922407873656,-0.302983138780805,0.362554360265506
1580421261.44238,-0.947035934996567,-0.252689402609294,0.279056992446783
1580421261.47435,-0.959731441214618,-0.221438925764858,0.245365072098878
1580421261.50632,-1.01588464179446,-0.269779507133594,0.273685816739146
1580421261.53829,-0.997817959868772,-0.224368657969023,0.263431754024566
1580421261.57026,-0.974380102235447,-0.270267795834288,0.254154268711375
1580421261.60222,-0.965102616922255,-0.281010147249562,0.284916456855115
1580421261.63419,-1.02760357061112,-0.277103837644008,0.3459525444419
1580421261.66616,-1.0383459220264,-0.208255130846112,0.343511100938429
1580421261.69813,-1.02223239490349,-0.153078507667658,0.329350728618294
1580421261.7301,-1.05348287174792,-0.186282139314869,0.290775921263446
1580421261.76207,-1.12477302204929,-0.275638971541925,0.308842603189134
1580421261.79404,-1.13746852826734,-0.274174105439842,0.340093080033569
1580421261.82601,-1.0720378423743,-0.145265888456549,0.431891355764094
1580421261.85798,-0.856702525368124,-0.362066071564813,0.631113145647365
1580421261.88995,-0.700938429846646,-0.306401159685665,0.765392538338293
1580421261.92191,-0.42896162355993,-0.23657587548638,0.929945830472267
1580421261.95388,-0.193606469825284,-0.214602883955138,1.05983062485695
1580421261.98585,-0.142336156252384,0.272709239337757,0.602304112306403
1580421262.01782,-0.228274967574578,0.00561532005798426,0.43482108796826
1580421262.04979,-0.132570382238498,-0.554451819638361,0.604745555809874
1580421262.08176,-0.241947051194018,-0.766857404440376,0.539803158617534
1580421262.11373,-0.274662394140536,-0.545662623025864,0.450934615091171
1580421262.1457,-0.475349050125887,-0.261478599221791,0.617441062027925
1580421262.17767,-0.737560082398717,0.10424963759823,0.658457312886245
1580421262.20964,-1.00514229037919,0.0944838635843439,0.478767071030745
1580421262.24161,-1.15358205539025,-0.321049820706493,0.39038681620508
1580421262.27374,-1.18043793392843,-0.355718318455787,0.38696879530022
1580421262.30571,-1.17555504692149,-0.113527122911421,0.348882276646066
1580421262.33768,-1.19508659494926,-0.0363775082017241,0.261478599221789
1580421262.36965,-1.20485236896315,-0.122316319523918,0.11450370031281
1580421262.40162,-1.12526131074998,0.0710460059510183,0.174563210498206
1580421262.43358,-1.05055313954376,0.0559090562294955,0.221927214465552
1580421262.46555,-0.966567483024338,-0.0476081483176927,0.198977645532921
1580421262.49752,-0.83570611123827,-0.156496528572518,0.292729076066223
1580421262.52949,-0.737071793698023,-0.439703974975204,-0.240970473792629
1580421262.56146,-1.10963607232776,-0.546639200427252,0.223880369268329
1580421262.59343,-1.16920729381247,-0.10083161669337,0.551522087434197
1580421262.6254,-0.991470206759747,0.435797665369648,0.666269932097354
1580421262.65736,-0.761974517433433,0.0285648889906156,0.838147554741742
1580421262.68933,-0.76392767223621,-0.41528953994049,0.42456702525368
1580421262.7213,-0.908461127641718,-0.655039291981383,0.266361486228732
1580421262.75327,-0.98268101014725,-0.330815594720379,0.343999389639123
1580421262.78524,-1.08278019378958,0.168215457389181,0.137941557946135
1580421262.81721,-0.940688181887541,-0.143312733653772,0.286381322957197
1580421262.84918,-0.88697642481117,-0.395757991912719,0.325932707713434
1580421262.88115,-0.97242694743267,-0.273685816739148,0.280033569848172
1580421262.91311,-0.897718776226444,-0.0856946669718468,0.301029983978026
1580421262.94508,-0.935317006179904,-0.214114595254443,0.374273289082169
1580421262.97705,-0.941176470588236,-0.174074921797512,0.408941786831463
1580421263.00902,-0.911879148546578,-0.230716411078049,0.388921950102997
1580421263.04099,-0.961196307316701,-0.312260624093996,0.33569848172732
1580421263.07296,-0.950453955901427,-0.220950637064163,0.290775921263446
1580421263.10493,-0.983657587548638,-0.203372243839169,0.27417410543984
1580421263.13689,-1.00514229037919,-0.142824444953078,0.234622720683603
1580421263.16886,-1.01734950789654,-0.112550545510032,0.285404745555809
1580421263.20083,-0.996841382467384,-0.171145189593346,0.223880369268329
1580421263.2328,-1.07692072938125,-0.226321812771801,0.199954222934309
1580421263.26477,-1.14821087968261,-0.0642099641412983,0.166750591287098
1580421263.29674,-1.3625696192874,-0.227298390173189,0.0939955748836496
1580421263.32871,-1.36354619668879,-0.234134431982909,0.31519035629816
1580421263.36067,-1.25661097123674,-0.38110933089189,0.468024719615471
1580421263.39264,-0.988540474555581,-0.275638971541925,0.422125581750208
1580421263.42461,-0.588143739986267,-0.0305180437933927,0.803967345693142
1580421263.45658,-0.39819943541619,-0.0578622110322726,0.677500572213322
1580421263.48855,-0.295658808270391,-0.257572289616236,0.874769207293813
1580421263.52052,-0.34009308003357,-0.512458991378653,0.50513466086824
1580421263.55237,-0.23657587548638,-0.572518501564049,0.183840695811398
1580421263.58434,-0.397711146715496,-1.16432440680552,0.203860532539863
1580421263.6163,-0.327397573815519,-1.11793698023957,0.54956893263142
1580421263.64827,-0.327885862516213,-0.648203250171663,0.589608606088351
1580421263.68024,-0.55884641794461,-0.00805676356145568,0.637949187457085
1580421263.71221,-0.940199893186847,0.163820859082932,0.571053635461968
1580421263.74418,-1.04078736552987,-0.158937972075989,0.378667887388417
1580421263.77615,-1.09254596780346,-0.616464484626535,0.351323720149537
1580421263.80812,-0.973891813534753,-0.670664530403601,0.318120088502326
1580421263.84009,-1.0720378423743,-0.491462577248798,0.226810101472495
1580421263.87205,-1.11598382543679,-0.488044556343938,0.218020904859998
1580421263.90402,-1.00611886778058,-1.00709544518196,0.234134431982909
1580421263.93599,-0.957289997711147,-0.579354543373769,0.447028305485617
1580421263.96796,-1.07350270847639,-0.0925307087815668,0.414801251239794
1580421263.99993,-0.98609903105211,-0.0231937132829785,0.489509422446019
1580421264.0319,-0.865491721980622,-0.0559090562294955,0.589120317387657
1580421264.06386,-0.973891813534753,-0.149172198062104,0.491950865949491
1580421264.09583,-0.718028534370946,-0.220950637064163,0.283451590753032
1580421264.1278,-1.29860379949645,-0.281498435950256,0.265384908827343
1580421264.15977,-0.927504386968796,0.00610360875867855,0.895765621423667
1580421264.19174,-0.86646829938201,-0.210208285648889,0.422613870450903
1580421264.22371,-0.773205157549402,-0.371343556878005,0.560311284046694
1580421264.25568,-0.819104295414665,-0.506111238269627,0.398687724116883
1580421264.28764,-0.944594491493095,-0.194094758525978,0.369390402075226
1580421264.31961,-0.943129625391013,-0.136964980544747,0.586190585183491
1580421264.35158,-0.877210650797284,-0.268314641031511,0.388433661402303
1580421264.38355,-0.879652094300756,-0.54859235523003,0.334233615625237
1580421264.41552,-0.91432059205005,-0.373296711680782,0.2775921263447
1580421264.44749,-0.964126039520867,-0.128175783932249,0.329350728618294
1580421264.47946,-0.933852140077821,-0.192141603723201,0.361577782864117
1580421264.51143,-0.911390859845884,-0.39819943541619,0.42456702525368
1580421264.54339,-0.846448462653544,-0.371343556878005,0.45532921339742
1580421264.57536,-0.88697642481117,-0.252201113908599,0.46216525520714
1580421264.60733,-0.86646829938201,-0.338628213931488,0.453864347295337
1580421264.6393,-0.892347600518807,-0.263431754024568,0.408453498130768
1580421264.67127,-0.87672236209659,-0.360112916762036,0.40405889982452
1580421264.70324,-0.887953002212559,-0.331792172121768,0.429938200961317
1580421264.73521,-0.91773861295491,-0.270267795834288,0.433356221866177
1580421264.76717,-0.978286411841001,-0.281986724650951,0.406012054627297
1580421264.79914,-0.981216144045167,-0.251224536507211,0.323002975509269
1580421264.83127,-1.00074769207294,-0.259525444419014,0.307866025787746
1580421264.86324,-1.03981078812848,-0.206301976043335,0.289799343862057
1580421264.89521,-1.12037842374304,-0.158937972075989,0.233646143282215
1580421264.92718,-1.19996948195621,-0.113527122911421,0.179446097505149
1580421264.95914,-1.30055695429923,-0.132570382238498,0.127199206530861
1580421264.99111,-1.21217669947356,-0.0881361104753182,0.283451590753032
1580421265.02308,-0.955825131609064,-0.277103837644008,0.625741969939728
1580421265.05505,-0.892835889219501,-0.471442740520333,0.503669794766157
1580421265.08702,-0.599862668802929,-0.221927214465552,0.675547417410545
1580421265.11899,-0.275150682841231,-0.331792172121768,1.27370107576104
1580421265.15096,-0.23315785458152,0.129152361333638,0.702891584649425
1580421265.18293,-0.0856946669718468,0.190676737621118,0.507087815671017
1580421265.2149,-0.119386587319752,-0.31958495460441,0.709727626459145
1580421265.24687,-0.112550545510032,-0.337651636530099,0.636972610055697
1580421265.27883,-0.197024490730143,-0.241458762493323,0.494880598153657
1580421265.3108,-0.371343556878005,-0.287846189059282,0.649179827573054
1580421265.34277,-0.482673380636301,-0.250736247806516,0.707286182955674
1580421265.37474,-1.03981078812848,-0.00268558785381856,0.481696803234911
1580421265.40671,-1.15162890058747,-0.277103837644008,0.611581597619594
1580421265.43868,-1.27174792095827,-0.505622949568933,0.466559853513388
1580421265.47065,-1.25465781643397,-0.377203021286336,0.399176012817577
1580421265.50262,-1.23366140230411,-0.215091172655832,0.428473334859234
1580421265.53459,-1.10084687571527,-0.260013733119708,0.344487678339817
1580421265.56656,-1.01734950789654,-0.0974135957885096,0.546639200427254
1580421265.59853,-1.05201800564584,0.246341649500266,0.595468070496683
1580421265.63049,-0.993911650263218,0.35278858625162,-0.262943465323874
1580421265.66246,-1.3459678034638,-0.510505836575875,0.286869611657892
1580421265.69443,-1.1403982604715,-0.54859235523003,0.344975967040511
1580421265.7264,-0.732677195391775,-0.280033569848174,0.532967116807814
1580421265.75837,-0.839612420843824,-0.220950637064163,0.52906080720226
1580421265.79034,-0.807385366598002,-0.410894941634242,0.388433661402303
1580421265.82231,-0.870374608987564,-0.552986953536278,0.339604791332874
1580421265.85428,-0.928480964370184,-0.24682993820096,0.269291218432897
1580421265.88625,-0.95533684290837,-0.237064164187075,0.30493629358358
1580421265.91822,-0.905043106736859,-0.388921950102999,0.332768749523154
1580421265.95018,-0.889417868314641,-0.295658808270391,0.327397573815517
1580421265.98215,-0.938735027084764,-0.254154268711376,0.364507515068283
1580421266.01412,-0.92115663385977,-0.31958495460441,0.385992217898831
1580421266.04609,-0.923109788662547,-0.192629892423895,0.3630426489662
1580421266.07806,-0.938735027084764,-0.263920042725262,0.321049820706492
1580421266.10989,-0.941176470588236,-0.353276874952316,0.385503929198137
1580421266.14186,-0.971938658731975,-0.240970473792629,0.368413824673837
1580421266.17383,-0.978774700541695,-0.143801022354467,0.171633478294041
1580421266.2058,-0.982192721446555,-0.290287632562753,0.191653315022506
1580421266.23777,-1.00221255817502,-0.256595712214848,0.213138017853055
1580421266.26974,-0.993911650263218,-0.192141603723201,0.265384908827343
1580421266.30171,-1.00270084687572,-0.188235294117646,0.324467841611352
1580421266.33368,-1.03297474631876,-0.184328984512092,0.402105745021743
1580421266.36565,-1.04420538643473,-0.265384908827345,0.307377737087052
1580421266.39761,-1.01637293049516,-0.274662394140536,0.275638971541923
1580421266.42958,-0.978286411841001,-0.265873197528039,0.422613870450903
1580421266.46155,-0.979751277943084,-0.275638971541925,0.457770656900891
1580421266.49352,-1.0383459220264,-0.189700160219729,0.375249866483557
1580421266.52549,-1.02467383840696,-0.130617227435721,0.423590447852291
1580421266.55746,-0.782970931563288,-0.337163347829405,0.772228580148013
1580421266.58943,-0.764904249637599,-0.272220950637065,0.595956359197377
1580421266.6214,-0.663828488593881,-0.077393759060044,0.709239337758451
1580421266.65337,-0.568612191958495,-0.344975967040513,1.0124666208896
1580421266.68534,-0.447516594186313,-0.151613641565575,0.688731212329291
1580421266.71731,-0.191165026321812,-0.438239108873121,0.606210421911957
1580421266.74927,0.0622568093385212,-0.889417868314641,0.558358129243917
1580421266.78124,-0.0295414663920042,-0.603280689707789,0.583260852979326
1580421266.81321,-0.169192034790569,-0.024170290684367,0.444586861982145
1580421266.84518,-0.502693217364767,0.365484092469671,0.63160143434806
1580421266.87715,-0.562752727550164,0.306401159685663,0.726329442282751
1580421266.90912,-0.939223315785458,0.0129396505683985,0.586190585183491
1580421266.94109,-1.04322880903334,-0.952895399404898,0.610605020218205
1580421266.97306,-1.16090638590066,-0.460212100404364,0.719493400473031
1580421267.00503,-1.29225604638743,0.0246585793850613,0.545662623025866
1580421267.037,-1.13649195086595,-0.363530937666896,0.30493629358358
1580421267.06897,-1.1408865491722,-0.349370565346762,0.495857175555045
1580421267.10093,-0.961196307316701,0.0974135957885096,0.223880369268329
1580421267.1329,-1.07740901808194,0.203372243839169,0.0383306630045013
1580421267.16487,-1.06715495536736,-0.286869611657893,0.408941786831463
1580421267.19684,-1.1745784695201,-0.305912870984971,0.426031891355763
1580421267.22881,-0.768810559243153,-0.325932707713436,0.58716716258488
1580421267.26078,-0.891371023117419,-0.104737926298924,0.2775921263447
1580421267.29275,-0.90064850843061,-0.362554360265507,0.267826352330815
1580421267.32472,-0.908949416342413,-0.36743724727245,0.333257038223849
1580421267.35669,-0.908461127641718,-0.158937972075989,0.306401159685663
1580421267.38876,-0.891371023117419,-0.264408331425956,0.384527351796748
1580421267.42073,-0.901625085831999,-0.529549095902953,0.39380483710994
1580421267.4527,-0.896742198825056,-0.254154268711376,0.344487678339817
1580421267.48467,-0.933852140077821,-0.170168612191958,0.313725490196077
1580421267.51664,-0.895765621423667,-0.32642099641413,0.361577782864117
1580421267.54861,-0.910414282444496,-0.278080415045396,0.320073243305103
1580421267.58058,-0.963149462119478,-0.214114595254443,0.295170519569695
1580421267.61255,-0.997329671168078,-0.281498435950256,0.30835431448844
1580421267.64452,-0.99977111467155,-0.174563210498206,0.237552452887769
1580421267.67648,-1.03199816891737,-0.205813687342641,0.186770428015564
1580421267.70845,-1.02906843671321,-0.238529030289158,0.152101930266269
1580421267.74042,-1.03053330281529,-0.230228122377355,0.25366598001068
1580421267.77239,-1.04957656214237,-0.223392080567635,0.254154268711375
1580421267.80436,-1.11842526894026,-0.157473105973907,0.241458762493323
1580421267.83633,-1.20192263675898,-0.146242465857938,0.232181277180132
1580421267.8683,-1.33815518425269,-0.150148775463492,0.136964980544747
1580421267.90027,-1.42067597467002,-0.170168612191958,0.125246051728084
1580421267.93224,-1.0720378423743,-0.252201113908599,0.528084229800871
1580421267.96421,-0.915785458152133,-0.373296711680782,0.591561760891128
1580421267.99617,-0.544197756923781,-0.295658808270391,0.848889906157016
1580421268.02814,-0.238529030289158,-0.39819943541619,1.03541618982223
1580421268.06011,-0.23999389639124,0.293217364766917,0.389410238803691
1580421268.09208,-0.129152361333638,-0.118410009918364,0.638925764858474
1580421268.12405,-0.0397955291065841,-0.52466620889601,0.728770885786222
1580421268.15602,-0.0134279392690928,-0.426520180056459,0.58374914168002
1580421268.18799,-0.203860532539863,-0.314702067597468,0.484138246738382
1580421268.21996,-0.393316548409247,-0.137453269245441,0.591561760891128
1580421268.25193,-0.528572518501564,-0.0988784618905925,0.608163576714734
1580421268.2839,-0.826916914625773,0.0363775082017241,0.528084229800871
1580421268.31587,-1.15846494239719,-0.0749523155565726,0.442145418478674
1580421268.34783,-1.27565423056382,-0.461676966506447,0.387945372701608
1580421268.3798,-1.24879835202563,-0.601815823605707,0.33569848172732
1580421268.41177,-1.27272449835966,-0.135011825741969,0.37329671168078
1580421268.44374,-1.20631723506523,-0.171633478294041,0.211184863050278
1580421268.47571,-1.05983062485695,-0.127199206530861,0.458258945601585
1580421268.50768,-1.05006485084306,-0.00268558785381856,0.425055313954374
1580421268.53965,-1.09987029831388,0.0407721065079727,-0.204348821240558
1580421268.57162,-1.15407034409094,-0.331303883421073,0.622812237735562
1580421268.60359,-1.23659113450828,-0.467048142214084,0.424078736552985
1580421268.63556,-0.824963759822996,-0.264408331425956,0.57349507896544
1580421268.66748,-0.77759975585565,-0.0954604409857325,0.576424811169606
1580421268.69945,-0.887464713511864,-0.377203021286336,0.432379644464788
1580421268.73142,-0.867933165484093,-0.611581597619592,0.245853360799572
1580421268.76339,-0.923109788662547,-0.440192263675899,0.310795757991912
1580421268.79536,-0.97926298924239,-0.060303654535744,0.238040741588463
1580421268.82732,-0.937758449683376,-0.295658808270391,0.341557946135651
1580421268.85929,-0.877698939497979,-0.345952544441902,0.382085908293277
1580421268.89126,-0.87672236209659,-0.247806515602349,0.365484092469671
1580421268.92323,-0.848401617456322,-0.320073243305105,0.419195849546043
1580421268.9552,-0.882581826504921,-0.266361486228734,0.392339971007857
1580421268.98717,-0.899183642328527,-0.277592126344702,0.34937056534676
1580421269.01914,-0.985122453650721,-0.279545281147479,0.3801327534905
1580421269.05111,-0.980727855344472,-0.254642557412071,0.310795757991912
1580421269.08308,-1.01393148699168,-0.267826352330816,0.252201113908598
1580421269.11505,-1.02906843671321,-0.298588540474556,0.170656900892652
1580421269.14702,-1.01734950789654,-0.23657587548638,0.239017318989852
1580421269.17898,-1.02516212710765,-0.202395666437781,0.323002975509269
1580421269.21095,-1.04567025253681,-0.189211871519035,0.26392004272526
1580421269.24292,-1.1403982604715,-0.175051499198901,0.224368657969023
1580421269.27489,-1.13600366216525,-0.237552452887769,0.254154268711375
1580421269.30686,-1.15407034409094,-0.248783093003738,0.379156176089111
1580421269.33883,-1.17360189211871,-0.225345235370412,0.52222476539254
1580421269.3708,-1.0554360265507,-0.438727397573816,0.598886091401543
1580421269.40277,-0.816662851911193,-0.385015640497445,0.544197756923783
1580421269.43474,-0.463630121309224,-0.207766842145418,0.786388952468148
1580421269.46671,-0.102784771496147,-0.180910963607232,0.877210650797284
1580421269.49868,-0.213626306553749,-0.315190356298162,1.01002517738613
1580421269.53064,-0.166750591287098,-0.0388189517051956,0.715098802166782
1580421269.56261,0.0393072404058898,0.0212405584802013,0.337163347829403
1580421269.59458,-0.0754406042572668,-0.48023193713283,0.53931486991684
1580421269.62655,-0.344975967040513,-0.438239108873121,0.809338521400779
1580421269.65852,-0.228763256275272,-0.0651865415426869,0.454840924696725
1580421269.69049,-0.704356450751506,0.0559090562294955,0.565682459754331
1580421269.72246,-0.976821545738918,0.158937972075989,0.595956359197377
1580421269.75443,-1.20192263675898,-0.041260395208667,0.423102159151597
1580421269.7864,-1.30983443961242,-0.331792172121768,0.418219272144654
1580421269.81837,-1.34157320515755,-0.165285725185015,0.355718318455786
1580421269.85034,-1.26247043564508,-0.239017318989852,0.287357900358586
1580421269.8823,-1.16481269550622,-0.429449912260624,0.189211871519035
1580421269.91427,-1.05006485084306,-0.184328984512092,0.343022812237734
1580421269.94626,-0.993423361562524,-0.171145189593346,0.498786907759211
1580421269.97823,-1.19850461585412,-0.00317387655451284,-0.303471427481499
1580421270.0102,-0.887464713511864,-0.149172198062104,0.678965438315405
1580421270.04217,-1.49587243457694,-0.205325398641946,0.483649958037688
1580421270.07413,-0.884046692607004,-0.228274967574578,0.615487907225148
1580421270.1061,-0.698985275043869,0.00170901045242999,0.439215686274508
1580421270.13807,-0.816662851911193,-0.457282368200199,0.256107423514152
1580421270.17004,-0.924086366063936,-0.697520408941786,0.258060578316929
1580421270.20201,-0.943129625391013,-0.138429846646829,0.314213778896772
1580421270.23398,-0.966079194323644,0.0417486839093613,0.31860837720302
1580421270.26595,-0.881116960402839,-0.448981460288396,0.314702067597466
1580421270.29792,-0.884534981307699,-0.505622949568933,0.385015640497443
1580421270.32989,-0.909925993743801,-0.155031662470435,0.406988632028686
1580421270.36186,-0.916762035553521,-0.185305561913481,0.330327306019683
1580421270.39382,-0.91773861295491,-0.390875104905776,0.371831845578697
1580421270.42579,-0.888441290913253,-0.294193942168308,0.422125581750208
1580421270.45776,-0.90064850843061,-0.231692988479438,0.366948958571754
1580421270.48973,-0.925062943465324,-0.357671473258565,0.3972228580148
1580421270.5217,-0.940199893186847,-0.335210193026628,0.292729076066223
1580421270.55367,-0.997329671168078,-0.120851453421835,0.177981231403066
1580421270.58564,-1.05787747005417,-0.140383001449607,0.151125352864881
1580421270.61761,-1.06080720225834,-0.0983901731898982,0.206790264744029
1580421270.64958,-1.0554360265507,-0.213138017853055,0.184328984512092
1580421270.68155,-1.0554360265507,-0.0993667505912867,0.143312733653772
1580421270.71352,-1.16823071641108,-0.156008239871824,0.245853360799572
1580421270.74548,-1.19655146105135,-0.224368657969023,0.275638971541923
1580421270.77745,-1.3547570000763,-0.130617227435721,0.264896620126649
1580421270.80942,-1.35719844357977,-0.178957808804455,0.474372472724497
1580421270.84139,-1.18092622262913,-0.247318226901655,0.468024719615471
1580421270.87336,-0.91773861295491,-0.154055085069047,0.595468070496683
1580421270.90533,-0.53833829251545,-0.172610055695429,0.76392767223621
1580421270.9373,-0.169192034790569,-0.312260624093996,0.969985503929198
1580421270.96927,-0.0495613031204698,-0.453864347295339,0.668223086900131
1580421271.00124,-0.096437018387121,-0.319096665903716,0.29126420996414
1580421271.03321,-0.0231937132829785,-0.710215915159838,0.446051728084228
1580421271.06518,-0.142336156252384,-0.847913328755627,0.658457312886245
1580421271.09714,-0.160891126878766,-0.437750820172427,0.51538872358282
1580421271.12911,-0.413336385137713,-0.171145189593346,0.558358129243917
1580421271.16108,-0.664316777294575,-0.234134431982909,0.76734569314107
1580421271.19305,-0.967055771725033,-0.159426260776684,0.508064393072406
1580421271.22513,-1.09938200961318,-0.255619134813459,0.468024719615471
1580421271.2571,-1.14235141527428,-0.24682993820096,0.53931486991684
1580421271.28907,-1.19655146105135,0.0466315709163041,0.303959716182192
1580421271.32104,-1.22438391699092,-0.308354314488442,0.201419089036392
1580421271.35301,-1.07887388418402,-0.518806744487678,0.12475776302739
1580421271.38498,-1.1921568627451,-0.253177691309988,0.221927214465552
1580421271.41694,-1.19752803845273,-0.175539787899595,0.112550545510032
1580421271.44892,-0.997329671168078,-0.214602883955138,0.269291218432897
1580421271.48088,-1.08815136949721,-0.382574196993973,0.377203021286334
1580421271.51285,-0.833752956435493,-0.291752498664836,0.523689631494623
1580421271.54482,-1.06227206836042,-0.625253681239032,0.249759670405126
1580421271.57679,-1.08863965819791,-0.0393072404058898,0.793224994277868
1580421271.60876,-0.7048447394522,0.483161669336994,1.13844510566873
1580421271.64073,-0.878675516899367,0.129152361333638,0.454840924696725
1580421271.6727,-0.791760128175785,-0.976333257038224,0.188723582818341
1580421271.70467,-0.915297169451438,-0.531990539406424,0.233646143282215
1580421271.73664,-1.04469367513542,0.139406424048218,0.291752498664835
1580421271.76861,-0.947035934996567,-0.253177691309988,0.368413824673837
1580421271.80058,-0.91090257114519,-0.323979552910659,0.384527351796748
1580421271.83255,-0.92799267566949,-0.0817883573662925,0.382085908293277
1580421271.86452,-0.929945830472267,-0.195071335927366,0.341069657434957
1580421271.89649,-0.857190814068819,-0.314702067597468,0.324467841611352
1580421271.92846,-0.916273746852827,-0.216556038757915,0.337163347829403
1580421271.96043,-0.933852140077821,-0.291752498664836,0.428473334859234
1580421271.9924,-0.90406652933547,-0.322026398107882,0.454352635996031
1580421272.02437,-0.878675516899367,-0.234622720683603,0.460700389105057
1580421272.05634,-0.879163805600061,-0.290287632562753,0.468513008316165
1580421272.08831,-0.898207064927139,-0.264408331425956,0.468513008316165
1580421272.12028,-0.847425040054933,-0.209719996948195,0.507576104371712
1580421272.15225,-0.865003433279927,-0.328862439917602,0.465583276112
1580421272.18421,-0.942641336690318,-0.254154268711376,0.420660715648125
1580421272.21618,-1.00709544518196,-0.109132524605172,0.367437247272449
1580421272.24815,-1.05690089265278,-0.181887541008621,0.298588540474555
1580421272.28012,-1.13502708476387,-0.273197528038454,0.24682993820096
1580421272.31209,-1.25612268253605,-0.158449683375295,0.210696574349583
1580421272.34406,-1.20338750286107,-0.166750591287098,0.33228046082246
1580421272.37603,-1.22975509269856,-0.177004654001678,0.319584954604409
1580421272.408,-1.2771190966659,-0.32983901731899,0.133058670939192
1580421272.43997,-0.99635309376669,-0.40845349813077,0.60425726710918
1580421272.47194,-0.664316777294575,-0.51099412527657,0.88355840390631
1580421272.50391,-0.265384908827345,-0.252201113908599,0.905043106736859
1580421272.53587,-0.239017318989852,0.355230029755091,0.364507515068283
1580421272.56784,-0.325932707713436,-0.284428168154422,0.376226443884946
1580421272.59981,-0.247318226901655,-1.07594415197986,0.23657587548638
1580421272.63178,-0.0539559014267184,-1.54421301594568,0.445563439383534
1580421272.66375,-0.281498435950256,-0.845471885252156,0.446051728084228
1580421272.69572,-0.357671473258565,0.102296482795452,0.656015869382774
1580421272.72769,-0.836194399938964,0.6281834134432,0.665293354695965
1580421272.75966,-0.910414282444496,-0.00366216525520713,0.505622949568934
1580421272.79163,-1.12037842374304,-0.854261081864653,0.171145189593346
1580421272.8236,-1.07985046158541,-0.662851911192492,0.510994125276572
1580421272.85557,-1.12281986724651,0.0202639810788128,0.528084229800871
1580421272.88754,-1.0637369344625,-0.362066071564813,0.378667887388417
1580421272.91951,-1.06227206836042,-0.589120317387655,0.367437247272449
1580421272.95148,-1.18483253223468,0.130128938735027,0.394781414511328
1580421272.98345,-1.21559472037842,0.170656900892652,0.581307698176548
1580421273.01542,-0.88355840390631,0.132570382238498,0.305424582284274
1580421273.04739,-1.19362172884718,-0.232669565880826,0.00317387655451284
1580421273.07936,-0.896253910124361,-0.410406652933547,0.528572518501566
1580421273.11133,-0.800061036087587,-0.309330891889831,0.406500343327991
1580421273.1433,-0.778576333257039,-0.260013733119708,0.684336614023042
1580421273.17527,-0.786877241168842,-0.175051499198901,0.63843747615778
1580421273.20724,-0.80836194399939,-0.509040970473793,0.538826581216146
1580421273.2392,-0.865980010681316,-0.549568932631418,0.427008468757151
1580421273.27117,-0.877210650797284,-0.286869611657893,0.388921950102997
1580421273.30314,-0.923109788662547,-0.372320134279393,0.43823910887312
1580421273.33511,-0.851331349660487,-0.341069657434959,0.415289539940488
1580421273.36708,-0.860608834973679,-0.241947051194018,0.408941786831463
1580421273.39905,-0.879652094300756,-0.308842603189136,0.368413824673837
1580421273.43102,-0.888441290913253,-0.284428168154422,0.35620660715648
1580421273.46299,-0.961684596017395,-0.179934386205844,0.293705653467612
1580421273.49496,-0.986587319752804,-0.229739833676661,0.256107423514152
1580421273.52693,-1.01100175478752,-0.252689402609294,0.308842603189134
1580421273.5589,-1.05250629434653,-0.261966887922485,0.239017318989852
1580421273.59087,-1.08131532768749,-0.259037155718319,0.113527122911421
1580421273.62284,-1.09547570000763,-0.185305561913481,0.166262302586404
1580421273.65481,-1.09889372091249,-0.227786678873883,0.217532616159303
1580421273.68678,-1.11012436102846,-0.253177691309988,0.297611963073166
1580421273.71875,-1.14479285877775,-0.0183108262760356,0.331303883421072
1580421273.75072,-1.24538033112077,-0.0222171358815899,0.214602883955138
1580421273.78305,-1.28395513847562,-0.177004654001678,0.183352407110704
1580421273.81502,-1.44753185320821,-0.201419089036392,0.0959487296864268
1580421273.84699,-1.32643625543603,-0.366460669871062,0.11450370031281
1580421273.87896,-1.25319295033188,-0.417242694743267,0.394781414511328
1580421273.91093,-0.706797894254978,-0.154543373769741,0.753185320820936
1580421273.9429,-0.060303654535744,-0.276615548943314,1.30104524299992
1580421273.97487,-0.00561532005798426,0.435797665369648,0.604745555809874
1580421274.00684,0.037842374303807,0.198001068131532,0.480231937132828
1580421274.03881,0.127687495231555,-0.413336385137713,0.683848325322348
1580421274.07078,0.137941557946135,-0.38110933089189,0.582772564278631
1580421274.10275,-0.132082093537804,-0.322026398107882,0.487556267643242
1580421274.13471,-0.484138246738384,-0.0046387426565957,0.644296940566111
1580421274.16668,-1.03346303501946,0.326420996414129,0.708262760357062
1580421274.19865,-1.21315327687495,-0.163820859082932,0.688731212329291
1580421274.23062,-1.26295872434577,-1.10133516441596,0.461188677805751
1580421274.26259,-1.27907225146868,-0.452399481193256,0.439703974975203
1580421274.29456,-1.30104524299992,-0.0539559014267184,0.334233615625237
1580421274.32653,-1.15211718928817,-0.314213778896773,0.469489585717554
1580421274.3585,-0.806897077897307,0.222415503166246,0.486091401541159
1580421274.39047,-1.25563439383536,0.318120088502326,0.128175783932249
1580421274.42244,-1.35622186617838,-0.532967116807813,0.6110933089189
1580421274.45441,-0.889417868314641,-0.494880598153658,0.472907606622414
1580421274.48638,-0.732677195391775,-0.112550545510032,0.569100480659191
1580421274.51835,-0.792736705577173,-0.466071564812696,0.478767071030745
1580421274.55032,-0.912367437247273,-0.417730983443962,0.258548867017623
1580421274.58229,-0.91432059205005,-0.419684138246739,0.339604791332874
1580421274.61426,-0.935805294880598,-0.187258716716258,0.312748912794689
1580421274.64623,-0.900160219729916,-0.342046234836348,0.381597619592583
1580421274.6782,-0.865980010681316,-0.319096665903716,0.407965209430074
1580421274.71017,-0.927016098268101,-0.230716411078049,0.324467841611352
1580421274.74214,-0.923109788662547,-0.330327306019685,0.313725490196077
1580421274.77411,-0.90748455024033,-0.256595712214848,0.38355077439536
1580421274.80608,-0.94166475928893,-0.262943465323874,0.401617456321048
1580421274.83804,-0.983169298847944,-0.229739833676661,0.341557946135651
1580421274.87001,-0.98951705195697,-0.263431754024568,0.260990310521095
1580421274.90198,-0.997329671168078,-0.233646143282215,0.228763256275272
1580421274.93395,-1.04567025253681,-0.272709239337759,0.261478599221789
1580421274.96592,-1.03199816891737,-0.236087586785686,0.360112916762034
1580421274.99789,-1.05934233615625,-0.113038834210727,0.235599298084992
1580421275.02986,-1.13990997177081,-0.185305561913481,0.23315785458152
1580421275.06161,-1.22194247348745,-0.203372243839169,0.131593804837109
1580421275.09359,-1.30885786221103,-0.205325398641946,0.118898298619058
1580421275.12556,-1.31667048142214,-0.293217364766919,0.227786678873883
1580421275.15752,-1.25709925993744,-0.217044327458609,0.405035477225908
1580421275.18949,-0.999282825970855,-0.455329213397421,0.559334706645306
1580421275.22146,-0.604257267109178,-0.313237201495385,0.743907835507745
1580421275.25343,-0.0588387884336612,-0.156008239871824,1.09108110170138
1580421275.2854,-0.250247959105822,-0.063721675440604,0.973891813534753
1580421275.31737,-0.0852063782711525,0.253177691309986,0.466071564812694
1580421275.34934,0.114015411612115,-0.140871290150301,0.568123903257803
1580421275.38131,-0.0788586251621268,-0.277103837644008,0.793224994277868
1580421275.41329,-0.0646982528419926,-0.099855039291981,0.546639200427254
1580421275.44526,-0.330815594720379,-0.218509193560692,0.414801251239794
1580421275.47722,-0.667734798199435,-0.259525444419014,0.684824902723737
1580421275.50919,-1.11598382543679,0.172121766994735,0.522713054093234
1580421275.54116,-1.26295872434577,-0.0383306630045013,0.560311284046694
1580421275.57313,-1.32448310063325,-0.675547417410543,0.651132982375831
1580421275.6051,-1.26198214694438,-0.608651865415426,0.359136339360646
1580421275.63707,-1.22975509269856,-0.236087586785686,0.450446326390477
1580421275.66904,-1.04469367513542,-0.273197528038454,0.495368886854351
1580421275.70101,-0.6877546349279,-0.120363164721141,0.360112916762034
1580421275.73299,-1.1579766536965,0.0192874036774242,-0.153566796368352
1580421275.76496,-0.92115663385977,-0.330815594720379,0.848401617456322
1580421275.79692,-1.51979858091096,-0.210208285648889,0.225345235370412
1580421275.82889,-0.700938429846646,-0.0324711985961699,0.702403295948731
1580421275.86086,-0.792736705577173,-0.296635385671779,0.413824673838405
1580421275.89283,-0.803479056992447,-0.756603341725796,0.283939879453726
1580421275.9248,-0.865980010681316,-0.621835660334172,0.356694895857174
1580421275.95677,-0.929945830472267,-0.00805676356145568,0.366948958571754
1580421275.98874,-0.961196307316701,-0.0358892195010299,0.313237201495383
1580421276.02071,-0.906507972838941,-0.388921950102999,0.284916456855115
1580421276.05269,-0.987075608453498,-0.352788586251622,0.264408331425955
1580421276.08466,-1.00318913557641,-0.156984817273212,0.291752498664835
1580421276.11662,-0.935805294880598,-0.251712825207905,0.34937056534676
1580421276.14859,-0.977798123140307,-0.345952544441902,0.350835431448843
1580421276.18056,-0.969985503929198,-0.257084000915542,0.317143511100937
1580421276.21253,-1.03541618982223,-0.184817273212786,0.221927214465552
1580421276.24451,-1.0041657129778,-0.193606469825284,0.254642557412069
1580421276.27648,-1.00904859998474,-0.206301976043335,0.29810025177386
1580421276.30845,-1.02516212710765,-0.255130846112765,0.36646066987106
1580421276.34051,-1.05690089265278,-0.200442511635003,0.326420996414129
1580421276.37248,-1.13698023956664,-0.199465934233615,0.302983138780803
1580421276.40446,-1.19069199664301,-0.286381322957199,0.219974059662775
1580421276.43643,-1.39089036392767,-0.273685816739148,0.117433432516975
1580421276.4684,-1.38454261081865,-0.163820859082932,0.244388494697489
1580421276.50037,-1.20973525597009,-0.43579766536965,0.476325627527274
1580421276.53234,-0.837659266041047,-0.31958495460441,0.573983367666134
1580421276.56431,-0.280033569848174,-0.193118181124589,0.987075608453498
1580421276.59628,-0.0783703364614325,-0.430426489662013,1.01588464179446
1580421276.62825,-0.134035248340581,-0.0285648889906156,0.764904249637599
1580421276.66022,0.131105516136415,0.100343327992675,0.436774242771037
1580421276.69219,0.0686045624475469,-0.221927214465552,0.64185549706264
1580421276.72416,-0.133546959639887,-0.138429846646829,0.733653772793165
1580421276.75613,-0.263920042725262,-0.0725108720531011,0.451422903791865
1580421276.7881,-0.502204928664073,-0.156496528572518,0.494392309452962
1580421276.82007,-0.885023270008393,-0.0700694285496297,0.664805065995271
1580421276.85204,-1.21803616388189,0.109620813305867,0.440192263675897
1580421276.88401,-1.42067597467002,-0.351323720149539,0.474372472724497
1580421276.91598,-1.22145418478675,-0.695567254139009,0.385015640497443
1580421276.94795,-1.26784161135271,-0.321049820706493,0.266849774929426
1580421276.97992,-1.17946135652705,-0.127199206530861,0.289311055161363
1580421277.01189,-1.12916762035553,-0.181887541008621,0.434332799267565
1580421277.04387,-0.99977111467155,-0.114991989013504,-0.0075684748607614
1580421277.07584,-1.14723430228122,0.0456549935149155,0.39380483710994
1580421277.10781,-1.27418936446174,-0.396734569314107,0.896742198825056
1580421277.13978,-0.474372472724498,-0.260990310521096,0.849866483558404
1580421277.17175,-0.741954680704966,-0.420660715648127,0.570565346761274
1580421277.20372,-0.762951094834822,-0.7048447394522,0.504158083466852
1580421277.23569,-0.875257495994507,-0.56910048065919,0.449469748989088
1580421277.26766,-0.901625085831999,-0.200442511635003,0.370366979476614
1580421277.29963,-0.895765621423667,-0.299076829175251,0.3459525444419
1580421277.3316,-0.915785458152133,-0.270756084534982,0.329839017318989
1580421277.36357,-0.908461127641718,-0.148683909361409,0.255130846112763
1580421277.39554,-0.929457541771573,-0.238529030289158,0.2605020218204
1580421277.42751,-0.922621499961853,-0.317143511100939,0.315678644998854
1580421277.45948,-0.973891813534753,-0.23657587548638,0.38355077439536
1580421277.49145,-1.03736934462501,-0.130128938735027,0.231692988479438
1580421277.52342,-1.04957656214237,-0.180910963607232,0.133058670939192
1580421277.55539,-1.00807202258335,-0.224856946669718,0.151125352864881
1580421277.58736,-1.0383459220264,-0.179934386205844,0.169192034790569
1580421277.61911,-1.04615854123751,-0.148195620660715,0.172610055695429
1580421277.65108,-1.03736934462501,-0.235111009384298,0.266849774929426
1580421277.68305,-1.08863965819791,-0.208743419546806,0.33569848172732
1580421277.71502,-1.20729381246662,-0.170656900892652,0.285893034256503
1580421277.74698,-1.23268482490272,-0.245365072098878,0.285404745555809
1580421277.77895,-1.225848783093,-0.158937972075989,0.357671473258563
1580421277.81092,-1.17067215991455,-0.325932707713436,0.567635614557108
1580421277.84289,-1.04811169604028,-0.354741741054399,0.548104066529337
1580421277.87486,-0.653086137178606,-0.157473105973907,0.705333028152896
1580421277.90683,-0.0397955291065841,-0.140871290150301,0.885999847409781
1580421277.9388,-0.225345235370412,-0.573983367666132,1.02760357061112
1580421277.97076,0.0300297550926985,-0.141359578850995,0.479743648432134
1580421278.00273,0.341557946135651,-0.255130846112765,0.250736247806515
1580421278.0347,-0.0871595330739297,-0.622812237735561,0.607186999313345
1580421278.06667,-0.214602883955138,-0.410894941634242,0.753185320820936
1580421278.09864,-0.297123674372473,0.0617685206378269,0.304448004882886
1580421278.13061,-1.09596398870832,0.56665903715572,0.673105973907074
1580421278.16258,-1.23414969100481,0.593514915693905,0.802990768291753
1580421278.19454,-1.71071946288243,0.492927443350879,0.232669565880826
1580421278.22651,-1.45387960631724,-1.17067215991455,-0.129152361333638
1580421278.25848,-0.87672236209659,-1.45973907072557,0.472907606622414
1580421278.29045,-1.1237964446479,-0.489021133745327,0.240482185091935
1580421278.32242,-1.04420538643473,-0.218509193560692,0.450934615091171
1580421278.35439,-0.912855725947967,-0.370366979476616,0.787365529869536
1580421278.38636,-1.11451895933471,-0.401129167620356,-0.0778820477607383
1580421278.41832,-1.11451895933471,-0.0695811398489354,1.49880216678111
1580421278.45029,-0.72877088578622,0.467536430914777,0.281498435950255
1580421278.48226,-0.823498893720913,-0.283939879453728,0.582284275577937
1580421278.51423,-0.755138475623713,-0.927504386968796,0.345464255741206
1580421278.5462,-0.98951705195697,-0.327397573815519,0.378667887388417
1580421278.57817,-1.05690089265278,0.199465934233615,0.236087586785686
1580421278.61014,-0.974868390936141,-0.163332570382238,0.284916456855115
1580421278.6421,-0.988540474555581,-0.354741741054399,0.321538109407186
1580421278.67407,-1.01979095140002,-0.077393759060044,0.203860532539863
1580421278.70604,-0.890882734416724,-0.100343327992675,0.346440833142594
1580421278.73801,-0.869398031586176,-0.224368657969023,0.451422903791865
1580421278.76998,-0.90064850843061,-0.211673151750972,0.432867933165483
1580421278.80195,-0.906507972838941,-0.281010147249562,0.413824673838405
1580421278.83392,-0.920668345159076,-0.241458762493323,0.395269703212023
1580421278.86589,-0.964126039520867,-0.135988403143358,0.375249866483557
1580421278.8977,-1.02760357061112,-0.00170901045242999,0.250736247806515
1580421278.92967,-1.0720378423743,-0.0988784618905925,0.261478599221789
1580421278.96164,-1.05641260395209,-0.224368657969023,0.226810101472495
1580421278.99361,-1.14576943617914,-0.150148775463492,0.0471198596169984
1580421279.02558,-1.30055695429923,-0.12475776302739,0.0891126878767068
1580421279.05755,-1.40993362325475,-0.185305561913481,0.157961394674601
1580421279.08952,-1.38210116731518,-0.104737926298924,0.194094758525978
1580421279.12148,-1.08863965819791,-0.215091172655832,0.775158312352179
1580421279.15345,-0.813244831006333,-0.376714732585642,0.681406881818877
1580421279.18542,-0.590096894789044,-0.121828030823224,0.810315098802167
1580421279.21739,-0.317631799801633,-0.338628213931488,0.76734569314107
1580421279.24936,-0.407476920729382,-0.522224765392538,0.495857175555045
1580421279.28133,-0.497810330357824,-0.854261081864653,0.0695811398489354
1580421279.3133,-0.188723582818341,-2.08181887541009,-0.209231708247501
1580421279.34526,-0.10766765850309,-1.5764400701915,0.677988860914017
1580421279.37723,-0.11108567940795,-0.748790722514686,0.430426489662011
1580421279.4092,-0.284916456855116,0.406988632028686,0.551033798733503
1580421279.44117,-0.959243152513924,0.250736247806515,0.787365529869536
1580421279.47314,-0.770275425345236,-0.251712825207905,0.318120088502326
1580421279.50511,-1.06715495536736,-0.926039520866713,0.226321812771801
1580421279.53708,-0.837170977340353,-1.01930266269932,0.551033798733503
1580421279.56904,-0.952895399404898,-0.496345464255741,0.30151827267872
1580421279.60101,-1.12672617685206,-0.77759975585565,0.516853589684903
1580421279.63298,-1.02272068360418,-0.675059128709849,0.32544441901274
1580421279.66495,-1.11305409323262,-0.0349126420996413,0.567147325856414
1580421279.69692,-0.981704432745861,-0.122804608224612,0.427496757457845
1580421279.72889,-0.977309834439613,-0.319096665903716,0.506111238269629
1580421279.76086,-0.913344014648661,0.118898298619058,0.536385137712674
1580421279.79282,-1.14576943617914,-0.127687495231555,0.539803158617534
1580421279.82479,-1.40212100404364,0.28784618905928,-0.156008239871824
1580421279.85676,-1.27077134355688,-0.156008239871824,0.571053635461968
1580421279.88873,-1.22389562829023,-0.131105516136415,0.32544441901274
1580421279.9207,-0.624765392538338,-0.309819180590525,0.820080872816053
1580421279.95267,-0.750255588616771,-0.402594033722439,0.349858854047454
1580421279.98464,-0.922133211261158,-0.440192263675899,0.37329671168078
1580421280.0166,-0.876234073395896,-0.341557946135653,0.44165712977798
1580421280.04857,-0.927016098268101,-0.0681162737468526,0.439215686274508
1580421280.08054,-0.864515144579233,-0.38794537270161,0.341557946135651
1580421280.11251,-0.867933165484093,-0.535896849011978,0.347905699244677
1580421280.14448,-0.992446784161135,-0.167727168688486,0.296635385671777
1580421280.17667,-0.980239566643778,0.0231937132829785,0.330327306019683
1580421280.20863,-0.912367437247273,-0.489021133745327,0.405035477225908
1580421280.2406,-0.93141069657435,-0.392828259708553,0.420660715648125
1580421280.27257,-0.912855725947967,-0.115968566414892,0.343999389639123
1580421280.30454,-0.922133211261158,-0.343022812237736,0.379156176089111
1580421280.33651,-0.981216144045167,-0.332768749523156,0.283451590753032
1580421280.36848,-1.06178377965972,-0.172121766994735,0.232181277180132
1580421280.40045,-1.08522163729305,-0.207278553444723,0.274662394140535
1580421280.43242,-1.14479285877775,-0.156984817273212,0.316655222400243
1580421280.46439,-1.14235141527428,-0.080811779964904,0.3630426489662
1580421280.49636,-1.17848477912566,-0.0905775539787896,0.28442816815442
1580421280.52833,-1.28542000457771,-0.241458762493323,0.120851453421835
1580421280.5603,-1.33327229724575,-0.110109102006561,0.0363775082017241
1580421280.59227,-1.37526512550546,-0.245365072098878,0.127687495231555
1580421280.62424,-1.31422903791867,-0.375738155184253,0.131593804837109
1580421280.65621,-0.828381780727856,-0.189211871519035,0.82203402761883
1580421280.68818,-0.187258716716258,-0.343022812237736,1.09840543221179
1580421280.72015,-0.0402838178072784,0.264896620126649,0.683848325322348
1580421280.75212,-0.0583504997329669,-0.0510261692225527,0.592538338292517
1580421280.78409,0.00805676356145568,-0.38110933089189,0.654551003280691
1580421280.81606,-0.0207522697795071,-0.292240787365531,0.633554589150837
1580421280.84803,-0.219485770962081,-0.181887541008621,0.488044556343937
1580421280.88,-0.380132753490502,-0.177492942702372,0.652597848477914
1580421280.91196,-0.611093308918898,0.168215457389181,0.615976195925843
1580421280.94393,-1.10963607232776,0.34253452353704,0.497810330357822
1580421280.9759,-1.2859082932784,-0.365972381170367,0.808850232700085
1580421281.00787,-1.23659113450828,-0.888929579613947,0.365972381170366
1580421281.03984,-1.3718471046006,-0.258548867017625,0.573006790264746
1580421281.07181,-1.15553521019303,-0.343022812237736,0.323002975509269
1580421281.10378,-1.43727779049363,-0.210696574349583,0.295658808270389
1580421281.13575,-1.46755168993668,0.499275196459905,-0.482673380636301
1580421281.16772,-1.16823071641108,-0.166262302586404,0.449469748989088
1580421281.19969,-0.867444876783399,-0.460212100404364,0.90748455024033
1580421281.23166,-0.591561760891127,-0.604257267109178,0.421637293049514
1580421281.26363,-0.755626764324408,-0.545662623025864,0.622812237735562
1580421281.2956,-0.831311512932022,-0.354741741054399,0.471442740520331
1580421281.32757,-0.895277332722973,-0.402594033722439,0.441168841077285
1580421281.35954,-0.822522316319525,-0.355718318455787,0.453376058594642
1580421281.39151,-0.847425040054933,-0.281498435950256,0.452887769893948
1580421281.42348,-0.885023270008393,-0.230716411078049,0.387945372701608
1580421281.45563,-0.885023270008393,-0.294193942168308,0.323002975509269
1580421281.4876,-0.928969253070878,-0.212161440451666,0.33228046082246
1580421281.51957,-0.970962081330587,-0.227298390173189,0.354253452353703
1580421281.55154,-1.02418554970626,-0.298588540474556,0.309330891889829
1580421281.58351,-1.07692072938125,-0.183352407110704,0.184817273212786
1580421281.61548,-1.12672617685206,-0.140383001449607,0.0817883573662925
1580421281.64745,-1.11305409323262,-0.179446097505149,0.0529793240253298
1580421281.67942,-1.17946135652705,-0.175051499198901,0.165285725185015
1580421281.71139,-1.19703974975204,-0.155031662470435,0.077393759060044
1580421281.74336,-1.33083085374228,-0.113527122911421,0.145754177157244
1580421281.77533,-1.42067597467002,-0.126222629129472,0.137941557946135
1580421281.8073,-1.39137865262837,-0.254154268711376,0.191653315022506
1580421281.83927,-1.396749828336,-0.280033569848174,0.168703746089875
1580421281.87124,-1.17360189211871,-0.31958495460441,0.635507743953614
1580421281.90321,-0.626230258640421,-0.245853360799572,0.77759975585565
1580421281.93518,0.139406424048218,-0.12133974212253,1.13990997177081
1580421281.96715,-0.148195620660715,0.0549324788281069,0.946547646295873
1580421281.99913,-0.0329594872968642,0.271732661936369,0.368902113374531
1580421282.0311,0.280033569848172,-0.437750820172427,0.419684138246737
1580421282.06307,-0.0114747844663157,-0.879163805600061,0.474860761425191
1580421282.09504,-0.221438925764858,-0.443121995880064,0.520759899290457
1580421282.12701,-0.362554360265507,-0.0549324788281069,0.43482108796826
1580421282.15898,-0.815686274509805,0.560311284046694,0.812756542305639
1580421282.19095,-1.19801632715343,0.0666514076447697,0.322514686808574
1580421282.22292,-1.36598764019226,-1.16041809719997,0.365972381170366
1580421282.25489,-1.27467765316243,-0.472419317921721,0.619394216830703
1580421282.28686,-1.34157320515755,-0.157961394674601,0.35962462806134
1580421282.31883,-1.16920729381247,-0.283451590753033,0.401617456321048
1580421282.3508,-1.26540016784924,0.166262302586404,0.818127718013276
1580421282.38277,-0.99977111467155,0.0822766460669868,-0.111573968108644
1580421282.41474,-1.18287937743191,-0.185305561913481,0.681406881818877
1580421282.44671,-1.24635690852216,-0.571541924162661,0.60767528801404
1580421282.47868,-0.667246509498741,-0.392339971007859,0.650156404974442
1580421282.51065,-0.709727626459143,-0.315678644998856,0.555916685740446
1580421282.54262,-0.776623178454262,-0.533943694209201,0.58374914168002
1580421282.57459,-0.950453955901427,-0.469489585717556,0.426520180056457
1580421282.60656,-0.823987182421607,-0.334233615625239,0.463141832608528
1580421282.63854,-0.881116960402839,-0.272220950637065,0.409918364232851
1580421282.67051,-0.907972838941024,-0.283451590753033,0.371343556878003
1580421282.70248,-0.883070115205616,-0.334721904325933,0.343511100938429
1580421282.7348,-0.924086366063936,-0.281010147249562,0.327885862516212
1580421282.76677,-0.903089951934081,-0.273197528038454,0.379156176089111
1580421282.79874,-0.940199893186847,-0.311284046692608,0.429938200961317
1580421282.83071,-0.990981918059052,-0.227298390173189,0.34253452353704
1580421282.86268,-1.03883421072709,-0.197024490730143,0.117433432516975
1580421282.89465,-1.05348287174792,-0.174563210498206,0.0212405584802013
1580421282.92663,-1.13990997177081,-0.0852063782711525,0.0690928511482412
1580421282.9586,-1.1408865491722,-0.12475776302739,0.177492942702372
1580421282.99057,-1.15162890058747,-0.275638971541925,0.316655222400243
1580421283.02254,-1.29811551079576,-0.148195620660715,0.227786678873883
1580421283.05451,-1.35671015487907,-0.201419089036392,0.0725108720531011
1580421283.08648,-1.38503089951934,-0.292729076066225,0.106202792401007
1580421283.11845,-1.17848477912566,-0.271732661936371,0.556893263141834
1580421283.15042,-0.929945830472267,-0.51099412527657,0.608163576714734
1580421283.18239,-0.530037384603647,-0.193118181124589,0.756603341725796
1580421283.21436,-0.0168459601739528,-0.158937972075989,1.11696040283818
1580421283.24633,-0.210208285648889,-0.0949721522850382,0.986587319752804
1580421283.2783,0.0187991149767299,0.286869611657892,0.425055313954374
1580421283.31027,0.245365072098878,-0.219485770962081,0.514412146181431
1580421283.34224,-0.0651865415426869,-0.429449912260624,0.688242923628597
1580421283.37421,-0.191653315022506,-0.178469520103761,0.61792935072862
1580421283.40618,-0.341069657434959,-0.131105516136415,0.403082322423131
1580421283.43815,-0.720469977874417,-0.0910658426794839,0.629159990844588
1580421283.47012,-1.08570992599374,-0.0300297550926985,0.559822995346
1580421283.50209,-1.25954070344091,-0.274174105439842,0.4314030670634
1580421283.53406,-1.32106507972839,-0.871839475089647,0.347905699244677
1580421283.56604,-1.23756771190967,-0.301518272678722,0.590096894789045
1580421283.598,-1.29274433508812,0.00415045395590141,0.190188448920424
1580421283.62998,-1.12672617685206,-0.169680323491264,0.579842832074466
1580421283.66195,-0.99977111467155,-0.0144045166704814,0.399176012817577
1580421283.69392,-1.43923094529641,0.187258716716258,-0.52808422980087
1580421283.72589,-0.879163805600061,-0.241947051194018,0.687266346227208
1580421283.75786,-1.44118410009918,-0.352788586251622,0.290287632562752
1580421283.78983,-0.695567254139009,-0.44263370717937,0.595956359197377
1580421283.8218,-0.753185320820936,-0.372320134279393,0.485114824139771
1580421283.85377,-0.760021362630656,-0.521736476691844,0.515877012283514
1580421283.88574,-0.84937819485771,-0.482673380636301,0.427496757457845
1580421283.91771,-0.894300755321584,-0.249759670405126,0.426520180056457
1580421283.94968,-0.878187228198673,-0.181887541008621,0.401129167620354
1580421283.98165,-0.90064850843061,-0.299565117875945,0.304448004882886
1580421284.01367,-0.889906157015336,-0.273197528038454,0.341069657434957
1580421284.04564,-0.922621499961853,-0.221927214465552,0.342046234836346
1580421284.07761,-0.963149462119478,-0.274662394140536,0.354253452353703
1580421284.10958,-0.973403524834058,-0.334721904325933,0.327397573815517
1580421284.14155,-1.0124666208896,-0.202395666437781,0.224856946669718
1580421284.17352,-1.06080720225834,-0.232181277180132,0.120851453421835
1580421284.20549,-1.02467383840696,-0.152101930266269,0.177004654001678
1580421284.23746,-1.07057297627222,-0.185305561913481,0.256595712214846
1580421284.26944,-1.00709544518196,-0.274174105439842,0.247806515602349
1580421284.30141,-1.05006485084306,-0.210696574349583,0.297123674372472
1580421284.33338,-1.13307392996109,-0.189700160219729,0.363530937666894
1580421284.36535,-1.20827038986801,-0.167727168688486,0.218997482261386
1580421284.39732,-1.37526512550546,-0.232669565880826,0.122804608224612
1580421284.42929,-1.31569390402075,-0.216067750057221,0.35620660715648
1580421284.46126,-1.13551537346456,-0.343999389639125,0.452399481193254
1580421284.49323,-0.809826810101473,-0.295658808270391,0.533943694209203
1580421284.5252,-0.292240787365531,-0.151613641565575,0.999282825970855
1580421284.55717,-0.11108567940795,-0.317143511100939,1.05592431525139
1580421284.58914,-0.189211871519035,0.0700694285496297,0.514412146181431
1580421284.62111,0.0285648889906156,-0.203372243839169,0.476325627527274
1580421284.65308,-0.00561532005798426,-0.591073472190432,0.713633936064699
1580421284.68505,-0.139894712748912,-0.462653543907836,0.661875333791105
1580421284.71702,-0.185793850614175,-0.192141603723201,0.344487678339817
1580421284.74899,-0.511970702677958,-0.0769054703593497,0.685313191424431
1580421284.78096,-0.770275425345236,0.207766842145418,0.697032120241094
1580421284.81293,-1.21217669947356,0.365484092469671,0.381597619592583
1580421284.8449,-1.3288776989395,-0.0153810940718699,0.538338292515451
1580421284.87687,-1.30641641870756,-0.377203021286336,0.4143129625391
1580421284.90885,-1.18825055313954,-0.722423132677195,0.196047913328755
1580421284.94082,-1.1233081559472,-0.625741969939726,0.141847867551689
1580421284.97279,-1.10524147402151,-0.285893034256505,0.188723582818341
1580421285.00476,-0.836194399938964,-0.0168459601739528,0.468024719615471
1580421285.03673,-0.877698939497979,-0.280033569848174,0.0891126878767068
1580421285.0687,-1.17946135652705,-0.415777828641184,0.266849774929426
1580421285.10067,-1.43483634699016,-0.140383001449607,0.800061036087587
1580421285.13264,-0.723887998779277,0.50171663996338,0.822522316319525
1580421285.16461,-0.678965438315403,-0.214114595254443,0.364507515068283
1580421285.19658,-0.726329442282749,-1.19264515144579,0.285893034256503
1580421285.22855,-0.922133211261158,-0.7219348439765,0.4484931715877
1580421285.26052,-1.03297474631876,0.381597619592583,0.389898527504386
1580421285.29266,-1.0041657129778,0.205813687342641,0.324467841611352
1580421285.32464,-0.84596017395285,-0.484626535439078,0.408941786831463
1580421285.35661,-0.93141069657435,-0.269291218432899,0.38355077439536
1580421285.38858,-0.987075608453498,-0.027588311589227,0.28101014724956
1580421285.42055,-0.961684596017395,-0.263431754024568,0.233646143282215
1580421285.45252,-0.946547646295873,-0.176028076600289,0.251224536507209
1580421285.48449,-1.00563057907988,0.0798352025635154,0.330327306019683
1580421285.51646,-0.934340428778516,-0.194094758525978,0.274662394140535
1580421285.54843,-0.921644922560464,-0.250736247806516,0.191653315022506
1580421285.58041,-0.98609903105211,-0.172121766994735,0.293705653467612
1580421285.61238,-0.983169298847944,-0.179934386205844,0.302983138780803
1580421285.64435,-0.97242694743267,-0.289799343862059,0.336186770428014
1580421285.67632,-0.98609903105211,-0.200442511635003,0.308842603189134
1580421285.70829,-1.00514229037919,-0.192629892423895,0.27075608453498
1580421285.74026,-1.03248645761807,-0.135500114442664,0.227786678873883
1580421285.77223,-1.03883421072709,-0.226321812771801,0.222415503166246
1580421285.80421,-1.08668650339513,-0.260502021820402,0.196536202029449
1580421285.83618,-1.17994964522774,-0.296635385671779,0.293217364766917
1580421285.86815,-1.16481269550622,-0.407965209430076,0.408453498130768
1580421285.90012,-1.25905241474022,-0.299076829175251,0.300541695277332
1580421285.93209,-1.09694056610971,-0.0451667048142212,0.588143739986268
1580421285.96406,-0.771252002746625,-0.148195620660715,0.799084458686199
1580421285.99603,-0.50415808346685,-0.132570382238498,0.775646601052873
1580421286.02801,-0.551033798733501,-0.11792172121767,0.687754634927902
1580421286.05998,-0.40845349813077,-0.0598153658350498,0.373785000381474
1580421286.09195,-0.707774471656366,-0.595468070496681,-0.0900892652780954
1580421286.12392,-0.188235294117646,-2.01443503471427,-0.191653315022506
1580421286.15589,-0.34351110093843,-1.77615014877546,0.672129396505685
1580421286.18786,-0.224368657969023,-0.645273517967498,0.299565117875943
1580421286.21984,-0.771740291447319,0.757579919127185,0.694102388036928
1580421286.25181,-0.984634164950027,0.553963530937668,0.568123903257803
1580421286.28378,-1.01197833218891,-0.283939879453728,0.357671473258563
1580421286.31575,-0.972915236133364,-0.94508278019379,0.357183184557869
1580421286.34772,-0.935805294880598,-0.332768749523156,0.467536430914777
1580421286.37969,-1.07936217288472,-0.0402838178072784,0.385015640497443
1580421286.41166,-1.09205767910277,-0.541268024719615,0.388921950102997
1580421286.44364,-1.01588464179446,-0.512458991378653,0.339604791332874
1580421286.47561,-1.06129549095903,0.0783703364614325,0.53247882810712
1580421286.50758,-1.02711528191043,-0.178469520103761,0.310795757991912
1580421286.53955,-0.957778286411841,-0.35034714274815,0.401617456321048
1580421286.57166,-0.909437705043107,-0.00659189745937283,0.493904020752268
1580421286.60363,-1.15602349889372,-0.179934386205844,0.164797436484321
1580421286.6356,-0.756603341725796,0.0563973449301898,0.106202792401007
1580421286.66757,-1.12037842374304,-0.380621042191196,0.482673380636299
1580421286.69954,-0.831799801632716,-0.277103837644008,0.793224994277868
1580421286.73151,-0.74927901121538,-0.0788586251621268,0.637460898756391
1580421286.76349,-0.853284504463264,-0.0866712443732354,0.363530937666894
1580421286.79546,-0.883070115205616,-0.621835660334172,0.447516594186311
1580421286.82743,-0.884046692607004,-0.429938200961319,0.516853589684903
1580421286.8594,-0.881605249103533,-0.232181277180132,0.429938200961317
1580421286.89137,-0.900160219729916,-0.296147096971085,0.379156176089111
1580421286.92335,-0.85963225757229,-0.413824673838407,0.439215686274508
1580421286.95532,-0.912855725947967,-0.131593804837109,0.37671473258564
1580421286.98729,-0.898695353627833,-0.312748912794691,0.473884184023802
1580421287.01926,-0.892347600518807,-0.385503929198139,0.413824673838405
1580421287.05123,-0.93141069657435,-0.295658808270391,0.422613870450903
1580421287.08321,-1.04615854123751,-0.200930800335698,0.343999389639123
1580421287.11518,-1.1067063401236,-0.196047913328755,0.235599298084992
1580421287.14715,-1.09254596780346,-0.144777599755855,0.131593804837109
1580421287.17912,-1.19752803845273,-0.0905775539787896,0.156984817273212
1580421287.21109,-1.24196231021591,-0.148683909361409,0.152590218966964
1580421287.24306,-1.25807583733883,-0.186282139314869,0.0417486839093613
1580421287.27504,-1.39040207522698,-0.176028076600289,0.0817883573662925
1580421287.30701,-1.44655527580682,-0.0915541313801782,0.0358892195010299
1580421287.33898,-1.4309300373846,-0.156008239871824,-0.00366216525520713
1580421287.37095,-1.30788128480964,-0.125246051728084,0.298588540474555
1580421287.40293,-0.857679102769513,-0.287357900358588,0.600350957503625
1580421287.4349,-0.262455176623179,-0.198001068131532,1.08326848249027
1580421287.46687,-0.169192034790569,-0.143312733653772,0.954848554207675
1580421287.49884,-0.0813000686655982,-0.034424353398947,0.546639200427254
1580421287.53081,0.193118181124589,-0.52466620889601,0.459723811703668
1580421287.56278,0.0192874036774242,-0.688242923628595,0.512458991378654
1580421287.59476,-0.180910963607232,-0.379156176089113,0.490974288548102
1580421287.62673,-0.362066071564813,-0.0588387884336612,0.497322041657128
1580421287.6587,-0.68433661402304,0.363530937666894,0.647714961470971
1580421287.69067,-1.05299458304723,0.295658808270389,0.442633707179368
1580421287.72264,-1.39772640573739,-0.48364995803769,0.614023041123065
1580421287.75462,-1.27418936446174,-1.0129549095903,0.432379644464788
1580421287.78659,-1.32106507972839,-0.369878690775922,0.534920271610591
1580421287.81856,-1.26295872434577,-0.360112916762036,0.304448004882886
1580421287.85065,-1.07447928587777,-0.187258716716258,0.819104295414665
1580421287.88262,-0.826916914625773,0.292240787365529,0.0900892652780954
1580421287.91459,-1.15992980849927,0.269779507133592,0.802502479591059
1580421287.94656,-1.3884489204242,-0.78101777676051,0.520271610589763
1580421287.97854,-0.712657358663309,-0.544197756923781,0.618905928130008
1580421288.01051,-0.412848096437019,-0.604745555809872,0.76392767223621
1580421288.04248,-0.793713282978562,-0.315678644998856,0.647226672770277
1580421288.07445,-0.950453955901427,-0.465094987411307,0.451422903791865
1580421288.10643,-0.796154726482033,-0.410406652933547,0.418219272144654
1580421288.1384,-0.877698939497979,-0.279545281147479,0.433356221866177
1580421288.17037,-0.87672236209659,-0.247806515602349,0.43823910887312
1580421288.20234,-0.865003433279927,-0.36743724727245,0.389898527504386
1580421288.23431,-0.937758449683376,-0.325444419012742,0.343999389639123
1580421288.26629,-1.01051346608682,-0.327885862516213,0.401617456321048
1580421288.29826,-1.08375677119097,-0.145265888456549,0.238529030289158
1580421288.33023,-1.13649195086595,-0.0788586251621268,0.0397955291065841
1580421288.36221,-1.16285954070344,-0.112550545510032,0.037842374303807
1580421288.39418,-1.24586861982147,-0.139406424048218,0.112062256809338
1580421288.42615,-1.26784161135271,-0.138429846646829,-0.0202639810788128
1580421288.45812,-1.43385976958877,-0.070557717250324,-0.0505378805218584
1580421288.49009,-1.56618600747692,-0.158449683375295,0.0432135500114441
1580421288.52207,-1.43923094529641,-0.281010147249562,0.0749523155565726
1580421288.55404,-1.40944533455406,-0.347905699244679,0.329350728618294
1580421288.58601,-0.857190814068819,-0.349370565346762,0.561287861448083
1580421288.61798,-0.120363164721141,-0.217044327458609,1.30251010910201
1580421288.64996,-0.150637064164187,-0.138429846646829,1.03736934462501
1580421288.68193,0.162355992980849,0.39380483710994,0.429449912260623
1580421288.7139,0.348882276646066,-0.281986724650951,0.628671702143894
1580421288.74587,0.0651865415426869,-0.430914778362707,0.582284275577937
1580421288.77785,-0.0803234912642097,-0.112062256809338,0.415289539940488
1580421288.80982,-0.453864347295339,-0.202883955138475,0.513435568780043
1580421288.84179,-0.457770656900893,-0.183840695811398,0.503181506065463
1580421288.87376,-1.20680552376593,0.485603112840465,0.44507515068284
1580421288.90574,-1.48024719615473,-0.427985046158541,0.878675516899367
1580421288.93771,-1.40163271534295,-0.7390249485008,0.32202639810788
1580421288.96968,-1.42165255207141,-0.385015640497445,0.550057221332114
1580421289.00165,-1.3884489204242,-0.56910048065919,0.533455405508509
1580421289.03363,-1.05299458304723,-0.0417486839093613,0.191653315022506
1580421289.0656,-1.16920729381247,0.547615777828643,0.470466163118942
1580421289.09757,-0.89723048752575,-0.644296940566109,0.853284504463264
1580421289.12994,-0.702891584649423,-0.78101777676051,0.609140154116123
1580421289.16192,-0.791760128175785,-0.437262531471733,0.779064621957733
1580421289.19389,-0.839612420843824,-0.225833524071106,0.548592355230031
1580421289.22586,-0.846448462653544,-0.49390402075227,0.395757991912717
1580421289.25783,-0.788342107270925,-0.596444647898069,0.498298619058517
1580421289.28981,-0.901625085831999,-0.213138017853055,0.446051728084228
1580421289.32178,-0.896742198825056,-0.123292896925307,0.356694895857174
1580421289.35375,-0.897718776226444,-0.265873197528039,0.310795757991912
1580421289.38572,-0.909437705043107,-0.344975967040513,0.350835431448843
1580421289.4177,-0.946059357595178,-0.327397573815519,0.330815594720377
1580421289.44967,-1.06959639887083,-0.198977645532921,0.302006561379415
1580421289.48164,-1.12965590905623,-0.106202792401007,0.154055085069047
1580421289.51361,-1.13063248645762,-0.152101930266269,0.0549324788281069
1580421289.54558,-1.17164873731594,-0.170656900892652,0.131105516136415
1580421289.57756,-1.20192263675898,-0.135011825741969,0.143312733653772
1580421289.60953,-1.2522163729305,-0.193118181124589,0.0500495918211641
1580421289.6415,-1.4309300373846,-0.247318226901655,0.0402838178072784
1580421289.67347,-1.40309758144503,-0.0437018387121384,0.204348821240558
1580421289.70545,-1.43239490348669,-0.128175783932249,0.340093080033569
1580421289.73742,-1.18434424353399,-0.429938200961319,0.489021133745325
1580421289.76939,-0.550545510032807,-0.370366979476616,0.865003433279927
1580421289.80136,0.0104982070649271,-0.37769130998703,1.34254978255894
1580421289.83334,-0.238040741588463,-0.136964980544747,0.971450370031281
1580421289.86531,0.268802929732203,0.0612802319371326,0.477302204928662
1580421289.89728,0.28442816815442,-0.435309376668956,0.550545510032808
1580421289.92925,0.00512703135728998,-0.337163347829405,0.684336614023042
1580421289.96123,-0.0710460059510183,0.0124513618677042,0.39380483710994
1580421289.9932,-0.423590447852293,0.0192874036774242,0.505622949568934
1580421290.02517,-0.974380102235447,0.0842298008697639,0.673594262607768
1580421290.05714,-1.18678568703746,-0.0046387426565957,0.454352635996031
1580421290.08912,-1.45143816281376,-0.532967116807813,0.567147325856414
1580421290.12109,-1.28688487067979,-0.510505836575875,0.514412146181431
1580421290.15306,-1.31276417181659,-0.580819409475852,0.271244373235675
1580421290.18503,-1.09987029831388,-0.154543373769741,0.513923857480737
1580421290.21701,-1.13307392996109,-0.112550545510032,0.743907835507745
1580421290.24898,-1.59743648432135,0.464118410009917,-0.381597619592585
1580421290.28095,-1.1062180514229,-0.279056992446785,0.716075379568171
1580421290.31292,-1.26735332265202,-0.507087815671015,0.679453727016099
1580421290.34489,-0.450934615091173,-0.163332570382238,0.711192492561228
1580421290.37687,-0.823987182421607,-0.740489814602883,0.394781414511328
1580421290.40875,-0.899671931029221,-0.84254215304799,0.427496757457845
1580421290.44072,-0.992446784161135,-0.207766842145418,0.360601205462729
1580421290.4727,-0.928969253070878,-0.0148928053711757,0.351812008850231
1580421290.50467,-0.844007019150073,-0.38110933089189,0.36646066987106
1580421290.53664,-0.858167391470207,-0.245365072098878,0.36646066987106
1580421290.56861,-0.872327763790341,-0.135011825741969,0.350835431448843
1580421290.60059,-0.83912413214313,-0.378179598687725,0.402594033722437
1580421290.63256,-0.87672236209659,-0.334721904325933,0.403082322423131
1580421290.66453,-0.963149462119478,-0.184328984512092,0.346440833142594
1580421290.6965,-1.04078736552987,-0.096437018387121,0.190188448920424
1580421290.72848,-1.07887388418402,-0.0646982528419926,0.0505378805218584
1580421290.76045,-1.07545586327916,-0.0104982070649271,0.0642099641412983
1580421290.79242,-1.1320973525597,-0.110597390707255,0.198977645532921
1580421290.82439,-1.08717479209583,-0.199465934233615,0.2775921263447
1580421290.85637,-1.19655146105135,-0.135011825741969,0.106202792401007
1580421290.88834,-1.50661478599222,-0.0461432822156098,0.104737926298924
1580421290.92031,-1.585229266804,-0.127199206530861,0.367925535973143
1580421290.95228,-1.6364995803769,-0.0192874036774242,0.325932707713434
1580421290.98425,-1.15016403448539,-0.305912870984971,0.715098802166782
1580421291.01623,-0.591073472190432,-0.0578622110322726,0.555916685740446
1580421291.0482,-0.0568856336308841,-0.491462577248798,0.854261081864653
1580421291.08017,-0.112062256809338,-0.975356679636835,0.614023041123065
1580421291.11214,0.0871595330739297,-1.17067215991455,0.39038681620508
1580421291.14412,0.134523537041275,-1.33864347295338,-0.048096437018387
1580421291.17609,-0.0847180895704582,-0.974380102235447,0.561287861448083
1580421291.20806,0.0524910353246355,-0.318608377203022,0.62134737163348
1580421291.24003,-0.341557946135653,0.239505607690546,0.616464484626537
1580421291.27201,-0.84937819485771,-0.0109864957656214,0.631113145647365
1580421291.30398,-0.843030441748684,-0.518806744487678,0.158449683375295
1580421291.33595,-0.99977111467155,-0.782482642862593,0.520759899290457
1580421291.36792,-0.987075608453498,-0.864515144579233,0.401129167620354
1580421291.3999,-1.26540016784924,-0.629159990844586,0.166262302586404
1580421291.43187,-1.29665064469368,-0.444586861982147,0.0622568093385212
1580421291.46384,-1.28444342717632,-0.278080415045396,0.305424582284274
1580421291.49581,-1.3112993057145,0.293217364766917,0.170656900892652
1580421291.52779,-1.20338750286107,0.191653315022506,0.185793850614175
1580421291.55976,-0.930434119172961,-0.259037155718319,0.27075608453498
1580421291.59173,-0.83912413214313,-0.672129396505683,0.430914778362705
1580421291.6237,-0.983657587548638,-0.162844281681544,0.500740062561992
1580421291.65568,-1.10817120622568,-0.187258716716258,0.198489356832226
1580421291.68783,-1.1320973525597,-0.286381322957199,0.949477378500038
1580421291.71981,-0.720958266575112,0.239017318989852,0.507087815671017
1580421291.75178,-0.89723048752575,-0.302006561379416,0.614023041123065
1580421291.78375,-0.740001525902189,-0.638925764858472,0.248783093003738
1580421291.81573,-0.983657587548638,-0.448004882887007,0.294682230869
1580421291.8477,-0.990005340657664,-0.0134279392690928,0.454352635996031
1580421291.87967,-0.850843060959793,-0.227298390173189,0.487556267643242
1580421291.91165,-0.882093537804227,-0.426520180056459,0.4484931715877
1580421291.94362,-0.88355840390631,-0.345464255741208,0.43823910887312
1580421291.9756,-0.885511558709087,0.0163576714732585,0.368413824673837
1580421292.00757,-0.946547646295873,-0.209719996948195,0.348882276646066
1580421292.03954,-0.86646829938201,-0.238040741588463,0.34253452353704
1580421292.07152,-0.950453955901427,-0.0896009765774011,0.285404745555809
1580421292.10349,-0.960219729915313,-0.259525444419014,0.271244373235675
1580421292.13546,-0.972915236133364,-0.170168612191958,0.355230029755091
1580421292.16744,-1.0124666208896,-0.048096437018387,0.256595712214846
1580421292.19941,-1.00270084687572,-0.345464255741208,0.238040741588463
1580421292.23138,-0.991470206759747,-0.195071335927366,0.300541695277332
1580421292.26336,-0.979751277943084,-0.168703746089875,0.32202639810788
1580421292.29533,-0.954848554207675,-0.325932707713436,0.357671473258563
1580421292.3273,-1.01588464179446,-0.185305561913481,0.309819180590523
1580421292.35928,-1.06910811017014,-0.176516365300984,0.333745326924543
1580421292.39125,-1.04567025253681,-0.138918135347524,0.364507515068283
1580421292.42322,-1.07496757457847,-0.201419089036392,0.417242694743265
1580421292.4552,-1.16481269550622,-0.338628213931488,0.288334477759975
1580421292.48717,-1.27516594186313,-0.283939879453728,0.0993667505912867
1580421292.51914,-1.4480201419089,-0.413824673838407,-0.0852063782711525
1580421292.55112,-1.34059662775616,-0.314702067597468,0.0744640268558783
1580421292.58309,-1.07496757457847,-0.173098344396124,0.809826810101473
1580421292.61506,-0.403570611123827,-0.36743724727245,1.17848477912566
1580421292.64704,-0.438239108873121,0.418707560845348,0.672129396505685
1580421292.67901,-0.431891355764096,-0.0881361104753182,0.263431754024566
1580421292.71098,-0.145754177157244,-1.21217669947356,0.317631799801632
1580421292.74296,-0.0690928511482412,-1.90212863355459,0.498298619058517
1580421292.77493,-0.145265888456549,-0.719005111772335,0.347417410543983
1580421292.8069,-0.218509193560692,0.698985275043871,0.44165712977798
1580421292.83888,-0.833752956435493,0.942641336690318,0.755138475623713
1580421292.87085,-0.780529488059816,0.0100099183642328,0.550545510032808
1580421292.90282,-1.16823071641108,-1.20485236896315,0.0949721522850382
1580421292.9348,-1.16969558251316,-0.676523994811932,0.695078965438316
1580421292.96689,-1.24440375371939,0.135011825741969,0.677988860914017
1580421292.99886,-1.13698023956664,-0.824475471122302,0.422125581750208
1580421293.03084,-0.99977111467155,-0.264408331425956,0.867444876783399
1580421293.06281,-1.23805600061036,0.368413824673837,1.03346303501946
1580421293.09478,-1.48952468146792,0.0822766460669868,-1.01734950789654
1580421293.12676,-1.35329213397421,-0.809338521400779,0.685313191424431
1580421293.15873,-1.33278400854505,-0.149660486762798,0.749279011215382
1580421293.1907,-0.531013962005035,0.0290531776913099,0.82887006942855
1580421293.22268,-0.656015869382772,-0.911879148546578,0.470466163118942
1580421293.25465,-0.797131303883422,-0.905531395437553,0.406012054627297
1580421293.28663,-0.91773861295491,-0.134523537041275,0.593514915693905
1580421293.3186,-0.86988632028687,-0.00805676356145568,0.448981460288394
1580421293.35057,-0.810315098802167,-0.453864347295339,0.353765163653009
1580421293.38255,-0.88014038300145,-0.35718318455787,0.371343556878003
1580421293.41452,-0.952895399404898,-0.109620813305867,0.357671473258563
1580421293.4465,-0.946059357595178,-0.295658808270391,0.470954451819637
1580421293.47847,-1.04469367513542,-0.32983901731899,0.377691309987028
1580421293.51044,-1.1833676661326,-0.116945143816281,0.178957808804455
1580421293.54242,-1.22975509269856,-0.145265888456549,-0.0793469138628211
1580421293.57439,-1.31862363622492,-0.0856946669718468,-0.131105516136415
1580421293.60636,-1.4743877317464,-0.0187991149767299,-0.0134279392690928
1580421293.63834,-1.58132295719844,0.109132524605172,-0.0515144579232469
1580421293.67031,-1.67360952162966,-0.11792172121767,-0.0900892652780954
1580421293.70229,-1.65749599450675,-0.283939879453728,-0.343022812237736
1580421293.73426,-1.49831387808042,-0.324467841611353,0.274662394140535
1580421293.76623,-0.793713282978562,-0.331303883421073,0.796643015182728
1580421293.79821,0.0822766460669868,-0.349370565346762,1.42751201647974
1580421293.83018,-0.189700160219729,0.750743877317465,0.229739833676661
1580421293.86216,0.203372243839169,-0.148683909361409,0.692637521934845
1580421293.89413,0.282475013351643,-0.826916914625773,0.62134737163348
1580421293.9261,0.259037155718318,-0.475837338826581,0.412848096437017
1580421293.95808,-0.357671473258565,-0.168703746089875,0.439703974975203
1580421293.99005,-0.48706797894255,0.385015640497443,0.648203250171665
1580421294.02202,-1.25905241474022,0.560799572747388,0.647226672770277
1580421294.054,-1.46364538033112,-0.334233615625239,0.612558175020983
1580421294.08597,-1.4309300373846,-0.776623178454262,0.721446555275808
1580421294.11795,-1.40456244754711,-0.514900434882124,0.532967116807814
1580421294.14992,-1.20534065766384,-0.865003433279927,0.536385137712674
1580421294.18189,-0.866956588082704,-0.503669794766155,0.4314030670634
1580421294.21387,-1.10914778362707,0.559334706645306,0.235599298084992
1580421294.246,-1.41237506675822,-0.340581368734265,0.613534752422371
1580421294.27798,-0.832776379034105,-0.662363622491798,0.681895170519571
1580421294.30995,-0.42212558175021,-0.602304112306401,0.920668345159076
1580421294.34192,-0.840588998245213,-0.429449912260624,0.47583733882658
1580421294.3739,-0.878187228198673,-0.559334706645304,0.474860761425191
1580421294.40587,-0.896742198825056,-0.392339971007859,0.401129167620354
1580421294.43785,-0.914808880750744,-0.232669565880826,0.377691309987028
1580421294.46982,-0.90748455024033,-0.174074921797512,0.327397573815517
1580421294.5018,-0.920180056458381,-0.270267795834288,0.420172426947431
1580421294.53377,-0.85963225757229,-0.398687724116884,0.416754406042571
1580421294.56574,-1.00856031128405,-0.366948958571756,0.293705653467612
1580421294.59772,-1.14869916838331,-0.0319829098954756,-0.00366216525520713
1580421294.62969,-1.2346379797055,-0.110597390707255,-0.118410009918364
1580421294.66167,-1.33864347295338,0.0354009308003356,0.00415045395590141
1580421294.69364,-1.42800030518044,0.106202792401007,-0.0578622110322726
1580421294.72562,-1.58376440070191,-0.0837415121690697,-0.141847867551689
1580421294.75759,-1.79275196459907,-0.238529030289158,-0.235111009384298
1580421294.78956,-1.74978255893797,-0.101319905394064,-0.211673151750972
1580421294.82154,-1.44313725490196,-0.244388494697489,0.42456702525368
1580421294.85351,-0.563241016250858,-0.32983901731899,0.927016098268101
1580421294.88549,-0.154543373769741,-0.429449912260624,1.39479667353323
1580421294.91746,-0.169192034790569,0.0764171816586554,0.744884412909133
1580421294.94944,0.454840924696725,-0.121828030823224,0.331303883421072
1580421294.98141,0.377691309987028,-0.786877241168842,0.585214007782103
1580421295.01338,0.0720225833524069,-0.513923857480735,0.45874723430228
1580421295.04536,-0.0866712443732354,-0.0329594872968642,0.241458762493323
1580421295.07733,-0.613534752422369,0.175539787899595,0.708262760357062
1580421295.10931,-0.850843060959793,0.207766842145418,0.613046463721677
1580421295.14128,-1.35329213397421,-0.229739833676661,0.692637521934845
1580421295.17326,-1.40456244754711,-0.88697642481117,0.668223086900131
1580421295.20523,-1.47194628824292,-0.417242694743267,0.682871747920959
1580421295.23721,-1.26686503395132,-0.717540245670252,0.45874723430228
1580421295.26918,-1.53835355153735,-0.0451667048142212,0.452399481193254
1580421295.30115,-1.77663843747616,0.785900663767453,-0.643808651865415
1580421295.33313,-1.10719462882429,-0.197024490730143,0.853284504463264
1580421295.3651,-0.72535286488136,-0.913832303349356,0.659433890287634
1580421295.39708,-0.470466163118944,-0.921644922560464,0.639414053559168
1580421295.42905,-0.718028534370946,-0.453864347295339,0.855725947966736
1580421295.46103,-0.912855725947967,0.0729991607537954,0.538338292515451
1580421295.493,-0.796643015182728,-0.638437476157778,0.524177920195317
1580421295.52508,-0.76392767223621,-0.619882505531395,0.470954451819637
1580421295.55706,-0.939223315785458,-0.0471198596169984,0.389410238803691
1580421295.58904,-0.931898985275044,-0.201907377737086,0.350835431448843
1580421295.62101,-0.919203479056993,-0.43237964446479,0.302006561379415
1580421295.65298,-1.04811169604028,-0.261478599221791,0.330815594720377
1580421295.68496,-1.09987029831388,-0.070557717250324,0.155031662470435
1580421295.71693,-1.09108110170138,0.0197756923781185,-0.0173342488746471
1580421295.74891,-1.19703974975204,-0.0856946669718468,0.027588311589227
1580421295.78088,-1.2863965819791,-0.190676737621118,-0.0046387426565957
1580421295.81286,-1.39577325093462,0.0373540856031127,0.0642099641412983
1580421295.84483,-1.55593194476234,0.0549324788281069,0.0632333867399097
1580421295.87681,-1.71999694819562,-0.0993667505912867,-0.0402838178072784
1580421295.90878,-1.60134279392691,-0.168703746089875,0.0485847257190812
1580421295.94076,-1.23268482490272,-0.200442511635003,0.4314030670634
1580421295.97273,-0.417242694743267,-0.187747005416952,1.06617837796597
1580421296.00471,-0.0349126420996413,-0.703379873350118,1.25075150682841
1580421296.03668,0.0246585793850613,-0.385992217898833,0.63160143434806
1580421296.06866,0.523689631494623,-0.656504158083466,0.37671473258564
1580421296.10063,0.33569848172732,-0.69117265583276,0.636484321355002
1580421296.13261,0.144289311055161,-0.190676737621118,0.539803158617534
1580421296.16458,-0.225833524071106,0.0842298008697639,0.388433661402303
1580421296.19656,-0.744396124208437,0.395757991912717,0.702891584649425
1580421296.22853,-0.932387273975738,0.141847867551689,0.612558175020983
1580421296.2605,-1.53737697413596,-0.462165255207141,0.699473563744565
1580421296.29248,-1.34010833905547,-0.800549324788282,0.336186770428014
1580421296.32446,-1.18043793392843,-1.12526131074998,0.240970473792629
1580421296.35643,-1.20485236896315,-0.164797436484321,0.47583733882658
1580421296.3884,-1.10035858701457,0.0612802319371326,0.0476081483176927
1580421296.42038,-1.54079499504082,-0.299076829175251,0.35620660715648
1580421296.45235,-0.714610513466086,-0.716075379568169,0.817639429312582
1580421296.48433,-0.695078965438315,-0.495368886854353,1.33327229724575
1580421296.5163,-0.483161669336996,-0.297123674372473,0.523689631494623
1580421296.54828,-1.06764324406805,-0.457770656900893,0.896742198825056
1580421296.58025,-0.883070115205616,-0.256107423514154,0.333257038223849
1580421296.61223,-1.00465400167849,-0.140383001449607,0.271732661936369
1580421296.6442,-0.894300755321584,-0.188723582818341,0.463141832608528
1580421296.67618,-0.848889906157016,-0.127687495231555,0.446540016784922
1580421296.70815,-0.922133211261158,-0.144777599755855,0.370366979476614
1580421296.74013,-0.885023270008393,-0.252689402609294,0.403082322423131
1580421296.7721,-0.908461127641718,-0.221438925764858,0.409430075532157
1580421296.80429,-0.922621499961853,-0.116456855115587,0.444586861982145
1580421296.83626,-0.937758449683376,-0.080811779964904,0.411871519035628
1580421296.86824,-1.00611886778058,-0.135988403143358,0.314213778896772
1580421296.90021,-1.03199816891737,-0.101808194094758,0.252201113908598
1580421296.93219,-1.07740901808194,-0.173098344396124,0.231692988479438
1580421296.96416,-1.04762340733959,-0.179446097505149,0.251224536507209
1580421296.99614,-1.14674601358053,-0.138918135347524,0.30151827267872
1580421297.02811,-1.12574959945067,-0.210696574349583,0.389898527504386
1580421297.06009,-1.27125963225757,-0.296635385671779,0.312260624093994
1580421297.09206,-1.35231555657282,-0.0402838178072784,0.365484092469671
1580421297.12404,-1.13356221866178,0.0935072861829553,0.716075379568171
1580421297.15601,-0.804455634393836,-0.203372243839169,0.799084458686199
1580421297.18799,-0.368902113374533,-0.474860761425193,0.678965438315405
1580421297.21996,-0.501228351262684,-0.614999618524452,0.483649958037688
1580421297.25194,-0.53150225070573,-0.960219729915313,0.311284046692606
1580421297.28391,-0.218997482261386,-1.6364995803769,0.113038834210727
1580421297.31589,-0.147707331960021,-1.68630502784771,0.563729304951554
1580421297.34786,-0.122804608224612,-0.750743877317465,0.427008468757151
1580421297.37984,-0.344975967040513,0.31860837720302,0.521248187991151
1580421297.41181,-0.786877241168842,0.507087815671017,0.59742122529946
1580421297.44379,-0.936293583581293,-0.247318226901655,0.390875104905774
1580421297.47576,-0.844007019150073,-1.06520180056458,0.201907377737086
1580421297.50774,-0.641367208361943,-1.04469367513542,0.439703974975203
1580421297.53971,-0.81519798580911,-0.463630121309224,0.585702296482797
1580421297.57168,-0.913832303349356,-0.47339589532311,0.556893263141834
1580421297.60366,-1.09987029831388,-0.801037613488976,0.279056992446783
1580421297.63563,-1.20289921416037,0.157473105973907,0.739513237201496
1580421297.66761,-1.19508659494926,0.262455176623178,0.484138246738382
1580421297.69958,-1.01051346608682,-0.552986953536278,0.454352635996031
1580421297.73156,-0.903578240634776,-0.325444419012742,0.6110933089189
1580421297.76353,-1.17360189211871,-0.00122072175173571,0.281498435950255
1580421297.79551,-0.578377965972381,0.444098573281451,0.171145189593346
1580421297.82748,-1.13649195086595,-0.503669794766155,0.470954451819637
1580421297.85946,-0.939711604486153,-0.545662623025864,0.413336385137711
1580421297.89143,-0.724864576180666,-0.271732661936371,0.735118638895248
1580421297.92341,-0.802014190890365,-0.385015640497445,0.744884412909133
1580421297.95538,-0.783947508964676,-0.524177920195315,0.577889677271688
1580421297.98736,-0.738048371099412,-0.576424811169604,0.658457312886245
1580421298.01933,-0.835217822537576,-0.367925535973145,0.578866254673077
1580421298.05131,-0.816174563210499,-0.421637293049516,0.497322041657128
1580421298.08359,-0.946547646295873,-0.207766842145418,0.367437247272449
1580421298.11556,-0.908949416342413,-0.302983138780805,0.440680552376591
1580421298.14754,-0.883070115205616,-0.442145418478676,0.497322041657128
1580421298.17951,-1.04957656214237,-0.263431754024568,0.459235523002974
1580421298.21149,-1.29567406729229,-0.184817273212786,-0.0373540856031127
1580421298.24346,-1.31374074921798,-0.0271000228885327,-0.340581368734265
1580421298.27544,-1.44997329671168,-0.0783703364614325,-0.164309147783626
1580421298.30741,-1.61599145494774,0.135500114442664,-0.171145189593346
1580421298.33939,-1.74343480582895,0.165774013885709,-0.163332570382238
1580421298.37136,-1.80593575951782,-0.0900892652780954,-0.240482185091935
1580421298.40333,-1.65163653009842,-0.505622949568933,-0.102784771496147
1580421298.43531,-1.17311360341802,-0.268802929732205,0.62134737163348
1580421298.46728,-0.324467841611353,-0.10766765850309,1.34254978255894
1580421298.49926,-0.0466315709163041,0.596932936598765,0.772228580148013
1580421298.53123,0.154055085069047,0.0754406042572668,0.5427328908217
1580421298.56321,0.295170519569695,-0.831799801632716,0.592050049591823
1580421298.59518,0.454840924696725,-0.908461127641718,0.39038681620508
1580421298.62716,-0.156984817273212,-0.361577782864119,0.367925535973143
1580421298.65913,-0.417242694743267,0.0798352025635154,0.616464484626537
1580421298.69111,-0.903578240634776,0.827893492027162,0.522713054093234
1580421298.72308,-1.39186694132906,0.044678416113527,0.512947280079349
1580421298.75506,-1.42848859388113,-1.53933012893873,0.312260624093994
1580421298.78703,-1.34108491645686,-0.130617227435721,1.06178377965972
1580421298.81901,-1.24928664072633,-0.94166475928893,0.478767071030745
1580421298.85098,-1.42848859388113,-0.165774013885709,1.08180361638819
1580421298.88296,-1.98269626916915,0.728770885786222,-0.906019684138247
1580421298.91493,-1.16725413900969,-0.545662623025864,0.901625085831999
1580421298.94691,-0.570565346761272,-1.0642252231632,0.826916914625773
1580421298.97888,-0.238529030289158,-1.00514229037919,0.942641336690318
1580421299.01086,-0.85621423666743,-0.183352407110704,0.816662851911193
1580421299.04283,-0.903578240634776,-0.315190356298162,0.549080643930726
1580421299.07481,-0.751232166018159,-0.658457312886243,0.532967116807814
1580421299.10678,-0.865491721980622,-0.40161745632105,0.539803158617534
1580421299.13875,-0.914808880750744,-0.119386587319752,0.379156176089111
1580421299.17073,-0.898695353627833,-0.217044327458609,0.379644464789806
1580421299.2027,-1.0212558175021,-0.37427328908217,0.366948958571754
1580421299.23468,-1.12135500114443,-0.163332570382238,0.145754177157244
1580421299.26665,-1.2092469672694,-0.044678416113527,-0.0266117341878385
1580421299.29863,-1.34010833905547,-0.0969253070878153,-0.170656900892652
1580421299.3306,-1.50905622949569,0.0847180895704582,-0.178957808804455
1580421299.36288,-1.55593194476234,0.0798352025635154,-0.11792172121767
1580421299.39486,-1.78347447928588,-0.194094758525978,-0.123781185626001
1580421299.42683,-1.7473411154345,-0.130128938735027,-0.33325703822385
1580421299.45881,-1.77126726176852,-0.130128938735027,0.0163576714732585
1580421299.49078,-0.779552910658428,-0.170656900892652,0.566170748455026
1580421299.52276,0.290287632562752,-0.424078736552987,1.56911573968109
1580421299.55473,-0.481208514534218,0.347417410543983,0.640390630960557
1580421299.58671,0.27075608453498,-0.149660486762798,0.430426489662011
1580421299.61868,0.163820859082932,-1.31813534752422,0.551522087434197
1580421299.65066,-0.0798352025635154,-0.734142061493857,0.368902113374531
1580421299.68263,-0.247318226901655,0.0427252613107498,0.147707331960021
1580421299.71461,-0.685801480125123,0.908461127641718,0.983169298847944
1580421299.74658,-1.01002517738613,0.416754406042571,0.300541695277332
1580421299.77856,-1.33083085374228,-1.21217669947356,0.581795986877243
1580421299.81053,-1.20582894636454,-0.496833752956436,0.971450370031281
1580421299.84251,-1.4397192339971,-0.339604791332876,0.657969024185551
1580421299.87448,-1.25416952773327,-0.872816052491036,0.668711375600825
1580421299.90646,-1.65847257190814,0.0783703364614325,1.10328831921874
1580421299.93843,-1.98269626916915,0.574959945067523,-0.857679102769513
1580421299.9704,-1.11451895933471,-0.337651636530099,0.923109788662547
1580421300.00238,-1.01637293049516,-0.772228580148013,0.744884412909133
1580421300.03435,-0.334233615625239,-0.873792629892424,1.11793698023957
1580421300.06633,-0.736095216296635,-0.706797894254978,0.413824673838405
1580421300.0983,-0.88697642481117,-0.249759670405126,0.554451819638363
1580421300.13028,-0.807385366598002,-0.453864347295339,0.593514915693905
1580421300.16225,-0.835217822537576,-0.482185091935607,0.461676966506445
1580421300.19423,-0.960219729915313,-0.044678416113527,0.296635385671777
1580421300.2262,-0.919691767757687,-0.217532616159303,0.343022812237734
1580421300.25818,-0.909925993743801,-0.450934615091173,0.3459525444419
1580421300.29015,-1.09840543221179,-0.199465934233615,0.250736247806515
1580421300.32213,-1.12819104295415,0.00122072175173571,0.0910658426794839
1580421300.3541,-1.2522163729305,-0.190676737621118,-0.0563973449301898
1580421300.38608,-1.37233539330129,0.0295414663920042,-0.0681162737468526
1580421300.41805,-1.51442740520333,-0.0856946669718468,-0.0886243991760125
1580421300.45003,-1.74148165102617,0.108155947203784,-0.152101930266269
1580421300.482,-1.9529106584268,-0.0686045624475469,-0.218509193560692
1580421300.51398,-1.76150148775464,-0.365484092469673,-0.0925307087815668
1580421300.54595,-1.28200198367285,-0.180422674906538,0.50513466086824
1580421300.57793,-0.194583047226672,-0.296147096971085,1.45534447241932
1580421300.6099,-0.00708018616006711,-0.332280460822462,1.17946135652705
1580421300.64218,0.171145189593346,0.315678644998854,0.424078736552985
1580421300.67416,0.485603112840465,-0.399176012817579,0.584725719081408
1580421300.70613,0.436285954070343,-0.497810330357824,0.679942015716794
1580421300.7381,0.247318226901655,-0.0988784618905925,0.370855268177309
1580421300.77008,-0.356694895857176,0.219974059662775,0.489997711146714
1580421300.80205,-0.802014190890365,0.120363164721141,0.579842832074466
1580421300.83403,-1.43874265659571,0.328374151216906,0.99293507286183
1580421300.866,-1.46315709163043,-0.848889906157016,0.319584954604409
1580421300.89798,-1.36794079499504,-0.673105973907072,0.847425040054933
1580421300.92995,-1.39479667353323,-0.394293125810636,0.119386587319752
1580421300.96193,-1.43727779049363,0.0817883573662925,0.685313191424431
1580421300.9939,-1.65407797360189,-0.187258716716258,-1.02760357061112
1580421301.02588,-1.14869916838331,-0.415777828641184,0.867444876783399
1580421301.05785,-1.02320897230488,-0.326909285114825,0.994888227664607
1580421301.08983,-0.567635614557107,-0.885023270008393,1.34303807125963
1580421301.1218,-0.674082551308461,-0.361577782864119,0.474372472724497
1580421301.15378,-0.900160219729916,-0.651621271076523,0.527595941100177
1580421301.18575,-0.823498893720913,-0.334721904325933,0.468513008316165
1580421301.21773,-0.963149462119478,0.0373540856031127,0.454840924696725
1580421301.2497,-0.888929579613947,-0.129152361333638,0.374273289082169
1580421301.28168,-0.908461127641718,-0.12133974212253,0.292729076066223
1580421301.31365,-0.916762035553521,-0.067139696345464,0.331792172121766
1580421301.34563,-0.928969253070878,-0.139894712748912,0.310307469291217
1580421301.3776,-0.911390859845884,-0.378179598687725,0.293705653467612
1580421301.40958,-0.998306248569467,-0.0422369726100555,0.150148775463492
1580421301.44155,-1.09840543221179,0.211184863050278,0.0217288471808956
1580421301.47353,-1.09498741130693,-0.206301976043335,0.204837109941252
1580421301.5055,-1.07643244068055,-0.237064164187075,0.181887541008621
1580421301.53747,-1.13746852826734,-0.104737926298924,0.187258716716258
1580421301.56945,-1.24782177462425,-0.258548867017625,0.118410009918364
1580421301.60142,-1.50173189898528,0.060303654535744,-0.0236820019836728
1580421301.6334,-1.5422598611429,-0.237064164187075,0.374273289082169
1580421301.66537,-1.47585259784848,-0.633554589150835,0.168703746089875
1580421301.69735,-0.939223315785458,-0.455329213397421,0.858655680170902
1580421301.72932,-0.500251773861295,-0.451911192492561,0.698496986343176
1580421301.7613,0.268314641031509,-0.109132524605172,0.721446555275808
1580421301.79327,-0.0764171816586554,-0.540291447318227,0.729259174486916
1580421301.82525,-0.215091172655832,-0.726329442282749,0.362554360265506
1580421301.85722,0.00170901045242999,-1.31227588311589,-0.0939955748836496
1580421301.8892,-0.181399252307926,-1.57497520408942,0.784924086366065
1580421301.92148,-0.132082093537804,-0.71168078126192,0.639414053559168
1580421301.95345,-0.441168841077287,0.415289539940488,0.565682459754331
1580421301.98543,-1.0637369344625,0.612069886320288,0.668711375600825
1580421302.0174,-1.19508659494926,-0.268802929732205,0.341557946135651
1580421302.04938,-1.23414969100481,-1.10133516441596,-0.157473105973907
1580421302.08135,-1.19606317235065,-0.875745784695201,0.241458762493323
1580421302.11333,-1.18629739833677,-0.281986724650951,0.192141603723201
1580421302.1453,-1.18971541924163,-0.968520637827115,0.160891126878766
1580421302.17728,-0.882093537804227,-1.42458228427558,0.168703746089875
1580421302.20925,-0.995376516365301,-0.220462348363469,0.635996032654308
1580421302.24123,-0.950942244602121,-0.112062256809338,0.466071564812694
1580421302.2732,-0.70826276035706,-0.577889677271687,0.726329442282751
1580421302.30517,-0.96900892652781,-0.272220950637065,0.665293354695965
1580421302.33715,-0.95533684290837,-0.0871595330739297,1.08668650339513
1580421302.36912,-1.34450293736172,0.333257038223849,-0.0563973449301898
1580421302.4011,-1.03639276722362,-0.354741741054399,0.838147554741742
1580421302.43307,-0.736095216296635,-0.407965209430076,0.370366979476614
1580421302.46505,-0.675059128709849,-0.486579690241856,0.576424811169606
1580421302.49702,-0.840588998245213,-0.388921950102999,0.689707789730679
1580421302.529,-0.89039444571603,-0.187747005416952,0.542244602121006
1580421302.56097,-0.846936751354239,-0.298588540474556,0.444586861982145
1580421302.59295,-0.854749370565347,-0.501228351262684,0.382085908293277
1580421302.62492,-0.896742198825056,-0.382085908293279,0.426031891355763
1580421302.6569,-0.917250324254216,-0.0695811398489354,0.275638971541923
1580421302.68887,-0.991470206759747,-0.345464255741208,0.346440833142594
1580421302.72085,-0.930434119172961,-0.309819180590525,0.39380483710994
1580421302.75282,-0.830334935530633,-0.313237201495385,0.481696803234911
1580421302.7848,-0.941176470588236,-0.189700160219729,0.441168841077285
1580421302.81677,-0.96900892652781,-0.238040741588463,0.351812008850231
1580421302.84875,-0.953871976806287,-0.402105745021744,0.427496757457845
1580421302.88072,-1.18043793392843,-0.286869611657893,0.246341649500266
1580421302.9127,-1.17262531471733,-0.221438925764858,0.130617227435721
1580421302.94467,-1.26393530174716,-0.286869611657893,0.184817273212786
1580421302.97665,-1.39382009613184,-0.120363164721141,0.0476081483176927
1580421303.00862,-1.45387960631724,-0.073975738155184,0.0520027466239412
1580421303.0406,-1.60329594872969,0.0100099183642328,-0.132570382238498
1580421303.07257,-1.74148165102617,0.25024795910582,-0.206790264744029
1580421303.10454,-1.69460593575952,-0.296147096971085,0.0334477759975584
1580421303.13652,-1.01734950789654,-0.284428168154422,0.237064164187075
1580421303.16849,-0.504646372167544,-0.216556038757915,1.63845273517968
1580421303.20077,-0.298588540474556,0.212649729152361,0.55298695353628
1580421303.23275,0.219485770962081,-0.392339971007859,0.531990539406426
1580421303.26472,0.0896009765774011,-1.24440375371939,0.474860761425191
1580421303.2967,0.0510261692225527,-0.759533073929962,0.5940032043946
1580421303.32867,-0.0646982528419926,0.070557717250324,0.215579461356526
1580421303.36065,-0.505622949568933,0.95533684290837,0.714122224765394
1580421303.39262,-0.878187228198673,0.463141832608528,0.603280689707791
1580421303.4246,-1.31569390402075,-0.433844510566873,0.706309605554285
1580421303.45657,-1.42800030518044,-1.52858777752346,0.442633707179368
1580421303.48855,-1.28981460288396,-0.662851911192492,1.02565041580835
1580421303.52052,-1.33571374074922,-0.903089951934081,0.5769130998703
1580421303.5525,-1.47243457694362,0.393316548409246,0.143801022354467
1580421303.58447,-1.02760357061112,1.2776073853666,0.552498664835586
1580421303.61645,-1.01149004348821,-0.947035934996567,0.857190814068819
1580421303.64842,-0.438727397573816,-1.70339513237201,0.377691309987028
1580421303.6804,-0.405523765926604,-1.01197833218891,1.11451895933471
1580421303.71237,-0.964614328221561,0.326420996414129,0.556893263141834
1580421303.74435,-0.892347600518807,0.0710460059510183,0.582284275577937
1580421303.77632,-0.697520408941786,-0.938735027084764,0.453376058594642
1580421303.8083,-0.856702525368124,-0.768810559243153,0.430426489662011
1580421303.84027,-0.994888227664607,0.224856946669718,0.392339971007857
1580421303.87224,-0.941176470588236,-0.2434119172961,0.423590447852291
1580421303.90422,-0.994399938963912,-0.617441062027924,0.357183184557869
1580421303.93619,-1.33571374074922,-0.0427252613107498,-0.108644235904478
1580421303.96817,-1.26784161135271,0.137453269245441,-0.251712825207905
1580421304.00014,-1.57155718318456,-0.024170290684367,-0.0578622110322726
1580421304.03212,-1.6960708018616,0.0383306630045013,-0.248294804303043
1580421304.06409,-1.98709086747539,0.00610360875867855,-0.418219272144656
1580421304.09607,-1.82302586404212,-0.0676279850461583,-0.0939955748836496
1580421304.12804,-1.76638437476158,-0.593514915693904,-0.105714503700312
1580421304.16002,-1.00123598077363,-0.178957808804455,0.641367208361945
1580421304.19199,-0.307866025787748,-0.483161669336996,1.49440756847486
1580421304.22397,-0.0759288929579611,0.499275196459905,0.51880674448768
1580421304.25594,0.391363393606468,-0.251224536507211,0.541268024719617
1580421304.28792,0.471442740520331,-0.845471885252156,0.303959716182192
1580421304.31989,0.219974059662775,-0.434821087968261,0.212649729152361
1580421304.35187,-0.279545281147479,-0.0300297550926985,0.186282139314869
1580421304.38384,-0.671641107804989,0.385015640497443,0.778576333257039
1580421304.41582,-1.3718471046006,0.364019226367589,0.406988632028686
1580421304.44779,-1.78591592278935,-1.54714274814984,0.697520408941788
1580421304.48007,-1.13698023956664,-0.218509193560692,1.47878233005264
