Timestamp_seconds,Accel_X_g,Accel_Y_g,Accel_Z_g
1580421251.43069,-0.973403524834058,-0.0178225375753414,0.162844281681544
1580421251.46245,-0.976821545738918,-0.0646982528419926,0.164797436484321
1580421251.49422,-0.981216144045167,-0.0891126878767068,0.142336156252384
1580421251.52599,-0.995864805065995,-0.103273060196841,0.150148775463492
1580421251.55775,-1.0036774242771,-0.080811779964904,0.134523537041275
1580421251.58952,-0.982192721446555,-0.0368657969024184,0.144289311055161
1580421251.62129,-0.991958495460441,-0.0544441901274126,0.142824444953078
1580421251.65306,-0.983657587548638,-0.0368657969024184,0.159426260776684
1580421251.68482,-0.989028763256275,-0.048096437018387,0.150148775463492
1580421251.71659,-0.993911650263218,-0.0427252613107498,0.139406424048218
1580421251.74836,-0.98268101014725,-0.0754406042572668,0.155519951171129
1580421251.78013,-0.990493629358358,-0.0476081483176927,0.134035248340581
1580421251.81189,-0.991470206759747,-0.0290531776913099,0.137453269245441
1580421251.84366,-0.990005340657664,-0.0368657969024184,0.158449683375295
1580421251.87543,-0.983169298847944,-0.034424353398947,0.157473105973907
1580421251.9072,-0.981704432745861,-0.0402838178072784,0.141359578850995
1580421251.93896,-0.98609903105211,-0.0583504997329669,0.141359578850995
1580421251.97073,-0.991958495460441,-0.0588387884336612,0.149172198062104
1580421252.0025,-0.986587319752804,-0.0681162737468526,0.156984817273212
1580421252.03427,-0.999282825970855,-0.0505378805218584,0.152590218966964
1580421252.06603,-0.980239566643778,-0.0393072404058898,0.164309147783626
1580421252.0978,-0.984145876249332,-0.0490730144197755,0.156984817273212
1580421252.12957,-0.976821545738918,-0.0656748302433812,0.168215457389181
1580421252.16133,-0.990005340657664,-0.048096437018387,0.159426260776684
1580421252.1931,-0.981216144045167,-0.0520027466239412,0.155031662470435
1580421252.22487,-0.987075608453498,-0.0524910353246355,0.152101930266269
1580421252.25664,-0.989028763256275,-0.0520027466239412,0.160891126878766
1580421252.2884,-0.982192721446555,-0.0568856336308841,0.166750591287098
1580421252.32017,-0.984634164950027,-0.0734874494544897,0.162355992980849
1580421252.35194,-0.986587319752804,-0.0607919432364383,0.161867704280155
1580421252.38371,-0.984634164950027,-0.0642099641412983,0.181399252307926
1580421252.41547,-0.978286411841001,-0.077393759060044,0.159914549477378
1580421252.44724,-0.97926298924239,-0.0651865415426869,0.154543373769741
1580421252.47901,-0.983657587548638,-0.0563973449301898,0.177492942702372
1580421252.51083,-0.97926298924239,-0.0578622110322726,0.174074921797512
1580421252.5426,-0.975356679636835,-0.0646982528419926,0.172610055695429
1580421252.57437,-0.985122453650721,-0.0744640268558783,0.171145189593346
1580421252.60613,-0.980239566643778,-0.0881361104753182,0.181399252307926
1580421252.6379,-0.979751277943084,-0.0749523155565726,0.176516365300984
1580421252.66967,-0.972915236133364,-0.0891126878767068,0.169680323491264
1580421252.70144,-0.977798123140307,-0.0700694285496297,0.174074921797512
1580421252.7332,-0.97584496833753,-0.0588387884336612,0.177981231403066
1580421252.76497,-0.983169298847944,-0.0720225833524069,0.182864118410009
1580421252.79674,-0.984145876249332,-0.0866712443732354,0.173098344396124
1580421252.82851,-0.974868390936141,-0.0939955748836496,0.166750591287098
1580421252.86027,-0.97242694743267,-0.0988784618905925,0.179446097505149
1580421252.89204,-0.969985503929198,-0.126222629129472,0.177492942702372
1580421252.92381,-0.972915236133364,-0.0935072861829553,0.183840695811398
1580421252.95558,-0.98951705195697,-0.037842374303807,0.196047913328755
1580421252.98734,-0.97926298924239,-0.0612802319371326,0.164309147783626
1580421253.01911,-0.987075608453498,-0.0578622110322726,0.149660486762798
1580421253.05088,-0.977798123140307,-0.0632333867399097,0.166750591287098
1580421253.08265,-0.983657587548638,-0.0661631189440754,0.193606469825284
1580421253.11441,-0.983657587548638,-0.077393759060044,0.176516365300984
1580421253.14618,-0.979751277943084,-0.0813000686655982,0.177004654001678
1580421253.17795,-0.980727855344472,-0.0461432822156098,0.187747005416952
1580421253.20971,-0.991470206759747,-0.0246585793850613,0.171633478294041
1580421253.24148,-0.986587319752804,-0.037842374303807,0.187747005416952
1580421253.27325,-0.987075608453498,0.0271000228885327,0.213138017853055
1580421253.30502,-0.972915236133364,0.112062256809338,0.239017318989852
1580421253.33678,-0.966079194323644,0.218020904859998,0.26392004272526
1580421253.36855,-0.959731441214618,0.221438925764858,0.316166933699549
1580421253.40032,-0.99293507286183,0.0251468680857556,0.329350728618294
1580421253.43209,-1.29079118028534,-0.230228122377355,0.0930189974822611
1580421253.46385,-1.29958037689784,-0.273685816739148,0.189211871519035
1580421253.49562,-1.01637293049516,-0.495857175555047,-0.0656748302433812
1580421253.52739,-0.865003433279927,-0.259525444419014,0.0578622110322726
1580421253.55916,-0.679942015716792,-0.152101930266269,0.0129396505683985
1580421253.59092,-0.77418173495079,-0.207766842145418,0.00268558785381856
1580421253.62269,-0.836194399938964,-0.536873426413367,-0.0822766460669868
1580421253.65446,-0.868909742885482,-0.582772564278629,0.0354009308003356
1580421253.68623,-0.920668345159076,-0.323979552910659,0.0402838178072784
1580421253.71799,-0.906996261539636,0.0251468680857556,0.203372243839169
1580421253.74976,-1.04518196383612,-0.0490730144197755,0.204837109941252
1580421253.78158,-1.03639276722362,-0.181887541008621,0.139894712748912
1580421253.81335,-1.02516212710765,-0.193606469825284,0.203860532539863
1580421253.84512,-0.915785458152133,-0.231204699778743,0.251712825207903
1580421253.87689,-0.935805294880598,-0.0666514076447697,0.23315785458152
1580421253.90865,-0.929945830472267,0.060303654535744,0.295658808270389
1580421253.94042,-0.885023270008393,-0.184817273212786,0.261966887922483
1580421253.97219,-1.13893339436942,0.214114595254443,0.0593270771343555
1580421254.00396,-1.16237125200275,0.0827649347676811,0.300541695277332
1580421254.03572,-1.02711528191043,-0.0920424200808725,0.0842298008697639
1580421254.06749,-0.976821545738918,0.0295414663920042,0.160402838178072
1580421254.09926,-0.973891813534753,-0.0100099183642328,0.172610055695429
1580421254.13103,-0.96900892652781,-0.12475776302739,0.100343327992675
1580421254.16279,-0.959243152513924,-0.0803234912642097,0.0134279392690928
1580421254.19456,-0.968032349126421,-0.0520027466239412,0.0842298008697639
1580421254.22633,-0.993911650263218,-0.00854505226214997,0.0822766460669868
1580421254.2581,-1.01100175478752,-0.0769054703593497,-0.000732433051041426
1580421254.28986,-1.01393148699168,-0.0114747844663157,0.0139162279697871
1580421254.32163,-1.0207675288014,-0.0422369726100555,-0.0363775082017241
1580421254.3534,-1.02467383840696,-0.170656900892652,-0.0769054703593497
1580421254.38516,-1.05885404745556,-0.280521858548868,-0.0563973449301898
1580421254.41693,-1.01832608529793,-0.339604791332876,0.0197756923781185
1580421254.4487,-0.993911650263218,-0.300541695277333,0.0471198596169984
1580421254.48047,-1.00074769207294,-0.131105516136415,-0.0607919432364383
1580421254.51223,-0.979751277943084,-0.0847180895704582,-0.060303654535744
1580421254.544,-0.978286411841001,-0.103273060196841,-0.0549324788281069
1580421254.57577,-1.01197833218891,-0.164797436484321,0.00317387655451284
1580421254.60754,-0.974380102235447,-0.111573968108644,0.0197756923781185
1580421254.6393,-0.995864805065995,0.00268558785381856,0.0583504997329669
1580421254.67107,-0.977309834439613,0.073975738155184,0.0383306630045013
1580421254.70284,-1.00172426947433,-0.0178225375753414,0.0197756923781185
1580421254.73461,-0.999282825970855,-0.155031662470435,0.0900892652780954
1580421254.76637,-1.00270084687572,0.0271000228885327,0.0930189974822611
1580421254.79814,-1.01441977569238,-0.101319905394064,0.060303654535744
1580421254.82991,-1.04811169604028,-0.154543373769741,0.0046387426565957
1580421254.86168,-1.05201800564584,-0.198489356832226,0.00317387655451284
1580421254.89344,-1.06324864576181,-0.131105516136415,0.0686045624475469
1580421254.92521,-1.01393148699168,-0.186770428015564,0.107179369802395
1580421254.95698,-0.986587319752804,-0.139894712748912,0.11108567940795
1580421254.98874,-1.01686121919585,-0.234134431982909,0.164797436484321
1580421255.02051,-0.912855725947967,-0.510505836575875,0.142336156252384
1580421255.0524,-0.990005340657664,-0.439703974975204,0.0817883573662925
1580421255.08417,-1.09303425650416,-0.380621042191196,-0.00366216525520713
1580421255.11593,-1.1150072480354,-0.336186770428016,-0.00219729915312428
1580421255.1477,-0.978286411841001,-0.429449912260624,-0.0417486839093613
1580421255.17947,-0.848401617456322,-0.946547646295873,-0.330815594720379
1580421255.21124,-0.597909514000152,-0.31958495460441,0.037842374303807
1580421255.24301,-0.42896162355993,-0.373785000381476,0.0568856336308841
1580421255.27477,-0.554940108339055,-0.755626764324408,-0.107179369802395
1580421255.30654,-0.594979781795987,-0.644785229266803,-0.0183108262760356
1580421255.33831,-0.640878919661249,-0.580819409475852,-0.00903334096284425
1580421255.37008,-0.757091630426491,-0.530525673304341,-0.00268558785381856
1580421255.40184,-0.952895399404898,-0.212649729152361,0.184328984512092
1580421255.43361,-1.11403067063401,-0.109620813305867,0.285404745555809
1580421255.46538,-1.22291905088884,-0.224856946669718,0.207766842145418
1580421255.49715,-1.14186312657359,-0.297611963073168,0.189211871519035
1580421255.52892,-1.07643244068055,-0.198001068131532,0.152101930266269
1580421255.56068,-1.00856031128405,0.0295414663920042,0.184817273212786
1580421255.59245,-0.921644922560464,-0.142824444953078,0.155031662470435
1580421255.62422,-0.861097123674373,-0.299076829175251,0.170656900892652
1580421255.65599,-0.877698939497979,-0.135500114442664,0.208255130846112
1580421255.68775,-0.856702525368124,0.0568856336308841,0.158937972075989
1580421255.71952,-1.08570992599374,0.170656900892652,0.240970473792629
1580421255.75129,-0.937270160982681,0.183840695811398,0.402594033722437
1580421255.78306,-1.05738918135348,0.112550545510032,0.000732433051041426
1580421255.81483,-1.21217669947356,0.0329594872968642,0.0622568093385212
1580421255.84659,-1.08717479209583,-0.261478599221791,0.107179369802395
1580421255.87836,-0.958266575112535,-0.288334477759976,0.0749523155565726
1580421255.91013,-0.93141069657435,-0.148683909361409,0.135988403143358
1580421255.9419,-0.976333257038224,-0.0495613031204698,0.125734340428778
1580421255.97367,-1.04127565423056,0.0114747844663157,-0.00854505226214997
1580421256.00543,-1.03541618982223,0.11108567940795,-0.0393072404058898
1580421256.0372,-1.03443961242084,0.0539559014267184,0.0129396505683985
1580421256.06897,-1.02906843671321,-0.184328984512092,-0.00659189745937283
1580421256.10074,-1.00025940337224,-0.137941557946135,0.0646982528419926
1580421256.1325,-1.01393148699168,-0.0354009308003356,0.0627450980392155
1580421256.16427,-0.984634164950027,-0.165285725185015,0.0256351567864499
1580421256.19604,-0.97926298924239,-0.0505378805218584,0.0520027466239412
1580421256.22781,-0.995864805065995,-0.0832532234683754,0.0476081483176927
1580421256.25958,-0.983657587548638,-0.129152361333638,0.0656748302433812
1580421256.29134,-1.00221255817502,-0.129640650034332,0.0158693827725642
1580421256.32321,-1.02760357061112,-0.153078507667658,0.0290531776913099
1580421256.35498,-1.00758373388266,-0.177004654001678,0.0598153658350498
1580421256.38675,-1.02809185931182,-0.0817883573662925,-0.0187991149767299
1580421256.41851,-1.0207675288014,-0.0725108720531011,-0.0075684748607614
1580421256.45028,-1.0124666208896,-0.146730754558632,0.0295414663920042
1580421256.48205,-0.992446784161135,-0.12475776302739,0.024170290684367
1580421256.51382,-0.978286411841001,-0.0881361104753182,0.0539559014267184
1580421256.54558,-0.959731441214618,-0.111573968108644,0.044678416113527
1580421256.57735,-1.03102159151598,-0.133546959639887,0.0290531776913099
1580421256.60912,-1.0471351186389,-0.198977645532921,0.0529793240253298
1580421256.64088,-0.991958495460441,-0.23657587548638,0.0803234912642097
1580421256.67265,-1.01051346608682,-0.155031662470435,0.0510261692225527
1580421256.70442,-1.11305409323262,-0.0402838178072784,0.130617227435721
1580421256.73619,-1.15992980849927,-0.00366216525520713,0.265873197528038
1580421256.76795,-1.08424505989166,-0.347905699244679,0.154543373769741
1580421256.79972,-1.06910811017014,-0.556893263141832,0.044678416113527
1580421256.83149,-1.04274052033265,-0.662363622491798,-0.101808194094758
1580421256.86326,-0.84254215304799,-0.622812237735561,-0.174563210498206
1580421256.89502,-0.603280689707789,-0.535408560311284,-0.0358892195010299
1580421256.92679,-0.599862668802929,-0.469489585717556,0.108644235904478
1580421256.95856,-0.513435568780041,-0.573006790264744,0.0202639810788128
1580421256.99033,-0.493415732051576,-0.579842832074464,0.0109864957656214
1580421257.02209,-0.554451819638361,-0.637949187457084,0.0725108720531011
1580421257.05386,-0.626718547341115,-0.717051956969557,0.0153810940718699
1580421257.08563,-0.817639429312582,-0.663828488593881,-0.0690928511482412
1580421257.1174,-0.943129625391013,-0.304448004882888,0.178469520103761
1580421257.14916,-1.07496757457847,-0.0988784618905925,0.28101014724956
1580421257.18093,-1.16481269550622,-0.234134431982909,0.238040741588463
1580421257.2127,-1.15455863279164,-0.248783093003738,0.271732661936369
1580421257.24446,-1.05934233615625,-0.0354009308003356,0.255619134813458
1580421257.27623,-0.956313420309758,-0.0500495918211641,0.237552452887769
1580421257.308,-0.91090257114519,-0.0900892652780954,0.141359578850995
1580421257.33977,-0.892835889219501,-0.0729991607537954,0.134523537041275
1580421257.37153,-0.872327763790341,-0.0402838178072784,0.135011825741969
1580421257.4033,-1.02906843671321,0.221438925764858,0.108644235904478
1580421257.43507,-0.960219729915313,0.156496528572518,0.157961394674601
1580421257.46684,-0.96900892652781,-0.0178225375753414,0.217044327458609
1580421257.4986,-1.08570992599374,-0.0397955291065841,0.198977645532921
1580421257.53037,-1.14186312657359,-0.158449683375295,0.166262302586404
1580421257.56214,-0.987563897154192,-0.325932707713436,0.0144045166704814
1580421257.5939,-1.00074769207294,-0.254154268711376,-0.0178225375753414
1580421257.62567,-0.97584496833753,-0.209231708247501,0.0490730144197755
1580421257.65744,-0.96559090562295,-0.0627450980392155,0.228274967574578
1580421257.68921,-0.966079194323644,0.0690928511482412,0.193118181124589
1580421257.72097,-1.03248645761807,0.0559090562294955,0.0168459601739528
1580421257.75274,-1.03443961242084,-0.140871290150301,-0.0783703364614325
1580421257.78451,-1.06471351186389,0.000732433051041426,-0.0505378805218584
1580421257.81628,-1.03492790112154,0.0886243991760125,0.0393072404058898
1580421257.84804,-0.974380102235447,-0.0334477759975584,0.107179369802395
1580421257.87981,-0.980727855344472,-0.0554207675288012,-0.0109864957656214
1580421257.91158,-1.02320897230488,-0.224368657969023,0.0734874494544897
1580421257.94335,-0.980727855344472,0.0178225375753414,0.0539559014267184
1580421257.97512,-0.964126039520867,-0.126710917830167,0.0583504997329669
1580421258.00688,-1.03492790112154,-0.265873197528039,0.0437018387121384
1580421258.03865,-1.01490806439307,-0.129640650034332,0.0466315709163041
1580421258.07042,-0.99635309376669,-0.024170290684367,0.0192874036774242
1580421258.10219,-1.0041657129778,-0.0686045624475469,0.0236820019836728
1580421258.13396,-1.01734950789654,-0.0305180437933927,0.0490730144197755
1580421258.16572,-1.02613870450904,-0.034424353398947,0.0046387426565957
1580421258.19749,-0.995376516365301,-0.139894712748912,0.031006332494087
1580421258.22926,-1.03297474631876,-0.135500114442664,0.0402838178072784
1580421258.26103,-1.0642252231632,-0.209231708247501,0.0559090562294955
1580421258.29279,-1.03053330281529,-0.120363164721141,0.100343327992675
1580421258.32456,-1.03248645761807,-0.0173342488746471,0.0891126878767068
1580421258.35633,-1.03639276722362,-0.175051499198901,0.108155947203784
1580421258.3881,-1.05641260395209,-0.164797436484321,0.120363164721141
1580421258.41987,-1.17116044861524,-0.073975738155184,0.23999389639124
1580421258.45163,-1.17262531471733,-0.208743419546806,0.220950637064163
1580421258.4834,-1.04957656214237,-0.417242694743267,0.118410009918364
1580421258.51517,-0.983657587548638,-0.515877012283513,0.0607919432364383
1580421258.54694,-0.837170977340353,-0.799572747386893,-0.151125352864881
1580421258.5787,-0.610605020218204,-0.458747234302281,-0.0461432822156098
1580421258.61047,-0.590096894789044,-0.289799343862059,0.0339360646982527
1580421258.64224,-0.577401388570992,-0.680430304417486,-0.105714503700312
1580421258.67401,-0.52808422980087,-0.729747463187609,-0.0534676127260241
1580421258.70578,-0.506111238269627,-0.631113145647364,-0.0505378805218584
1580421258.73755,-0.639414053559166,-0.575936522468909,0.027588311589227
1580421258.76931,-0.757091630426491,-0.459235523002976,-0.00659189745937283
1580421258.80108,-0.970962081330587,-0.370366979476616,0.0505378805218584
1580421258.83285,-1.07301441977569,-0.338628213931488,0.151613641565575
1580421258.86471,-1.12037842374304,-0.438239108873121,0.0837415121690697
1580421258.89648,-1.12135500114443,-0.394293125810636,0.126710917830167
1580421258.92825,-1.08424505989166,-0.219974059662775,0.191165026321812
1580421258.96002,-1.00758373388266,-0.0466315709163041,0.188235294117646
1580421258.99179,-0.916762035553521,-0.00708018616006711,0.201419089036392
1580421259.02355,-0.891859311818113,-0.0231937132829785,0.188723582818341
1580421259.05532,-0.867933165484093,-0.000732433051041426,0.163332570382238
1580421259.08709,-0.956313420309758,0.0300297550926985,-0.0427252613107498
1580421259.11886,-1.10182345311665,0.180910963607232,0.596932936598765
1580421259.15063,-0.849866483558404,-0.258060578316931,0.177492942702372
1580421259.18239,-1.23317311360342,0.198489356832226,0.389898527504386
1580421259.21416,-1.17311360341802,0.153078507667658,0.23657587548638
1580421259.24593,-0.947035934996567,-0.292240787365531,0.213626306553749
1580421259.2777,-0.978286411841001,-0.108644235904478,0.0256351567864499
1580421259.30946,-0.959243152513924,0.0690928511482412,-0.0573739223315783
1580421259.34123,-0.988540474555581,-0.0437018387121384,0.0349126420996413
1580421259.373,-1.0295567254139,-0.0178225375753414,0.102296482795452
1580421259.40477,-1.01197833218891,0.10766765850309,0.0749523155565726
1580421259.43654,-1.03102159151598,-0.044678416113527,-0.0539559014267184
1580421259.4683,-1.01393148699168,-0.253177691309988,-0.0969253070878153
1580421259.50007,-1.01441977569238,-0.202883955138475,0.0383306630045013
1580421259.53184,-1.02809185931182,-0.01196307316701,0.0871595330739297
1580421259.56361,-1.01002517738613,-0.243900205996795,0.00854505226214997
1580421259.59538,-1.00904859998474,-0.154543373769741,-0.00659189745937283
1580421259.62714,-1.00856031128405,0.0212405584802013,-0.00122072175173571
1580421259.65891,-0.976333257038224,-0.0554207675288012,0.0197756923781185
1580421259.69068,-0.989028763256275,-0.10766765850309,0.037842374303807
1580421259.72245,-0.995376516365301,-0.0407721065079727,0.0612802319371326
1580421259.75422,-1.00025940337224,-0.0437018387121384,0.0939955748836496
1580421259.78598,-1.00465400167849,-0.110109102006561,0.067139696345464
1580421259.81775,-1.01002517738613,0.00659189745937283,-0.0397955291065841
1580421259.84952,-1.0300450141146,0.0046387426565957,-0.0173342488746471
1580421259.88129,-1.00660715648127,-0.102296482795452,0.0593270771343555
1580421259.91305,-1.00660715648127,-0.189700160219729,0.0656748302433812
1580421259.94482,-1.05201800564584,-0.192629892423895,0.0769054703593497
1580421259.97659,-1.06715495536736,-0.183352407110704,0.0959487296864268
1580421260.00836,-1.05934233615625,-0.0622568093385212,0.103273060196841
1580421260.04012,-1.05641260395209,-0.041260395208667,0.0856946669718468
1580421260.07189,-1.14967574578469,0.0563973449301898,0.0910658426794839
1580421260.10366,-1.14528114747845,-0.176516365300984,0.225833524071106
1580421260.13547,-0.993911650263218,-0.509529259174487,0.272709239337757
1580421260.16723,-1.03199816891737,-0.491950865949493,0.176028076600289
1580421260.199,-1.07545586327916,-0.331792172121768,0.0363775082017241
1580421260.23077,-0.912367437247273,-0.407965209430076,-0.0314946211947813
1580421260.26254,-0.766369115739682,-0.676035706111238,-0.165774013885709
1580421260.29431,-0.72535286488136,-0.762462806134128,-0.34009308003357
1580421260.32608,-0.659433890287632,-0.466071564812696,-0.0251468680857556
1580421260.35784,-0.406988632028687,-0.406012054627299,0.10083161669337
1580421260.38961,-0.478767071030747,-0.817151140611887,-0.0656748302433812
1580421260.42138,-0.573495078965438,-0.787365529869536,-0.0466315709163041
1580421260.45315,-0.546150911726558,-0.54859235523003,0.0202639810788128
1580421260.48492,-0.692149233234149,-0.361089494163425,0.0979018844892039
1580421260.51669,-1.02467383840696,-0.278080415045396,0.0793469138628211
1580421260.54845,-1.11451895933471,-0.370366979476616,0.160891126878766
1580421260.58022,-1.22194247348745,-0.48023193713283,0.10424963759823
1580421260.61199,-1.14332799267567,-0.264408331425956,0.138429846646829
1580421260.64376,-0.98951705195697,-0.0651865415426869,0.171633478294041
1580421260.67553,-0.900160219729916,-0.145265888456549,0.244388494697489
1580421260.7073,-0.909437705043107,-0.194094758525978,0.186282139314869
1580421260.73906,-0.992446784161135,-0.000732433051041426,0.243900205996795
1580421260.77083,-1.13698023956664,0.303959716182192,0.496345464255739
1580421260.8026,-0.89723048752575,-0.104737926298924,0.265384908827343
1580421260.83437,-1.10768291752499,-0.0168459601739528,0.338628213931486
1580421260.86614,-1.10865949492637,0.233646143282215,0.288822766460669
1580421260.89791,-0.96559090562295,-0.279545281147479,0.113038834210727
1580421260.92967,-0.930434119172961,-0.37427328908217,0.0813000686655982
1580421260.96144,-1.01002517738613,-0.159914549477378,0.0646982528419926
1580421260.99321,-1.03736934462501,-0.109620813305867,-0.0319829098954756
1580421261.02498,-1.00807202258335,-0.131593804837109,0.0866712443732354
1580421261.05675,-1.03981078812848,0.0417486839093613,0.0148928053711757
1580421261.08852,-1.0295567254139,-0.0549324788281069,0.00512703135728998
1580421261.12029,-0.999282825970855,-0.125246051728084,-0.00170901045242999
1580421261.15205,-1.02516212710765,-0.00854505226214997,-0.00415045395590141
1580421261.18382,-0.990493629358358,-0.0847180895704582,0.0422369726100555
1580421261.21559,-0.984634164950027,-0.0744640268558783,0.0622568093385212
1580421261.24736,-1.00758373388266,-0.0974135957885096,0.0896009765774011
1580421261.27913,-0.991470206759747,-0.0710460059510183,0.0720225833524069
1580421261.31089,-1.00025940337224,-0.167727168688486,-0.164797436484321
1580421261.34266,-0.994888227664607,-0.148195620660715,-0.0144045166704814
1580421261.37443,-1.01100175478752,-0.129640650034332,-0.0256351567864499
1580421261.40625,-0.999282825970855,-0.137941557946135,0.041260395208667
1580421261.43802,-0.990493629358358,-0.0437018387121384,0.0554207675288012
1580421261.46979,-0.998306248569467,0.00659189745937283,0.0500495918211641
1580421261.50155,-1.06178377965972,-0.0358892195010299,0.0451667048142212
1580421261.53332,-1.01441977569238,-0.0153810940718699,0.0695811398489354
1580421261.56509,-0.98609903105211,-0.0427252613107498,0.0358892195010299
1580421261.59686,-0.987075608453498,-0.0793469138628211,0.0305180437933927
1580421261.62863,-1.08424505989166,-0.101808194094758,0.0437018387121384
1580421261.6604,-1.08278019378958,-0.0744640268558783,0.0871595330739297
1580421261.69216,-1.00221255817502,-0.031006332494087,0.128175783932249
1580421261.72393,-1.02711528191043,-0.0471198596169984,0.133546959639887
1580421261.7557,-1.12623788815137,-0.10424963759823,0.154543373769741
1580421261.78747,-1.13746852826734,-0.173098344396124,0.232181277180132
1580421261.81924,-1.10817120622568,-0.287357900358588,0.274662394140535
1580421261.85101,-1.05104142824445,-0.533455405508507,0.138918135347524
1580421261.88277,-1.02906843671321,-0.619882505531395,0.0441901274128327
1580421261.91454,-0.888441290913253,-0.667734798199435,-0.0227054245822842
1580421261.94631,-0.611093308918898,-0.717051956969557,-0.338628213931488
1580421261.97808,-0.588143739986267,-0.211184863050278,-0.132570382238498
1580421262.00985,-0.509040970473793,-0.271732661936371,-0.0437018387121384
1580421262.04162,-0.622812237735561,-0.673594262607766,-0.217532616159303
1580421262.07338,-0.666269932097352,-0.746349279011215,-0.188235294117646
1580421262.10515,-0.644785229266803,-0.678965438315403,-0.122316319523918
1580421262.13692,-0.6877546349279,-0.511970702677958,-0.122804608224612
1580421262.16869,-0.916273746852827,-0.231204699778743,-0.0686045624475469
1580421262.20046,-1.08473334859235,-0.140871290150301,0.0861829556725411
1580421262.23223,-1.18776226443885,-0.339116502632182,0.160891126878766
1580421262.26399,-1.14235141527428,-0.330327306019685,0.175051499198901
1580421262.29576,-1.0808270389868,-0.0920424200808725,0.193118181124589
1580421262.32753,-0.973403524834058,0.0783703364614325,0.199465934233615
1580421262.3593,-0.990493629358358,0.153078507667658,0.143801022354467
1580421262.39107,-0.878187228198673,0.194583047226672,0.239017318989852
1580421262.42284,-0.837659266041047,0.115480277714198,0.193606469825284
1580421262.4546,-0.848401617456322,0.0505378805218584,0.153078507667658
1580421262.48637,-0.838147554741742,-0.118898298619058,0.0539559014267184
1580421262.51814,-1.18629739833677,0.245853360799572,-0.0925307087815668
1580421262.54991,-0.973403524834058,-0.048096437018387,0.175539787899595
1580421262.58168,-1.15309376668955,-0.365484092469673,0.514900434882126
1580421262.61345,-1.11940184634165,-0.228274967574578,0.534431982909897
1580421262.64521,-0.962661173418784,-0.310307469291219,0.183352407110704
1580421262.677,-0.950942244602121,-0.280033569848174,-0.0544441901274126
1580421262.70877,-1.03688105592432,-0.355718318455787,0.0534676127260241
1580421262.74054,-1.00025940337224,-0.177492942702372,0.0280766002899213
1580421262.77231,-1.07350270847639,0.382085908293277,0.0900892652780954
1580421262.80408,-1.02174410620279,0.0974135957885096,0.135500114442664
1580421262.83584,-0.981216144045167,-0.237064164187075,0.114991989013504
1580421262.86761,-0.994399938963912,-0.0744640268558783,0.0271000228885327
1580421262.89938,-0.991958495460441,0.0578622110322726,0.0363775082017241
1580421262.93115,-0.95533684290837,-0.129640650034332,0.129640650034332
1580421262.96292,-1.00172426947433,-0.149172198062104,0.154543373769741
1580421262.99468,-1.00221255817502,-0.0939955748836496,0.0861829556725411
1580421263.02645,-1.03150988021668,-0.136964980544747,0.0422369726100555
1580421263.05822,-1.00514229037919,-0.0627450980392155,0.0729991607537954
1580421263.08999,-0.981216144045167,-0.0427252613107498,0.128664072632944
1580421263.12176,-0.991470206759747,-0.0163576714732585,0.132570382238498
1580421263.15353,-0.98609903105211,-0.00170901045242999,0.206301976043335
1580421263.18529,-0.987563897154192,-0.0231937132829785,0.165285725185015
1580421263.21706,-0.979751277943084,-0.044678416113527,0.239505607690546
1580421263.24883,-1.05445944914931,0.106691081101701,0.198489356832226
1580421263.2806,-1.20241092545968,0.241458762493323,0.0930189974822611
1580421263.31237,-1.41286335545892,0.0900892652780954,0.221927214465552
1580421263.34414,-1.33083085374228,-0.307866025787748,0.239505607690546
1580421263.37591,-1.27125963225757,-0.301518272678722,0.125734340428778
1580421263.40767,-0.955825131609064,-0.589120317387655,0.179446097505149
1580421263.43944,-0.765392538338293,-0.389410238803693,-0.0720225833524069
1580421263.47121,-0.686289768825818,-0.366948958571756,-0.481208514534218
1580421263.50298,-0.655527580682078,-0.385992217898833,-0.599374380102235
1580421263.53475,-0.613046463721675,-0.279545281147479,-0.619882505531395
1580421263.56651,-0.7219348439765,-0.475837338826581,-0.548104066529335
1580421263.59828,-0.780529488059816,-0.689707789730678,-0.540779736018921
1580421263.63005,-0.796154726482033,-0.698985275043869,-0.434332799267567
1580421263.66182,-0.789806973373008,-0.413824673838407,-0.265873197528039
1580421263.69359,-0.901625085831999,-0.0104982070649271,-0.181399252307926
1580421263.72536,-1.13160906385901,-0.0661631189440754,-0.207766842145418
1580421263.75712,-1.1745784695201,-0.319096665903716,-0.23999389639124
1580421263.78889,-1.14625772487983,-0.398687724116884,-0.316655222400245
1580421263.82066,-1.13893339436942,-0.227786678873883,-0.281498435950256
1580421263.85243,-1.20143434805829,-0.0476081483176927,-0.245853360799572
1580421263.8842,-1.19459830624857,-0.399176012817579,-0.369390402075227
1580421263.91597,-0.931898985275044,-0.51441214618143,-0.0422369726100555
1580421263.94791,-0.970473792629893,-0.135011825741969,-0.0124513618677042
1580421263.97967,-0.953871976806287,-0.0280766002899213,0.108155947203784
1580421264.01144,-0.86988632028687,-0.259037155718319,0.187258716716258
1580421264.04321,-0.928480964370184,-0.264896620126651,0.231204699778743
1580421264.07498,-0.913344014648661,-0.332768749523156,-0.198489356832226
1580421264.10675,-1.20485236896315,-0.0354009308003356,0.466071564812694
1580421264.13852,-1.0720378423743,-0.425055313954376,0.261966887922483
1580421264.17028,-1.01197833218891,-0.284916456855116,0.151613641565575
1580421264.20205,-0.971938658731975,-0.277592126344702,0.0749523155565726
1580421264.23382,-0.993423361562524,-0.333745326924545,-0.0715342946517126
1580421264.26559,-1.02760357061112,-0.184817273212786,0.0207522697795071
1580421264.29736,-0.991958495460441,-0.143801022354467,0.215091172655832
1580421264.32913,-1.07008468757153,-0.222903791866941,0.148195620660715
1580421264.36089,-1.0212558175021,-0.132570382238498,-0.0983901731898982
1580421264.39266,-1.01979095140002,-0.129152361333638,-0.122316319523918
1580421264.42443,-0.975356679636835,-0.0139162279697871,-0.0114747844663157
1580421264.4562,-0.99635309376669,-0.0866712443732354,0.208743419546806
1580421264.48797,-0.993911650263218,-0.185793850614175,0.060303654535744
1580421264.51974,-1.01686121919585,-0.257572289616236,0.0153810940718699
1580421264.5515,-0.995376516365301,-0.253665980010682,0.034424353398947
1580421264.58327,-0.994399938963912,-0.266849774929428,0.0324711985961699
1580421264.61504,-0.99977111467155,-0.210208285648889,0.0183108262760356
1580421264.64681,-1.00221255817502,-0.132082093537804,-0.0271000228885327
1580421264.67858,-0.981216144045167,-0.252689402609294,-0.0202639810788128
1580421264.71035,-1.01393148699168,-0.210696574349583,0.0153810940718699
1580421264.74211,-1.00270084687572,-0.188235294117646,0.0568856336308841
1580421264.77388,-1.03248645761807,-0.142824444953078,0.0656748302433812
1580421264.80565,-1.00074769207294,-0.0407721065079727,0.0349126420996413
1580421264.83742,-1.04762340733959,-0.0598153658350498,0.0593270771343555
1580421264.86919,-1.03395132372015,0.0212405584802013,0.0798352025635154
1580421264.90096,-1.07301441977569,0.102784771496147,0.118410009918364
1580421264.93272,-1.12819104295415,0.154543373769741,0.180422674906538
1580421264.96449,-1.1916685740444,0.138429846646829,0.289799343862057
1580421264.99626,-1.15602349889372,-0.23657587548638,0.289799343862057
1580421265.02803,-1.0896162355993,-0.544197756923781,0.156984817273212
1580421265.0598,-1.12526131074998,-0.399176012817579,0.0256351567864499
1580421265.09157,-0.830823224231327,-0.711192492561226,0.0319829098954756
1580421265.12333,-0.690196078431372,-0.78443579766537,-0.179934386205844
1580421265.1551,-0.628671702143892,-0.198001068131532,0.0339360646982527
1580421265.18687,-0.471442740520333,-0.472419317921721,-0.0358892195010299
1580421265.21875,-0.527107652399481,-0.724864576180666,-0.0231937132829785
1580421265.25052,-0.539803158617532,-0.657969024185549,-0.0397955291065841
1580421265.28229,-0.561776150148775,-0.578377965972381,0.034424353398947
1580421265.31406,-0.685801480125123,-0.654551003280689,-0.0847180895704582
1580421265.34582,-0.821057450217442,-0.488532845044633,-0.0139162279697871
1580421265.37759,-1.13258564126039,-0.283451590753033,0.119386587319752
1580421265.40936,-1.24196231021591,-0.341069657434959,-0.00512703135728998
1580421265.44113,-1.15455863279164,-0.411383230334936,0.112550545510032
1580421265.4729,-1.03443961242084,-0.221927214465552,0.108644235904478
1580421265.50467,-0.990981918059052,-0.0651865415426869,0.123292896925307
1580421265.53644,-0.850843060959793,-0.196047913328755,0.145754177157244
1580421265.56821,-0.956313420309758,-0.024170290684367,0.216556038757915
1580421265.59997,-0.98268101014725,0.204348821240558,-0.0578622110322726
1580421265.63174,-0.93141069657435,-0.0397955291065841,0.257572289616235
1580421265.66351,-1.28737315938048,-0.0432135500114441,-0.0954604409857325
1580421265.69528,-1.16676585030899,-0.348393987945373,0.212161440451666
1580421265.72705,-0.868909742885482,-0.472419317921721,0.0559090562294955
1580421265.75882,-1.03736934462501,-0.00122072175173571,-0.156008239871824
1580421265.79059,-1.09108110170138,-0.204837109941252,-0.0866712443732354
1580421265.82236,-0.991958495460441,-0.263431754024568,-0.0183108262760356
1580421265.85413,-1.01002517738613,0.077393759060044,-0.0485847257190812
1580421265.88589,-1.03053330281529,-0.0681162737468526,0.0461432822156098
1580421265.91766,-0.976333257038224,-0.206301976043335,0.000732433051041426
1580421265.94943,-1.00270084687572,-0.0935072861829553,-0.0114747844663157
1580421265.9812,-1.02858014801251,-0.0827649347676811,0.0290531776913099
1580421266.01297,-1.00514229037919,-0.180422674906538,0.0539559014267184
1580421266.04474,-0.990981918059052,-0.024170290684367,0.0222171358815899
1580421266.07651,-1.0378576333257,-0.067139696345464,0.00952162966353853
1580421266.10828,-1.02809185931182,-0.234622720683603,0.0822766460669868
1580421266.14004,-1.0378576333257,-0.117433432516975,0.0534676127260241
1580421266.17181,-0.976333257038224,0.134035248340581,0.00659189745937283
1580421266.20358,-0.980239566643778,-0.0319829098954756,0.0373540856031127
1580421266.23535,-1.01979095140002,0.0187991149767299,0.0471198596169984
1580421266.26712,-0.999282825970855,-0.0314946211947813,0.114015411612115
1580421266.29889,-1.02858014801251,-0.112550545510032,0.137941557946135
1580421266.33066,-1.07106126497291,-0.120363164721141,0.0993667505912867
1580421266.36243,-1.07057297627222,-0.0646982528419926,0.044678416113527
1580421266.39419,-1.02662699320974,-0.0500495918211641,0.0505378805218584
1580421266.42596,-1.04371709773404,-0.205325398641946,0.0715342946517126
1580421266.45773,-1.07447928587777,-0.264896620126651,0.131105516136415
1580421266.48953,-1.05738918135348,-0.126710917830167,0.184328984512092
1580421266.5213,-1.07594415197986,-0.164797436484321,0.191165026321812
1580421266.55307,-1.01588464179446,-0.592538338292515,0.0822766460669868
1580421266.58484,-1.0129549095903,-0.353276874952316,0.00415045395590141
1580421266.61661,-0.929457541771573,-0.39136339360647,0.00708018616006711
1580421266.64838,-0.968032349126421,-0.672129396505683,-0.323491264209965
1580421266.68015,-0.873792629892424,-0.427985046158541,-0.143312733653772
1580421266.71191,-0.655039291981383,-0.687266346227206,-0.120851453421835
1580421266.74368,-0.509040970473793,-0.936293583581293,-0.189211871519035
1580421266.77545,-0.43921568627451,-0.88697642481117,-0.12133974212253
1580421266.80722,-0.372808422980087,-0.560799572747387,0.0632333867399097
1580421266.83899,-0.573006790264744,-0.301518272678722,0.0612802319371326
1580421266.87076,-0.848889906157016,-0.169192034790569,0.0920424200808725
1580421266.90253,-0.983169298847944,-0.437262531471733,0.149172198062104
1580421266.93429,-1.1579766536965,-0.807385366598002,-0.0349126420996413
1580421266.96606,-1.03053330281529,-0.603280689707789,0.0505378805218584
1580421266.99783,-0.994399938963912,-0.024170290684367,0.0949721522850382
1580421267.0296,-0.930434119172961,-0.159914549477378,0.113527122911421
1580421267.06137,-0.910414282444496,-0.299076829175251,0.00610360875867855
1580421267.09314,-1.09303425650416,0.362066071564811,-0.0607919432364383
1580421267.12491,-0.984145876249332,0.0695811398489354,0.361089494163423
1580421267.15668,-1.11598382543679,-0.290775921263448,0.31519035629816
1580421267.18845,-1.22731364919509,-0.310795757991913,0.207766842145418
1580421267.22021,-0.987075608453498,-0.329350728618296,0.11450370031281
1580421267.25198,-0.949965667200733,0.0437018387121384,-0.000244144350347142
1580421267.28375,-1.02662699320974,0.0285648889906156,-0.0261234454871442
1580421267.31552,-1.00709544518196,-0.212649729152361,0.031006332494087
1580421267.34729,-1.01393148699168,0.0197756923781185,0.034424353398947
1580421267.37906,-1.01149004348821,-0.0515144579232469,-0.00122072175173571
1580421267.41083,-1.05006485084306,-0.382085908293279,0.0729991607537954
1580421267.4426,-1.00172426947433,-0.159426260776684,0.048096437018387
1580421267.47436,-1.02613870450904,0.0246585793850613,0.0227054245822842
1580421267.50613,-0.981704432745861,-0.166262302586404,0.0622568093385212
1580421267.5379,-0.97242694743267,-0.171633478294041,0.0827649347676811
1580421267.56967,-1.01686121919585,-0.0202639810788128,0.070557717250324
1580421267.60144,-1.01002517738613,-0.147219043259327,0.158449683375295
1580421267.63321,-1.02809185931182,0.0202639810788128,-0.0295414663920042
1580421267.66498,-1.03883421072709,0.113527122911421,-0.0388189517051956
1580421267.69675,-1.03053330281529,0.0954604409857325,0.048096437018387
1580421267.72851,-1.0300450141146,0.00903334096284425,0.0666514076447697
1580421267.76031,-1.05055313954376,-0.0246585793850613,0.0969253070878153
1580421267.79208,-1.06910811017014,0.0153810940718699,0.137453269245441
1580421267.82385,-1.14821087968261,0.0510261692225527,0.175539787899595
1580421267.85562,-1.17360189211871,0.109620813305867,0.206790264744029
1580421267.88739,-1.30592813000687,0.174074921797512,0.249759670405126
1580421267.91916,-1.27174792095827,-0.330327306019685,0.248783093003738
1580421267.95093,-1.11696040283818,-0.437750820172427,0.0676279850461583
1580421267.9827,-1.05104142824445,-0.564217593652247,0.0617685206378269
1580421268.01446,-0.853772793163959,-0.726329442282749,-0.396734569314107
1580421268.04623,-0.686289768825818,-0.149660486762798,-0.0349126420996413
1580421268.078,-0.461676966506447,-0.373296711680782,-0.0607919432364383
1580421268.10977,-0.521736476691844,-0.775646601052873,-0.160402838178072
1580421268.14154,-0.508064393072404,-0.713145647364003,-0.0944838635843439
1580421268.17331,-0.516365300984207,-0.630136568245975,-0.0544441901274126
1580421268.20508,-0.548104066529335,-0.528572518501564,-0.0129396505683985
1580421268.23685,-0.726329442282749,-0.464606698710613,-0.0578622110322726
1580421268.26862,-0.922133211261158,-0.308354314488442,0.0373540856031127
1580421268.30038,-1.12819104295415,-0.244876783398183,0.201907377737086
1580421268.33215,-1.26540016784924,-0.218997482261386,0.0935072861829553
1580421268.36392,-1.17067215991455,-0.430914778362707,0.126222629129472
1580421268.39569,-0.98268101014725,-0.183840695811398,0.0910658426794839
1580421268.42746,-0.903578240634776,0.112062256809338,0.186770428015564
1580421268.45923,-0.889417868314641,-0.121828030823224,0.171633478294041
1580421268.491,-1.00074769207294,-0.0505378805218584,-0.102784771496147
1580421268.52277,-1.28151369497215,0.401129167620354,0.452887769893948
1580421268.55453,-0.938735027084764,-0.108155947203784,0.0651865415426869
1580421268.5863,-1.32741283283742,-0.209231708247501,0.147219043259327
1580421268.61807,-1.12477302204929,-0.445563439383536,0.213138017853055
1580421268.64984,-0.835217822537576,-0.363530937666896,0.0856946669718468
1580421268.68161,-1.07154955367361,-0.0910658426794839,-0.0573739223315783
1580421268.71338,-1.04567025253681,-0.119874876020447,-0.0979018844892039
1580421268.74515,-0.99635309376669,-0.252689402609294,-0.0324711985961699
1580421268.77692,-1.05055313954376,0.0744640268558783,0.0407721065079727
1580421268.80868,-1.04371709773404,0.0520027466239412,0.102296482795452
1580421268.84045,-0.997817959868772,-0.240482185091935,0.0168459601739528
1580421268.87222,-0.99635309376669,-0.110597390707255,-0.0124513618677042
1580421268.90399,-0.985122453650721,-0.125246051728084,-0.027588311589227
1580421268.93576,-0.967544060425727,-0.231692988479438,0.044678416113527
1580421268.96753,-0.961684596017395,-0.0974135957885096,0.0432135500114441
1580421268.9993,-1.03199816891737,-0.10766765850309,0.077393759060044
1580421269.03113,-1.04176394293126,-0.0715342946517126,0.0554207675288012
1580421269.0629,-1.02662699320974,-0.0319829098954756,0.0490730144197755
1580421269.09466,-1.04420538643473,0.0642099641412983,-0.0139162279697871
1580421269.12643,-1.01734950789654,0.0471198596169984,0.0368657969024184
1580421269.1582,-1.03297474631876,-0.0441901274128327,0.114991989013504
1580421269.18997,-1.01734950789654,-0.070557717250324,0.138429846646829
1580421269.22174,-1.05690089265278,0.0417486839093613,0.125246051728084
1580421269.25351,-1.10524147402151,0.0500495918211641,0.12133974212253
1580421269.28528,-1.13258564126039,-0.0974135957885096,0.185305561913481
1580421269.31705,-1.26540016784924,-0.150148775463492,0.241947051194018
1580421269.34882,-1.22438391699092,-0.403570611123827,0.212649729152361
1580421269.38058,-1.20289921416037,-0.465094987411307,0.0227054245822842
1580421269.41235,-1.02565041580835,-0.356206607156482,-0.0100099183642328
1580421269.44412,-0.789806973373008,-0.526619363698787,-0.211184863050278
1580421269.47589,-0.566170748455024,-0.772716868848708,-0.282963302052339
1580421269.50766,-0.634531166552224,-0.594003204394598,-0.167727168688486
1580421269.53943,-0.464606698710613,-0.469489585717556,0.131105516136415
1580421269.5712,-0.330327306019685,-0.526619363698787,0.00219729915312428
1580421269.60297,-0.580819409475852,-0.764904249637599,-0.117433432516975
1580421269.63473,-0.589608606088349,-0.715587090867475,-0.0290531776913099
1580421269.6665,-0.570565346761272,-0.392828259708553,0.116456855115587
1580421269.69827,-0.902113374532693,-0.263431754024568,0.0793469138628211
1580421269.73004,-1.22145418478675,-0.239017318989852,0.194094758525978
1580421269.76181,-1.21266498817426,-0.249759670405126,0.256595712214846
1580421269.79358,-1.21852445258259,-0.274662394140536,0.157961394674601
1580421269.82535,-1.01002517738613,-0.0847180895704582,0.238529030289158
1580421269.85712,-0.920668345159076,0.00317387655451284,0.151125352864881
1580421269.88889,-0.870374608987564,-0.119386587319752,0.0422369726100555
1580421269.92065,-0.85963225757229,-0.155519951171129,0.185793850614175
1580421269.95242,-1.23024338139925,0.382085908293277,0.458258945601585
1580421269.98419,-0.843030441748684,0.00122072175173571,0.0930189974822611
1580421270.01596,-1.12135500114443,-0.23657587548638,0.32202639810788
1580421270.04773,-1.44606698710613,-0.254642557412071,0.287357900358586
1580421270.0795,-0.935805294880598,-0.253177691309988,0.133058670939192
1580421270.11127,-0.827893492027162,-0.0207522697795071,-0.0368657969024184
1580421270.14304,-1.05348287174792,-0.173586633096818,-0.181399252307926
1580421270.1748,-1.04908827344167,-0.289311055161365,0.0417486839093613
1580421270.20657,-0.990493629358358,0.141359578850995,0.10083161669337
1580421270.23834,-1.0212558175021,0.0988784618905925,0.00512703135728998
1580421270.27011,-1.03053330281529,-0.272709239337759,-0.0461432822156098
1580421270.30194,-1.0041657129778,-0.304448004882888,0.060303654535744
1580421270.33371,-0.986587319752804,0.0075684748607614,0.0676279850461583
1580421270.36548,-1.00709544518196,-0.0749523155565726,0.0261234454871442
1580421270.39725,-1.00563057907988,-0.250736247806516,0.0788586251621268
1580421270.42902,-0.987075608453498,-0.182864118410009,0.0559090562294955
1580421270.46079,-1.01881437399863,-0.126222629129472,0.0329594872968642
1580421270.49256,-1.04371709773404,-0.217044327458609,0.0202639810788128
1580421270.52432,-0.983169298847944,-0.0339360646982527,0.060303654535744
1580421270.55609,-0.980727855344472,0.130128938735027,0.10083161669337
1580421270.58786,-0.991470206759747,0.106691081101701,0.164309147783626
1580421270.61963,-1.02565041580835,0.0524910353246355,0.161379415579461
1580421270.6514,-0.997817959868772,0.0515144579232469,0.166262302586404
1580421270.68317,-0.994399938963912,0.141847867551689,0.134035248340581
1580421270.71494,-1.14430457007706,0.0207522697795071,0.151125352864881
1580421270.74671,-1.16676585030899,-0.0300297550926985,0.210208285648889
1580421270.77848,-1.28151369497215,-0.0256351567864499,0.343022812237734
1580421270.81025,-1.37087052719921,-0.34692912184329,0.428961623559928
1580421270.84202,-1.26295872434577,-0.301029983978028,0.2605020218204
1580421270.87379,-1.12037842374304,-0.309330891889831,0.0529793240253298
1580421270.90556,-0.957289997711147,-0.259525444419014,-0.406012054627299
1580421270.93733,-0.561776150148775,-0.798596169985505,-0.554940108339055
1580421270.96909,-0.55542839703975,-0.52808422980087,-0.405523765926604
1580421271.00086,-0.534431982909895,-0.363530937666896,-0.225345235370412
1580421271.03263,-0.52466620889601,-0.656504158083466,-0.403570611123827
1580421271.0644,-0.631113145647364,-0.645761806668192,-0.45288776989395
1580421271.09617,-0.601815823605707,-0.472419317921721,-0.351323720149539
1580421271.12794,-0.756115053025102,-0.424078736552987,-0.232181277180132
1580421271.15971,-0.960219729915313,-0.382085908293279,-0.234622720683603
1580421271.19148,-1.09645227740902,-0.311284046692608,-0.0583504997329669
1580421271.22325,-1.20094605935759,-0.341069657434959,-0.0500495918211641
1580421271.25502,-1.14625772487983,-0.310795757991913,0.0461432822156098
1580421271.28679,-1.13160906385901,0.027588311589227,0.0925307087815668
1580421271.31856,-1.18190280003052,-0.121828030823224,-0.153566796368352
1580421271.35033,-0.929457541771573,-0.290775921263448,0.0280766002899213
1580421271.3821,-0.926527809567407,0.0534676127260241,0.00708018616006711
1580421271.41386,-0.971938658731975,0.227786678873883,-0.0925307087815668
1580421271.44563,-0.922133211261158,-0.110109102006561,-0.0695811398489354
1580421271.4774,-1.20387579156176,-0.182375829709315,-0.311772335393302
1580421271.50917,-0.965102616922255,-0.267826352330816,-0.171633478294041
1580421271.54094,-1.20729381246662,-0.279545281147479,0.166750591287098
1580421271.57275,-0.998306248569467,-0.956313420309758,0.504646372167546
1580421271.60452,-0.891859311818113,-0.189211871519035,0.42798504615854
1580421271.63629,-0.969985503929198,-0.122316319523918,0.155519951171129
1580421271.66806,-1.07106126497291,-0.43579766536965,-0.205325398641946
1580421271.69983,-1.00904859998474,-0.101319905394064,-0.024170290684367
1580421271.7316,-1.07643244068055,0.249271381704432,0.118898298619058
1580421271.76337,-1.01100175478752,-0.170168612191958,0.108155947203784
1580421271.79514,-0.984145876249332,-0.224368657969023,0.112062256809338
1580421271.82691,-0.970473792629893,-0.048096437018387,0.144777599755855
1580421271.85868,-0.985122453650721,-0.103761348897535,0.0778820477607383
1580421271.89045,-0.928969253070878,-0.173098344396124,0.0700694285496297
1580421271.92222,-0.987563897154192,-0.0905775539787896,0.0124513618677042
1580421271.95398,-1.02906843671321,-0.224368657969023,0.0769054703593497
1580421271.98575,-1.04518196383612,-0.244876783398183,0.00659189745937283
1580421272.01752,-0.968520637827115,-0.239505607690546,0.0305180437933927
1580421272.04929,-0.986587319752804,-0.292240787365531,0.0871595330739297
1580421272.08106,-1.0041657129778,-0.284428168154422,0.0905775539787896
1580421272.11283,-0.955825131609064,-0.278080415045396,0.0954604409857325
1580421272.1446,-0.970473792629893,-0.302494850080111,0.0256351567864499
1580421272.17637,-1.01002517738613,-0.221927214465552,0.111573968108644
1580421272.20814,-0.983657587548638,-0.122804608224612,0.197512779430838
1580421272.23991,-1.04469367513542,-0.0231937132829785,0.0920424200808725
1580421272.27168,-1.12721446555276,0.0251468680857556,0.0588387884336612
1580421272.30345,-1.16676585030899,0.0720225833524069,0.171633478294041
1580421272.33522,-1.17750820172427,-0.110597390707255,0.29126420996414
1580421272.36698,-1.21608300907912,-0.048096437018387,0.204837109941252
1580421272.39875,-1.37624170290684,0.198489356832226,0.0300297550926985
1580421272.43052,-1.2087586785687,-0.229739833676661,-0.0266117341878385
1580421272.46229,-1.07545586327916,-0.643808651865415,-0.0983901731898982
1580421272.49406,-0.815686274509805,-0.636484321355001,-0.379644464789807
1580421272.52583,-0.582284275577935,-0.0300297550926985,-0.0935072861829553
1580421272.5576,-0.571541924162661,-0.184328984512092,-0.593514915693904
1580421272.58937,-0.683848325322346,-0.56226443884947,-0.597909514000152
1580421272.62114,-0.612069886320286,-1.1833676661326,-0.460212100404364
1580421272.65291,-0.630624856946669,-0.823498893720913,-0.305424582284276
1580421272.68468,-0.631113145647364,-0.397711146715496,-0.227786678873883
1580421272.71645,-0.759044785229268,0.130128938735027,0.0529793240253298
1580421272.74822,-1.13405050736248,-0.189700160219729,0.0046387426565957
1580421272.77999,-1.19850461585412,-0.482185091935607,0.0075684748607614
1580421272.81175,-1.13160906385901,-0.580331120775158,0.0314946211947813
1580421272.84354,-1.01734950789654,-0.169192034790569,0.123781185626001
1580421272.8753,-0.927504386968796,-0.194583047226672,0.138429846646829
1580421272.90707,-0.95533684290837,-0.429449912260624,0.128175783932249
1580421272.93884,-0.989028763256275,0.027588311589227,0.213626306553749
1580421272.97061,-1.00221255817502,0.0827649347676811,0.242923628595406
1580421273.00238,-1.06617837796597,0.0642099641412983,0.279056992446783
1580421273.03415,-1.05104142824445,0.275638971541923,0.229739833676661
1580421273.06592,-1.01930266269932,-0.198977645532921,0.041260395208667
1580421273.09769,-0.912367437247273,-0.409918364232853,0.245853360799572
1580421273.12946,-1.02565041580835,-0.39819943541619,-0.00268558785381856
1580421273.16123,-0.96217288471809,-0.179446097505149,0.0144045166704814
1580421273.193,-1.06031891355764,-0.42896162355993,0.00659189745937283
1580421273.22477,-1.03883421072709,-0.289799343862059,-0.137941557946135
1580421273.25654,-1.0383459220264,-0.162844281681544,-0.096437018387121
1580421273.28831,-1.03736934462501,-0.182375829709315,-0.0427252613107498
1580421273.32008,-1.01441977569238,-0.206790264744029,-0.0588387884336612
1580421273.35184,-0.966079194323644,-0.152101930266269,0.0329594872968642
1580421273.38361,-0.977309834439613,-0.224368657969023,0.044678416113527
1580421273.41538,-0.998794537270161,-0.154543373769741,0.0363775082017241
1580421273.44715,-0.965102616922255,-0.0544441901274126,0.0432135500114441
1580421273.47892,-0.995376516365301,-0.0593270771343555,0.0778820477607383
1580421273.51069,-1.0383459220264,-0.0681162737468526,0.0715342946517126
1580421273.54246,-1.04078736552987,-0.0969253070878153,0.0593270771343555
1580421273.57423,-1.05201800564584,0.0817883573662925,0.0549324788281069
1580421273.606,-1.01881437399863,0.136964980544747,0.0520027466239412
1580421273.63777,-1.06861982146944,0.0554207675288012,0.114015411612115
1580421273.66954,-1.08180361638819,-0.0617685206378269,0.123781185626001
1580421273.70131,-1.11647211413748,-0.0915541313801782,0.276127260242617
1580421273.73308,-1.14674601358053,0.301029983978026,0.132570382238498
1580421273.76484,-1.14381628137636,0.00659189745937283,0.240482185091935
1580421273.79661,-1.30006866559854,0.145265888456549,0.258548867017623
1580421273.82838,-1.41774624246586,0.100343327992675,0.272220950637063
1580421273.86015,-1.39577325093462,-0.127687495231555,0.0456549935149155
1580421273.89192,-1.28981460288396,-0.408941786831464,0.0959487296864268
1580421273.92369,-0.91090257114519,-1.02516212710765,-0.468513008316167
1580421273.95546,-0.591561760891127,-0.510017547875181,-0.0949721522850382
1580421273.98723,-0.346440833142596,-0.247806515602349,0.201907377737086
1580421274.019,-0.322514686808576,-0.769298847943848,-0.0896009765774011
1580421274.05077,-0.43579766536965,-0.811291676203556,-0.0417486839093613
1580421274.08254,-0.428473334859236,-0.817639429312582,-0.0510261692225527
1580421274.11435,-0.572518501564049,-0.7048447394522,0.0598153658350498
1580421274.14612,-0.817151140611887,-0.355718318455787,0.0866712443732354
1580421274.17789,-1.11354238193332,-0.270267795834288,0.0930189974822611
1580421274.20966,-1.30055695429923,-0.609628442816815,0.0183108262760356
1580421274.24143,-1.0637369344625,-0.673594262607766,-0.0534676127260241
1580421274.2732,-0.881605249103533,0.0407721065079727,0.0466315709163041
1580421274.30497,-0.86988632028687,-0.0593270771343555,0.115480277714198
1580421274.33673,-1.01588464179446,-0.222415503166246,0.306889448386357
1580421274.3685,-1.12867933165484,0.305912870984969,0.735118638895248
1580421274.40027,-1.14576943617914,-0.0866712443732354,0.427496757457845
1580421274.43204,-1.36940566109712,-0.545662623025864,0.125246051728084
1580421274.46381,-0.880628671702144,-0.460212100404364,0.197512779430838
1580421274.49558,-0.93482871747921,-0.135011825741969,-0.0886243991760125
1580421274.52735,-1.11012436102846,-0.116945143816281,-0.286381322957199
1580421274.55912,-1.0036774242771,-0.228274967574578,-0.044678416113527
1580421274.59089,-1.04274052033265,-0.0622568093385212,0.0271000228885327
1580421274.62266,-1.00904859998474,-0.0949721522850382,0.00854505226214997
1580421274.65443,-0.973403524834058,-0.232669565880826,0.034424353398947
1580421274.6862,-0.981216144045167,-0.123292896925307,0.00317387655451284
1580421274.71796,-1.01979095140002,-0.077393759060044,0.00219729915312428
1580421274.74973,-0.97242694743267,-0.193606469825284,0.0559090562294955
1580421274.7815,-1.03932249942779,-0.12133974212253,0.0271000228885327
1580421274.81327,-1.03150988021668,-0.155031662470435,0.0876478217746239
1580421274.84504,-1.02760357061112,-0.0622568093385212,0.0554207675288012
1580421274.87681,-0.993911650263218,-0.0104982070649271,0.0358892195010299
1580421274.90858,-1.00465400167849,0.00268558785381856,0.0520027466239412
1580421274.94035,-1.04859998474098,-0.134523537041275,0.135011825741969
1580421274.97212,-1.04029907682918,-0.0251468680857556,0.0969253070878153
1580421275.00389,-1.04274052033265,0.0622568093385212,0.133546959639887
1580421275.03566,-1.12281986724651,0.0598153658350498,0.108155947203784
1580421275.06743,-1.16481269550622,0.166262302586404,0.106202792401007
1580421275.0992,-1.2517280842298,0.0588387884336612,0.230716411078049
1580421275.13097,-1.31032272831312,-0.108644235904478,0.295170519569695
1580421275.16273,-1.32790112153811,-0.311284046692608,0.166750591287098
1580421275.1945,-1.27614251926452,-0.444098573281453,-0.00805676356145568
1580421275.22627,-0.91773861295491,-0.659433890287632,-0.272220950637065
1580421275.25804,-0.654062714579995,-0.668711375600823,-0.332280460822462
1580421275.28981,-0.665293354695963,-0.53833829251545,0.146242465857938
1580421275.32158,-0.337651636530099,-0.442145418478676,0.181399252307926
1580421275.35335,-0.385503929198139,-0.760021362630656,-0.0231937132829785
1580421275.38522,-0.481208514534218,-0.737560082398717,-0.0236820019836728
1580421275.41699,-0.454352635996033,-0.574471656366827,0.102296482795452
1580421275.44876,-0.610116731517509,-0.590096894789044,0.0559090562294955
1580421275.48053,-0.96217288471809,-0.530525673304341,-0.0139162279697871
1580421275.5123,-1.1237964446479,-0.146730754558632,0.228763256275272
1580421275.54407,-1.31032272831312,-0.271244373235676,0.060303654535744
1580421275.57584,-1.20094605935759,-0.69117265583276,0.0212405584802013
1580421275.60761,-0.906507972838941,-0.293705653467613,0.0427252613107498
1580421275.63938,-0.870374608987564,-0.144777599755855,0.0954604409857325
1580421275.67115,-0.823010605020219,-0.331303883421073,0.125246051728084
1580421275.70292,-1.2605172808423,0.578866254673077,0.344975967040511
1580421275.73468,-0.865491721980622,0.0158693827725642,0.107179369802395
1580421275.76645,-1.25123979552911,-0.46655985351339,0.320073243305103
1580421275.79822,-1.29567406729229,-0.194094758525978,0.354253452353703
1580421275.82999,-0.843030441748684,-0.265384908827345,-0.0163576714732585
1580421275.86176,-1.02565041580835,-0.137941557946135,-0.208743419546806
1580421275.89353,-1.07301441977569,-0.263431754024568,-0.123781185626001
1580421275.9253,-1.00709544518196,-0.312260624093996,-0.00512703135728998
1580421275.95707,-0.993911650263218,0.0749523155565726,0.167727168688486
1580421275.98884,-0.962661173418784,0.0568856336308841,0.0822766460669868
1580421276.02061,-0.989028763256275,-0.0832532234683754,-0.073975738155184
1580421276.05238,-1.04420538643473,-0.103761348897535,0.0734874494544897
1580421276.08415,-0.98951705195697,0.01196307316701,0.111573968108644
1580421276.11592,-1.01344319829099,-0.10766765850309,0.0646982528419926
1580421276.14769,-1.04859998474098,-0.165285725185015,0.0178225375753414
1580421276.17946,-0.995864805065995,-0.0490730144197755,0.0417486839093613
1580421276.21122,-1.03932249942779,0.0876478217746239,0.0778820477607383
1580421276.24299,-0.983657587548638,-0.0300297550926985,0.0993667505912867
1580421276.27476,-1.02858014801251,-0.0749523155565726,0.104737926298924
1580421276.30653,-1.0642252231632,-0.140383001449607,0.0988784618905925
1580421276.3383,-1.06813153276875,-0.101319905394064,0.142336156252384
1580421276.37007,-1.15016403448539,-0.0227054245822842,0.104737926298924
1580421276.40184,-1.16285954070344,0.000732433051041426,0.133058670939192
1580421276.43361,-1.35524528877699,0.115968566414892,0.198001068131532
1580421276.46538,-1.37477683680476,-0.044678416113527,0.327885862516212
1580421276.49715,-1.39186694132906,-0.284916456855116,0.0168459601739528
1580421276.52892,-1.1574883649958,-0.342046234836348,0.0349126420996413
1580421276.56069,-0.77076371404593,-0.743907835507743,-0.216556038757915
1580421276.59245,-0.685313191424429,-0.772228580148013,-0.201907377737086
1580421276.62422,-0.55884641794461,-0.602792401007095,0.060303654535744
1580421276.6561,-0.240482185091935,-0.525642786297398,0.133546959639887
1580421276.68787,-0.323491264209965,-0.665293354695963,-0.0461432822156098
1580421276.71964,-0.524177920195315,-0.656504158083466,-0.0256351567864499
1580421276.75141,-0.554451819638361,-0.527595941100175,0.10766765850309
1580421276.78318,-0.703379873350118,-0.50757610437171,0.0969253070878153
1580421276.81495,-0.97926298924239,-0.362554360265507,0.0681162737468526
1580421276.84672,-1.23170824750133,-0.139406424048218,0.153078507667658
1580421276.87848,-1.37819485770962,-0.298588540474556,0.0754406042572668
1580421276.91025,-1.05055313954376,-0.569588769359884,0.103761348897535
1580421276.94202,-0.877698939497979,0.01196307316701,0.0554207675288012
1580421276.97379,-0.845471885252156,0.0280766002899213,0.113527122911421
1580421277.00556,-1.04127565423056,-0.00952162966353853,0.135011825741969
1580421277.03733,-1.24831006332494,0.223392080567635,0.933852140077821
1580421277.0691,-1.08570992599374,0.198001068131532,0.575936522468911
1580421277.10087,-1.34059662775616,-0.579842832074464,0.0515144579232469
1580421277.13264,-0.87330434119173,-0.742931258106355,0.125246051728084
1580421277.16441,-0.937758449683376,-0.232669565880826,-0.162355992980849
1580421277.19618,-1.18727397573815,-0.371343556878005,-0.219974059662775
1580421277.22795,-1.03688105592432,-0.426520180056459,-0.0368657969024184
1580421277.25972,-1.03492790112154,-0.0837415121690697,-0.00415045395590141
1580421277.29149,-0.990005340657664,-0.140383001449607,0.0402838178072784
1580421277.32326,-0.99293507286183,-0.136476691844052,0.0861829556725411
1580421277.35503,-0.943129625391013,0.0324711985961699,0.0466315709163041
1580421277.3868,-0.978286411841001,0.0324711985961699,-0.0217288471808956
1580421277.41857,-1.02369726100557,-0.103273060196841,0.0324711985961699
1580421277.45034,-1.03102159151598,-0.180422674906538,0.0920424200808725
1580421277.48211,-1.0642252231632,0.0354009308003356,0.157473105973907
1580421277.51388,-0.990981918059052,0.118898298619058,0.110109102006561
1580421277.54565,-0.969985503929198,0.0568856336308841,0.0939955748836496
1580421277.57742,-0.998794537270161,0.0798352025635154,0.106691081101701
1580421277.60919,-1.00074769207294,0.110597390707255,0.0822766460669868
1580421277.64096,-1.0129549095903,-0.024170290684367,0.0871595330739297
1580421277.67273,-1.05934233615625,-0.107179369802395,0.145265888456549
1580421277.7045,-1.18873884184024,-0.0153810940718699,0.187747005416952
1580421277.73627,-1.18873884184024,-0.106691081101701,0.25708400091554
1580421277.76804,-1.2600289921416,-0.137453269245441,0.309819180590523
1580421277.79981,-1.31325246051728,-0.427985046158541,0.294193942168306
1580421277.83158,-1.40358587014572,-0.318608377203022,0.00952162966353853
1580421277.86335,-1.13405050736248,-0.149660486762798,-0.152590218966964
1580421277.89512,-0.635019455252918,-0.652597848477912,-0.0930189974822611
1580421277.92691,-0.719981689173723,-0.795178149080645,-0.363530937666896
1580421277.95868,-0.516853589684901,-0.653574425879301,-0.0754406042572668
1580421277.99045,-0.160891126878766,-0.467536430914778,-0.0593270771343555
1580421278.02222,-0.362066071564813,-0.654062714579995,-0.258060578316931
1580421278.05399,-0.662851911192492,-0.766369115739682,-0.249759670405126
1580421278.08576,-0.543221179522392,-0.371343556878005,0.0109864957656214
1580421278.11753,-0.85963225757229,-0.0500495918211641,0.235599298084992
1580421278.1493,-1.32155336842908,-0.179446097505149,0.234134431982909
1580421278.18107,-1.39430838483253,0.0144045166704814,0.209719996948195
1580421278.21284,-1.3713588158999,-0.376226443884947,-0.312748912794691
1580421278.24461,-0.813733119707027,-1.08229190508888,-0.392828259708553
1580421278.27638,-0.881605249103533,-0.116945143816281,-0.172610055695429
1580421278.30815,-1.19899290455482,0.0866712443732354,-0.303471427481499
1580421278.33992,-0.868909742885482,-0.396734569314107,-0.166262302586404
1580421278.37169,-1.25465781643397,-0.0529793240253298,0.141359578850995
1580421278.40346,-1.27858396276799,-1.02516212710765,0.603280689707791
1580421278.43523,-0.847913328755627,-0.382085908293279,0.490485999847408
1580421278.467,-0.934340428778516,0.0822766460669868,-0.0158693827725642
1580421278.49877,-1.06520180056458,-0.543221179522392,0.0109864957656214
1580421278.53054,-0.998306248569467,-0.523201342793927,0.0715342946517126
1580421278.56231,-1.08375677119097,0.314213778896772,0.135500114442664
1580421278.59408,-1.04762340733959,0.145265888456549,0.112550545510032
1580421278.62585,-0.98268101014725,-0.218020904859998,0.149660486762798
1580421278.65762,-1.03150988021668,0.0573739223315783,0.122316319523918
1580421278.6894,-0.980727855344472,0.0539559014267184,0.136476691844052
1580421278.72117,-0.947035934996567,-0.238529030289158,0.12475776302739
1580421278.75294,-0.99977111467155,-0.241458762493323,0.130128938735027
1580421278.78471,-0.976821545738918,-0.215579461356526,0.0881361104753182
1580421278.81648,-1.02467383840696,-0.221438925764858,0.0778820477607383
1580421278.84825,-0.980239566643778,-0.11450370031281,0.144777599755855
1580421278.88002,-0.995864805065995,-0.101319905394064,0.249759670405126
1580421278.91179,-1.01197833218891,0.0803234912642097,0.212649729152361
1580421278.94356,-1.05250629434653,-0.0856946669718468,0.166750591287098
1580421278.97533,-1.02858014801251,0.0813000686655982,0.193606469825284
1580421279.0071,-1.09987029831388,0.204348821240558,0.283939879453726
1580421279.03887,-1.28297856107424,0.215579461356526,0.168703746089875
1580421279.07064,-1.48024719615473,0.300541695277332,0.126710917830167
1580421279.10241,-1.31862363622492,-0.180910963607232,0.140871290150301
1580421279.13418,-1.13795681696803,-0.605233844510566,0.134523537041275
1580421279.16595,-1.11842526894026,-0.319096665903716,-0.177981231403066
1580421279.19775,-0.820569161516747,-0.285404745555811,-0.515388723582818
1580421279.22952,-0.738048371099412,-0.203860532539863,-0.905043106736859
1580421279.26129,-0.695078965438315,-0.185305561913481,-1.01832608529793
1580421279.29306,-0.685801480125123,-0.546150911726558,-0.939711604486153
1580421279.32483,-0.725841153582055,-0.95191882200351,-0.830334935530633
1580421279.3566,-0.697520408941786,-0.771252002746625,-0.677012283512626
1580421279.38838,-0.668223086900129,-0.247806515602349,-0.390875104905776
1580421279.42015,-0.79468986037995,0.131593804837109,-0.367925535973145
1580421279.45192,-1.11061264972915,-0.166750591287098,-0.419195849546044
1580421279.48369,-1.15651178759441,-0.48364995803769,-0.32642099641413
1580421279.51546,-1.25905241474022,-0.699961852445258,-0.43921568627451
1580421279.54723,-1.09498741130693,-0.505622949568933,-0.303959716182193
1580421279.579,-1.07399099717708,-0.295658808270391,-0.143801022354467
1580421279.61077,-1.08863965819791,-0.455329213397421,0.0212405584802013
1580421279.64254,-0.938735027084764,-0.261478599221791,-0.0598153658350498
1580421279.67431,-0.915785458152133,-0.0495613031204698,0.142336156252384
1580421279.70608,-0.855725947966736,-0.339604791332876,0.112062256809338
1580421279.73785,-0.870374608987564,-0.230228122377355,0.191653315022506
1580421279.76962,-0.775158312352179,-0.225833524071106,0.195071335927366
1580421279.80139,-1.36501106279088,0.346929121843289,0.484138246738382
1580421279.83316,-0.939223315785458,-0.176516365300984,0.387945372701608
1580421279.86493,-1.29811551079576,0.0222171358815899,0.181399252307926
1580421279.8967,-1.00123598077363,-0.527595941100175,0.288822766460669
1580421279.92847,-0.844983596551462,-0.423590447852293,-0.137941557946135
1580421279.96024,-1.07154955367361,-0.0500495918211641,-0.108155947203784
1580421279.99201,-1.04127565423056,-0.244388494697489,0.0461432822156098
1580421280.02378,-1.01979095140002,-0.279056992446785,0.11450370031281
1580421280.05555,-1.03932249942779,0.0759288929579611,-0.01196307316701
1580421280.08732,-1.01881437399863,-0.264408331425956,-0.0427252613107498
1580421280.11909,-0.950453955901427,-0.307866025787748,0.0734874494544897
1580421280.15086,-1.01832608529793,0.0881361104753182,0.117433432516975
1580421280.18263,-1.00758373388266,0.0339360646982527,0.0500495918211641
1580421280.2144,-1.00953688868544,-0.288822766460671,-0.0231937132829785
1580421280.24617,-1.03297474631876,-0.129640650034332,0.0393072404058898
1580421280.27794,-1.02320897230488,-0.0822766460669868,0.0422369726100555
1580421280.30971,-1.0129549095903,-0.226810101472495,0.0217288471808956
1580421280.34148,-1.10426489662013,-0.0432135500114441,0.0720225833524069
1580421280.37325,-1.0129549095903,0.0686045624475469,0.0983901731898982
1580421280.40502,-1.072526131075,-0.048096437018387,0.153078507667658
1580421280.43679,-1.13063248645762,-0.0485847257190812,0.220462348363469
1580421280.46866,-1.11012436102846,-0.0471198596169984,0.281498435950255
1580421280.50043,-1.18239108873121,0.0280766002899213,0.168215457389181
1580421280.5322,-1.18629739833677,0.192141603723201,0.154055085069047
1580421280.56397,-1.20387579156176,0.145265888456549,0.271732661936369
1580421280.59574,-1.39577325093462,0.0158693827725642,0.27075608453498
1580421280.62751,-1.39430838483253,0.0295414663920042,0.0856946669718468
1580421280.65928,-1.10524147402151,-0.733653772793163,0.034424353398947
1580421280.69105,-0.712657358663309,-0.594003204394598,0.0983901731898982
1580421280.72282,-0.553475242236972,-0.34009308003357,0.0251468680857556
1580421280.75459,-0.448004882887007,-0.684824902723735,0.00219729915312428
1580421280.78636,-0.461676966506447,-0.721446555275806,0.0109864957656214
1580421280.81813,-0.522713054093233,-0.709239337758449,0.0295414663920042
1580421280.8499,-0.52124818799115,-0.73218890669108,0.0959487296864268
1580421280.88167,-0.663828488593881,-0.594003204394598,0.0622568093385212
1580421280.91344,-0.852307927061876,-0.322026398107882,0.182375829709315
1580421280.94521,-1.16920729381247,-0.302983138780805,0.254154268711375
1580421280.97698,-1.29079118028534,-0.581795986877241,0.031006332494087
1580421281.00875,-1.08229190508888,-0.546639200427252,0.0295414663920042
1580421281.04052,-0.899183642328527,-0.0612802319371326,0.0417486839093613
1580421281.07229,-0.803479056992447,-0.215579461356526,-0.0549324788281069
1580421281.10406,-1.13600366216525,0.142824444953078,-0.113527122911421
1580421281.13583,-1.20534065766384,0.351323720149537,0.157473105973907
1580421281.1676,-1.149187457084,-0.327885862516213,-0.0397955291065841
1580421281.19937,-1.00709544518196,-0.894789044022279,0.209231708247501
1580421281.23114,-0.944594491493095,-0.489021133745327,-0.108155947203784
1580421281.26291,-1.08229190508888,-0.306401159685665,-0.306401159685665
1580421281.29468,-1.08473334859235,-0.230228122377355,-0.113527122911421
1580421281.32645,-1.03932249942779,-0.226810101472495,-0.0231937132829785
1580421281.35822,-0.982192721446555,-0.228763256275272,-0.0139162279697871
1580421281.38999,-0.96559090562295,-0.231204699778743,0.0583504997329669
1580421281.42176,-0.966079194323644,-0.144289311055161,0.0676279850461583
1580421281.45353,-0.956313420309758,-0.150637064164187,0.101319905394064
1580421281.4853,-1.00172426947433,-0.0505378805218584,0.0725108720531011
1580421281.51708,-1.03395132372015,-0.0891126878767068,0.0866712443732354
1580421281.54885,-1.06666666666667,-0.115968566414892,0.0905775539787896
1580421281.58062,-1.0471351186389,0.110109102006561,0.129640650034332
1580421281.61239,-1.01979095140002,0.205813687342641,0.126710917830167
1580421281.64416,-1.02565041580835,0.184328984512092,0.148195620660715
1580421281.67593,-1.1320973525597,0.11792172121767,0.116456855115587
1580421281.7077,-1.09108110170138,0.208255130846112,0.144289311055161
1580421281.73956,-1.2175478751812,0.144289311055161,0.189700160219729
1580421281.77133,-1.33669031815061,0.0852063782711525,0.294682230869
1580421281.8031,-1.31471732661936,-0.080811779964904,0.299565117875943
1580421281.83487,-1.44753185320821,-0.0300297550926985,0.183352407110704
1580421281.86664,-1.4914778362707,-0.354741741054399,0.0139162279697871
1580421281.89841,-1.18385595483329,-0.430426489662013,-0.231692988479438
1580421281.93018,-0.470954451819638,-0.948989089799344,-0.205813687342641
1580421281.96195,-0.650156404974441,-0.431403067063401,-0.207278553444723
1580421281.99372,-0.405523765926604,-0.311284046692608,0.0573739223315783
1580421282.02549,-0.218509193560692,-0.777111467154956,-0.233646143282215
1580421282.05727,-0.492927443350881,-0.887953002212559,-0.0686045624475469
1580421282.08904,-0.570565346761272,-0.838147554741742,-0.0598153658350498
1580421282.12081,-0.508064393072404,-0.469001297016861,-0.0192874036774242
1580421282.15258,-0.890882734416724,-0.0720225833524069,0.0290531776913099
1580421282.18435,-1.25807583733883,-0.158937972075989,0.218509193560692
1580421282.21612,-1.38942549782559,-0.635507743953612,-0.0544441901274126
1580421282.24789,-1.06324864576181,-0.573983367666132,0.0334477759975584
1580421282.27966,-0.868421454184787,0.113527122911421,0.0896009765774011
1580421282.31143,-0.886488136110476,-0.238529030289158,0.150148775463492
1580421282.3432,-1.0383459220264,-0.129640650034332,-0.0769054703593497
1580421282.37497,-1.29127946898604,0.55298695353628,0.765880827038988
1580421282.40674,-1.03150988021668,0.0100099183642328,0.168703746089875
1580421282.43851,-1.34792095826658,-0.558358129243915,0.262943465323872
1580421282.47028,-1.00856031128405,-0.560799572747387,0.10424963759823
1580421282.50205,-0.891859311818113,-0.286869611657893,-0.193606469825284
1580421282.53382,-1.14430457007706,-0.271732661936371,-0.23999389639124
1580421282.56559,-1.08229190508888,-0.334233615625239,-0.0368657969024184
1580421282.59736,-1.03492790112154,-0.180422674906538,-0.133546959639887
1580421282.62913,-0.993911650263218,-0.0954604409857325,0.0100099183642328
1580421282.6609,-1.0129549095903,-0.163820859082932,0.0417486839093613
1580421282.69267,-0.96559090562295,-0.152101930266269,0.0324711985961699
1580421282.72444,-0.99293507286183,-0.0988784618905925,-0.00415045395590141
1580421282.75621,-0.99635309376669,-0.141359578850995,0.0173342488746471
1580421282.78798,-1.04274052033265,-0.221438925764858,0.0505378805218584
1580421282.81975,-1.04469367513542,-0.106691081101701,0.0236820019836728
1580421282.85152,-0.994888227664607,0.157473105973907,0.0222171358815899
1580421282.88329,-0.93482871747921,0.239017318989852,0.0544441901274126
1580421282.91506,-1.01393148699168,0.196536202029449,0.150637064164187
1580421282.94683,-1.06471351186389,0.210208285648889,0.137453269245441
1580421282.9786,-1.10865949492637,-0.148195620660715,0.167238879987792
1580421283.01047,-1.23756771190967,0.0373540856031127,0.184328984512092
1580421283.04224,-1.23512626840619,0.184817273212786,0.239505607690546
1580421283.07401,-1.31276417181659,0.0554207675288012,0.257572289616235
1580421283.10578,-1.34889753566796,-0.286381322957199,0.216556038757915
1580421283.13755,-1.34792095826658,-0.511970702677958,-0.0632333867399097
1580421283.16932,-1.11793698023957,-0.329350728618296,-0.0651865415426869
1580421283.20109,-0.623788815136949,-0.912855725947967,-0.217044327458609
1580421283.23286,-0.678477149614709,-0.631113145647364,-0.177004654001678
1580421283.26463,-0.455329213397421,-0.441657129777981,0.158449683375295
1580421283.2964,-0.201419089036392,-0.638437476157778,0.0397955291065841
1580421283.32817,-0.365484092469673,-0.789806973373008,-0.0593270771343555
1580421283.35994,-0.579842832074464,-0.724376287479972,-0.0393072404058898
1580421283.39172,-0.53492027161059,-0.493415732051576,0.0222171358815899
1580421283.42349,-0.793224994277868,-0.396246280613413,-0.0231937132829785
1580421283.45526,-1.09010452429999,-0.317143511100939,0.118410009918364
1580421283.48703,-1.21315327687495,-0.252201113908599,0.0969253070878153
1580421283.5188,-1.26540016784924,-0.454840924696727,0.0212405584802013
1580421283.55057,-1.00025940337224,-0.546639200427252,0.0451667048142212
1580421283.58234,-0.90748455024033,0.155031662470435,0.167727168688486
1580421283.61411,-0.865003433279927,-0.168215457389181,0.184817273212786
1580421283.64588,-0.985610742351415,-0.274662394140536,-0.0427252613107498
1580421283.67765,-1.35133897917144,0.750255588616771,0.980727855344472
1580421283.70942,-0.909925993743801,-0.132570382238498,0.00219729915312428
1580421283.74119,-1.33913176165408,-0.244876783398183,0.377203021286334
1580421283.77296,-1.13063248645762,-0.282963302052339,0.147219043259327
1580421283.80473,-0.873792629892424,-0.44946974898909,-0.125246051728084
1580421283.83651,-1.11403067063401,-0.180422674906538,-0.303471427481499
1580421283.86828,-1.05983062485695,-0.247806515602349,-0.177981231403066
1580421283.90005,-1.01686121919585,-0.210696574349583,-0.0402838178072784
1580421283.93182,-1.00465400167849,-0.103273060196841,0.0520027466239412
1580421283.96359,-0.97926298924239,-0.169192034790569,0.0881361104753182
1580421283.99536,-0.97584496833753,-0.163332570382238,0.034424353398947
1580421284.02713,-0.984145876249332,-0.0803234912642097,0.0666514076447697
1580421284.0589,-0.99977111467155,-0.0373540856031127,0.0695811398489354
1580421284.09067,-1.05055313954376,-0.121828030823224,0.0236820019836728
1580421284.12244,-1.01881437399863,-0.0437018387121384,0.0866712443732354
1580421284.15421,-1.01783779659724,0.118410009918364,0.037842374303807
1580421284.18598,-0.983169298847944,0.0925307087815668,0.108644235904478
1580421284.21775,-1.072526131075,0.0417486839093613,0.140871290150301
1580421284.24952,-1.04371709773404,-0.041260395208667,0.112550545510032
1580421284.2814,-1.00465400167849,-0.0495613031204698,0.136476691844052
1580421284.31317,-1.13795681696803,-0.0734874494544897,0.113527122911421
1580421284.34494,-1.14528114747845,-0.00952162966353853,0.195071335927366
1580421284.37671,-1.19118028534371,0.114991989013504,0.152590218966964
1580421284.40848,-1.3625696192874,-0.0285648889906156,0.359136339360646
1580421284.44026,-1.32106507972839,-0.282475013351645,0.215579461356526
1580421284.47203,-1.26735332265202,-0.257572289616236,-0.0104982070649271
1580421284.5038,-1.01588464179446,-0.376226443884947,-0.0666514076447697
1580421284.53557,-0.583260852979324,-0.871351186388953,-0.288822766460671
1580421284.56734,-0.67750057221332,-0.521736476691844,-0.195559624628061
1580421284.59911,-0.475837338826581,-0.362554360265507,0.000732433051041426
1580421284.63088,-0.418219272144656,-0.689707789730678,-0.215579461356526
1580421284.66265,-0.579354543373769,-0.774670023651485,-0.179446097505149
1580421284.69442,-0.533455405508507,-0.601327534905012,-0.12133974212253
1580421284.72619,-0.594979781795987,-0.494392309452964,-0.0373540856031127
1580421284.75796,-0.848401617456322,-0.393804837109942,-0.0236820019836728
1580421284.78973,-1.14576943617914,-0.118898298619058,0.168703746089875
1580421284.8215,-1.26149385824369,-0.167238879987792,0.179934386205844
1580421284.85327,-1.25563439383536,-0.36401922636759,0.0534676127260241
1580421284.88505,-1.11842526894026,-0.395269703212024,-0.0256351567864499
1580421284.91682,-0.902601663233387,-0.299076829175251,-0.0285648889906156
1580421284.94859,-0.885511558709087,-0.0178225375753414,-0.145265888456549
1580421284.98036,-0.862073701075762,0.0783703364614325,0.0402838178072784
1580421285.01213,-1.15895323109789,-0.122804608224612,-0.163332570382238
1580421285.0439,-1.03297474631876,-0.0295414663920042,0.388433661402303
1580421285.07567,-1.2946974898909,-0.289799343862059,0.422125581750208
1580421285.10744,-1.22975509269856,-0.623300526436255,0.534431982909897
1580421285.13921,-0.918715190356298,0.0529793240253298,0.183352407110704
1580421285.17098,-0.984145876249332,-0.161379415579461,-0.524177920195315
1580421285.20275,-1.13160906385901,-0.814709697108416,-0.181887541008621
1580421285.23452,-1.02369726100557,-0.272220950637065,0.190676737621118
1580421285.26629,-1.01051346608682,0.372808422980086,0.25366598001068
1580421285.29806,-1.01686121919585,0.00170901045242999,0.192629892423895
1580421285.32984,-0.944594491493095,-0.460700389105059,0.123781185626001
1580421285.36161,-1.04615854123751,-0.0529793240253298,0.157473105973907
1580421285.39338,-0.995864805065995,0.11450370031281,0.0666514076447697
1580421285.42515,-0.993911650263218,-0.0856946669718468,0.0886243991760125
1580421285.45692,-0.960219729915313,-0.00317387655451284,0.262943465323872
1580421285.48869,-0.978286411841001,-0.0134279392690928,0.235599298084992
1580421285.52046,-0.961684596017395,-0.0549324788281069,0.0769054703593497
1580421285.55231,-0.950942244602121,-0.0109864957656214,0.0881361104753182
1580421285.58408,-1.01734950789654,-0.0300297550926985,0.143801022354467
1580421285.61585,-1.03395132372015,-0.0749523155565726,0.0920424200808725
1580421285.64762,-1.01197833218891,-0.130128938735027,0.110597390707255
1580421285.67939,-1.01393148699168,-0.0695811398489354,0.161867704280155
1580421285.71116,-1.0466468299382,-0.0632333867399097,0.153078507667658
1580421285.74293,-0.998306248569467,0.0158693827725642,0.167238879987792
1580421285.7747,-1.03395132372015,-0.0271000228885327,0.10766765850309
1580421285.80647,-1.0808270389868,0.0876478217746239,0.0686045624475469
1580421285.83824,-1.27077134355688,-0.0285648889906156,0.0593270771343555
1580421285.87001,-1.25905241474022,-0.179446097505149,0.138429846646829
1580421285.90178,-1.31862363622492,-0.0134279392690928,0.136476691844052
1580421285.93355,-1.24196231021591,-0.266361486228734,0.0861829556725411
1580421285.96533,-0.995864805065995,-0.513435568780041,-0.0646982528419926
1580421285.9971,-0.698985275043869,-0.488532845044633,-0.193118181124589
1580421286.02887,-0.753673609521631,-0.244388494697489,-0.320561532005799
1580421286.06064,-0.73560692759594,-0.0725108720531011,-0.850843060959793
1580421286.09241,-0.697520408941786,-0.246341649500266,-0.816174563210499
1580421286.12418,-0.724376287479972,-1.41921110856794,-0.652597848477912
1580421286.15595,-0.750743877317465,-1.06910811017014,-0.573983367666132
1580421286.18772,-0.746837567711909,-0.42554360265507,-0.304448004882888
1580421286.21949,-0.840100709544519,0.375249866483557,-0.0832532234683754
1580421286.25126,-1.0642252231632,0.0368657969024184,0.0729991607537954
1580421286.28303,-1.1833676661326,-0.512947280079347,0.0144045166704814
1580421286.3148,-1.09547570000763,-0.629648279545281,-0.0832532234683754
1580421286.34657,-0.994399938963912,-0.228763256275272,0.0173342488746471
1580421286.37835,-1.09889372091249,0.0266117341878385,0.0236820019836728
1580421286.41012,-1.17750820172427,-0.206790264744029,-0.0783703364614325
1580421286.44189,-0.943617914091707,-0.350835431448845,0.0974135957885096
1580421286.47366,-0.901136797131304,-0.0515144579232469,0.23999389639124
1580421286.50543,-0.86988632028687,-0.0891126878767068,0.103761348897535
1580421286.5372,-0.891371023117419,-0.207278553444723,0.0729991607537954
1580421286.56897,-0.836682688639659,-0.183352407110704,0.070557717250324
1580421286.60074,-1.0295567254139,-0.0910658426794839,0.193118181124589
1580421286.63251,-0.943129625391013,-0.214602883955138,0.240482185091935
1580421286.66428,-1.13942168307011,-0.423590447852293,0.104737926298924
1580421286.69605,-1.12867933165484,-0.549568932631418,0.0676279850461583
1580421286.72782,-0.92799267566949,-0.24682993820096,0.0813000686655982
1580421286.75959,-0.961196307316701,-0.0646982528419926,0.134035248340581
1580421286.79136,-1.04518196383612,-0.413336385137713,-0.034424353398947
1580421286.82321,-1.05494773785,-0.359624628061342,-0.0139162279697871
1580421286.85498,-1.0212558175021,-0.101808194094758,0.0100099183642328
1580421286.88675,-1.02906843671321,-0.144777599755855,-0.0617685206378269
1580421286.91852,-0.970962081330587,-0.323491264209965,0.0734874494544897
1580421286.95029,-0.973403524834058,-0.0485847257190812,0.101808194094758
1580421286.98206,-1.0036774242771,-0.230228122377355,0.0441901274128327
1580421287.01384,-1.00904859998474,-0.219974059662775,-0.0114747844663157
1580421287.04561,-1.03443961242084,-0.197512779430838,0.0227054245822842
1580421287.07738,-1.06861982146944,-0.0925307087815668,0.11792172121767
1580421287.10915,-1.07936217288472,0.096437018387121,0.0944838635843439
1580421287.14092,-1.00270084687572,0.143312733653772,0.132082093537804
1580421287.17269,-1.12477302204929,0.145754177157244,0.196047913328755
1580421287.20446,-1.17701991302357,0.127199206530861,0.157473105973907
1580421287.23623,-1.14137483787289,0.201907377737086,0.152590218966964
1580421287.268,-1.25954070344091,0.181399252307926,0.240970473792629
1580421287.29977,-1.29274433508812,0.183840695811398,0.385503929198137
1580421287.33154,-1.30788128480964,0.135988403143358,0.478767071030745
1580421287.36331,-1.41676966506447,0.0339360646982527,0.080811779964904
1580421287.39508,-1.26442359044785,-0.323979552910659,0.186282139314869
1580421287.42685,-0.891859311818113,-0.731212329289692,-0.322026398107882
1580421287.45862,-0.792736705577173,-0.531013962005035,-0.219974059662775
1580421287.4904,-0.593026626993209,-0.529060807202258,-0.0788586251621268
1580421287.52217,-0.339604791332876,-0.672617685206378,-0.202883955138475
1580421287.55394,-0.481208514534218,-0.850843060959793,-0.0969253070878153
1580421287.58571,-0.51099412527657,-0.810803387502862,-0.0324711985961699
1580421287.61748,-0.52124818799115,-0.511970702677958,-0.0261234454871442
1580421287.64925,-0.727794308384832,-0.295658808270391,0.108155947203784
1580421287.68102,-1.072526131075,-0.101808194094758,0.258548867017623
1580421287.71279,-1.30885786221103,-0.40845349813077,0.0158693827725642
1580421287.74456,-1.26832990005341,-0.71509880216678,0.01196307316701
1580421287.77633,-0.843518730449379,-0.266361486228734,-0.0852063782711525
1580421287.8081,-0.891859311818113,-0.0939955748836496,0.0593270771343555
1580421287.83987,-0.829846646829939,-0.465583276112001,0.0456549935149155
1580421287.87164,-1.18776226443885,0.500251773861297,-0.285893034256505
1580421287.90341,-1.00465400167849,-0.0832532234683754,0.167727168688486
1580421287.93519,-1.38356603341726,-0.630624856946669,0.376226443884946
1580421287.96696,-1.15065232318608,-0.663828488593881,0.151125352864881
1580421287.99873,-0.818127718013276,-0.583749141680018,-0.548104066529335
1580421288.0305,-1.20143434805829,-0.280033569848174,-0.35376516365301
1580421288.06227,-1.10280003051804,-0.23657587548638,-0.0729991607537954
1580421288.09415,-0.982192721446555,-0.357671473258565,0.00610360875867855
1580421288.12592,-0.993911650263218,-0.182375829709315,-0.00610360875867855
1580421288.15769,-1.00563057907988,-0.147707331960021,0.0305180437933927
1580421288.18946,-0.95533684290837,-0.192629892423895,0.0544441901274126
1580421288.22123,-1.01979095140002,-0.0974135957885096,-0.0148928053711757
1580421288.253,-1.09596398870832,-0.175051499198901,-0.00854505226214997
1580421288.28477,-1.06617837796597,-0.0456549935149155,0.141359578850995
1580421288.31654,-0.985610742351415,0.289311055161363,0.126222629129472
1580421288.34831,-0.982192721446555,0.232181277180132,0.154055085069047
1580421288.38008,-1.16188296330205,0.187258716716258,0.154055085069047
1580421288.41185,-1.13893339436942,0.255130846112763,0.157473105973907
1580421288.44362,-1.14772259098192,0.355230029755091,0.250736247806515
1580421288.47539,-1.43337148088808,0.251712825207903,0.343511100938429
1580421288.50717,-1.43678950179294,0.0368657969024184,0.401617456321048
1580421288.53894,-1.52224002441443,-0.0720225833524069,0.171145189593346
1580421288.57071,-1.51540398260471,-0.264408331425956,0.0383306630045013
1580421288.60248,-0.954848554207675,-0.823987182421607,-0.366460669871062
1580421288.63425,-0.780041199359122,-0.702891584649423,-0.275150682841231
1580421288.66602,-0.492439154650187,-0.44605172808423,0.142336156252384
1580421288.69779,-0.127687495231555,-0.755626764324408,-0.000244144350347142
1580421288.72956,-0.336186770428016,-0.797131303883422,-0.135011825741969
1580421288.76133,-0.449958037689784,-0.621835660334172,0.0075684748607614
1580421288.7931,-0.493415732051576,-0.681895170519569,0.134523537041275
1580421288.82487,-0.678477149614709,-0.583749141680018,-0.0505378805218584
1580421288.85664,-0.922621499961853,-0.177004654001678,0.283939879453726
1580421288.88841,-1.36208133058671,-0.366460669871062,0.0524910353246355
1580421288.92018,-1.33571374074922,-0.49390402075227,0.150148775463492
1580421288.95195,-0.896253910124361,-0.369390402075227,0.0256351567864499
1580421288.98373,-0.888929579613947,-0.332768749523156,0.104737926298924
1580421289.0155,-1.28200198367285,-0.0373540856031127,0.110597390707255
1580421289.04727,-1.30543984130617,0.161379415579461,0.565194171053637
1580421289.07904,-1.04762340733959,-0.295658808270391,-0.287357900358588
1580421289.11081,-1.06813153276875,-0.842053864347296,0.0222171358815899
1580421289.14258,-0.970962081330587,-0.844007019150073,0.0354009308003356
1580421289.17435,-1.09254596780346,-0.216556038757915,-0.121828030823224
1580421289.20612,-1.09938200961318,-0.0544441901274126,-0.199954222934309
1580421289.23789,-1.03932249942779,-0.39478141451133,-0.0783703364614325
1580421289.26966,-1.01783779659724,-0.328862439917602,0.0524910353246355
1580421289.30143,-1.00758373388266,-0.0422369726100555,0.0563973449301898
1580421289.3332,-0.947524223697261,-0.0754406042572668,0.0720225833524069
1580421289.36505,-0.993423361562524,-0.0534676127260241,0.00268558785381856
1580421289.39682,-1.01490806439307,-0.161867704280155,0.0285648889906156
1580421289.42859,-1.06666666666667,-0.129640650034332,0.070557717250324
1580421289.46036,-1.09352254520485,0.0793469138628211,0.153566796368352
1580421289.49213,-1.01783779659724,0.229739833676661,0.123292896925307
1580421289.5239,-1.0383459220264,0.168703746089875,0.146242465857938
1580421289.55568,-1.12037842374304,0.164309147783626,0.102784771496147
1580421289.58745,-1.10719462882429,0.163820859082932,0.158449683375295
1580421289.61922,-1.225848783093,0.151613641565575,0.191653315022506
1580421289.65099,-1.37087052719921,0.10424963759823,0.351812008850231
1580421289.68276,-1.32936598764019,-0.0354009308003356,0.4143129625391
1580421289.71453,-1.57741664759289,-0.0925307087815668,0.201907377737086
1580421289.7463,-1.3889372091249,-0.261966887922485,0.0124513618677042
1580421289.77807,-0.820569161516747,-0.91773861295491,-0.224368657969023
1580421289.80984,-0.855725947966736,-0.715587090867475,-0.254642557412071
1580421289.84161,-0.576424811169604,-0.717540245670252,0.0632333867399097
1580421289.87338,-0.141359578850995,-0.743907835507743,-0.0075684748607614
1580421289.90515,-0.32983901731899,-0.844495307850767,-0.114991989013504
1580421289.93692,-0.357671473258565,-0.720958266575112,-0.0046387426565957
1580421289.96869,-0.443121995880064,-0.556404974441138,0.0422369726100555
1580421290.00046,-0.728282597085526,-0.427008468757153,0.0300297550926985
1580421290.03224,-1.10377660791943,-0.36401922636759,0.184328984512092
1580421290.06401,-1.27516594186313,-0.306889448386359,0.119386587319752
1580421290.09578,-1.27565423056382,-0.547615777828641,-0.0139162279697871
1580421290.12755,-0.820080872816053,-0.413824673838407,0.0339360646982527
1580421290.15932,-0.862073701075762,-0.129640650034332,-0.0334477759975584
1580421290.19109,-0.802014190890365,-0.282963302052339,0.205813687342641
1580421290.22286,-1.45143816281376,0.697032120241094,0.730235751888305
1580421290.25463,-1.01393148699168,0.194583047226672,-0.0754406042572668
1580421290.2864,-1.5935301747158,-0.426520180056459,0.544197756923783
1580421290.31817,-0.962661173418784,-0.910414282444496,0.234134431982909
1580421290.34994,-0.773693446250096,-0.120363164721141,-0.308842603189136
1580421290.38171,-1.33962005035477,-0.234134431982909,-0.375249866483559
1580421290.41348,-1.07740901808194,-0.512947280079347,0.0207522697795071
1580421290.44526,-1.07057297627222,0.000244144350347142,0.115968566414892
1580421290.47703,-0.978286411841001,-0.01196307316701,0.077393759060044
1580421290.5088,-0.964614328221561,-0.284428168154422,0.0466315709163041
1580421290.54057,-0.925062943465324,-0.117433432516975,0.131593804837109
1580421290.57234,-0.974868390936141,-0.0422369726100555,-0.0100099183642328
1580421290.60411,-0.975356679636835,-0.274174105439842,-0.027588311589227
1580421290.63599,-1.00172426947433,-0.143801022354467,0.0456549935149155
1580421290.66776,-1.01881437399863,-0.0148928053711757,0.109620813305867
1580421290.69953,-0.973403524834058,0.158937972075989,0.192629892423895
1580421290.7313,-0.930434119172961,0.289311055161363,0.205325398641946
1580421290.76307,-0.976333257038224,0.254154268711375,0.189700160219729
1580421290.79484,-1.06324864576181,0.0300297550926985,0.202883955138475
1580421290.82661,-1.04176394293126,-0.00854505226214997,0.181887541008621
1580421290.85838,-1.09205767910277,0.202395666437781,0.316166933699549
1580421290.89015,-1.41481651026169,0.144777599755855,0.433356221866177
1580421290.92192,-1.56325627527275,-0.12475776302739,0.526619363698789
1580421290.95369,-1.70827801937896,-0.00415045395590141,0.369390402075226
1580421290.98546,-1.4231174181735,-0.247318226901655,-0.0646982528419926
1580421291.01723,-0.97926298924239,0.150148775463492,-0.656504158083466
1580421291.04901,-0.435309376668956,-0.616952773327229,-1.00611886778058
1580421291.08078,-0.696055542839703,-0.790295262073702,-0.86988632028687
1580421291.11255,-0.426031891355764,-0.802990768291753,-0.649668116273746
1580421291.14432,-0.419195849546044,-0.593026626993209,-0.622323949034866
1580421291.17609,-0.633066300450141,-0.617441062027924,-0.663828488593881
1580421291.20786,-0.500251773861295,-0.45630579079881,-0.445563439383536
1580421291.23963,-0.637949187457084,-0.0891126878767068,-0.411383230334936
1580421291.2714,-0.955825131609064,-0.200442511635003,-0.346440833142596
1580421291.30317,-1.13893339436942,-0.399176012817579,-0.343999389639125
1580421291.33494,-1.22780193789578,-0.612558175020981,-0.384039063096056
1580421291.36671,-1.23952086671244,-0.512947280079347,-0.283451590753033
1580421291.39848,-1.25514610513466,-0.0861829556725411,-0.130617227435721
1580421291.43025,-1.10280003051804,-0.0046387426565957,0.126710917830167
1580421291.46202,-1.07594415197986,0.103273060196841,0.0393072404058898
1580421291.49379,-0.933852140077821,0.359136339360646,0.252689402609292
1580421291.52557,-0.980727855344472,0.148683909361409,0.0876478217746239
1580421291.55734,-0.954848554207675,-0.226321812771801,-0.177981231403066
1580421291.58911,-1.02760357061112,-0.520271610589761,-0.363530937666896
1580421291.62088,-1.04078736552987,-0.207278553444723,0.00903334096284425
1580421291.65265,-1.10524147402151,-0.308842603189136,0.510017547875183
1580421291.68442,-1.03297474631876,-0.921644922560464,0.53247882810712
1580421291.71619,-0.939223315785458,-0.143312733653772,0.429938200961317
1580421291.74796,-1.00123598077363,-0.302006561379416,0.0046387426565957
1580421291.77973,-1.00953688868544,-0.291752498664836,-0.0949721522850382
1580421291.8115,-1.05836575875486,-0.110597390707255,0.0534676127260241
1580421291.84327,-1.05055313954376,0.0334477759975584,0.143801022354467
1580421291.87504,-0.97584496833753,-0.208743419546806,0.0417486839093613
1580421291.90692,-1.03199816891737,-0.345952544441902,0.0969253070878153
1580421291.93869,-0.992446784161135,-0.283939879453728,0.104737926298924
1580421291.97046,-0.93141069657435,-0.00708018616006711,0.172610055695429
1580421292.00223,-1.01002517738613,-0.140871290150301,0.146242465857938
1580421292.034,-0.935317006179904,-0.146730754558632,0.0803234912642097
1580421292.06577,-0.983657587548638,0.0578622110322726,0.0686045624475469
1580421292.09754,-1.00221255817502,-0.0656748302433812,0.0612802319371326
1580421292.12932,-0.969985503929198,-0.151613641565575,0.196536202029449
1580421292.16109,-0.99635309376669,0.0568856336308841,0.193606469825284
1580421292.19286,-1.01979095140002,-0.168215457389181,0.151613641565575
1580421292.22463,-1.03248645761807,-0.0949721522850382,0.167727168688486
1580421292.2564,-1.01344319829099,-0.0437018387121384,0.101319905394064
1580421292.28817,-1.03883421072709,-0.179934386205844,0.0798352025635154
1580421292.31994,-1.01002517738613,-0.0764171816586554,0.143312733653772
1580421292.35171,-1.04127565423056,-0.103273060196841,0.176028076600289
1580421292.38348,-1.04811169604028,-0.0959487296864268,0.172610055695429
1580421292.41525,-1.10572976272221,-0.165774013885709,0.173098344396124
1580421292.44702,-1.17213702601663,-0.0715342946517126,0.0803234912642097
1580421292.47879,-1.19411001754787,0.0900892652780954,0.164797436484321
1580421292.51056,-1.41725795376516,0.338628213931486,0.126710917830167
1580421292.54234,-1.41725795376516,0.205813687342641,0.073975738155184
1580421292.57411,-1.38503089951934,-0.499763485160601,0.232181277180132
1580421292.60588,-0.916273746852827,-0.960219729915313,-0.299076829175251
1580421292.63765,-0.978286411841001,0.0349126420996413,-0.262455176623179
1580421292.66942,-0.720469977874417,-0.110109102006561,-0.248294804303043
1580421292.70119,-0.764415960936905,-0.81177996490425,-0.554940108339055
1580421292.73296,-0.686289768825818,-1.40944533455406,-0.434332799267567
1580421292.76473,-0.511482413977264,-0.963149462119478,-0.323979552910659
1580421292.7965,-0.317143511100939,-0.183840695811398,-0.0681162737468526
1580421292.82827,-0.679942015716792,0.257572289616235,0.0993667505912867
1580421292.86004,-1.24489204242008,-0.358648050659953,0.0417486839093613
1580421292.89181,-1.09498741130693,-0.813733119707027,0.0627450980392155
1580421292.92358,-1.14528114747845,-0.559822995345998,-0.158449683375295
1580421292.95535,-1.00856031128405,-0.125246051728084,0.0227054245822842
1580421292.98712,-0.916762035553521,-0.420172426947433,0.0500495918211641
1580421293.0189,-0.812268253604945,-0.742931258106355,0.048096437018387
1580421293.05067,-0.89039444571603,-0.131105516136415,-0.191653315022506
1580421293.08244,-1.43630121309224,0.749279011215382,1.31276417181659
1580421293.11421,-1.07008468757153,-0.420172426947433,0.217044327458609
1580421293.14598,-1.39382009613184,-0.635507743953612,0.382574196993971
1580421293.17783,-0.932387273975738,-0.442145418478676,0.01196307316701
1580421293.2096,-0.905043106736859,-0.119386587319752,-0.559334706645304
1580421293.24137,-1.18971541924163,-0.568123903257801,-0.164309147783626
1580421293.27314,-1.00660715648127,-0.465583276112001,0.0563973449301898
1580421293.30491,-0.99977111467155,0.0979018844892039,0.044678416113527
1580421293.33668,-0.954848554207675,-0.183840695811398,-0.0114747844663157
1580421293.36845,-0.961684596017395,-0.258060578316931,0.00219729915312428
1580421293.40022,-0.977309834439613,-0.0632333867399097,0.0627450980392155
1580421293.43199,-1.05006485084306,-0.211673151750972,0.115968566414892
1580421293.46376,-1.07447928587777,-0.202883955138475,0.0593270771343555
1580421293.49553,-1.14137483787289,0.0871595330739297,0.122804608224612
1580421293.5273,-1.03492790112154,0.30151827267872,0.108155947203784
1580421293.55907,-1.0466468299382,0.473395895323108,0.138429846646829
1580421293.59084,-1.23268482490272,0.341069657434957,0.281498435950255
1580421293.62261,-1.33034256504158,0.387457084000914,0.404547188525214
1580421293.65439,-1.49880216678111,0.394293125810634,0.333257038223849
1580421293.68616,-1.46022735942626,0.252201113908598,0.43823910887312
1580421293.71793,-1.68581673914702,0.150148775463492,0.0715342946517126
1580421293.7497,-1.50270847638666,-0.379644464789807,0.115968566414892
1580421293.78147,-0.92799267566949,-1.41286335545892,-0.71168078126192
1580421293.81324,-0.797131303883422,-0.0598153658350498,0.0949721522850382
1580421293.84501,-0.310307469291219,-0.409430075532159,0.0349126420996413
1580421293.87678,-0.343022812237736,-1.14625772487983,-0.221438925764858
1580421293.90855,-0.345952544441902,-0.934340428778516,-0.0148928053711757
1580421293.94032,-0.363042648966202,-0.836682688639659,0.0104982070649271
1580421293.97209,-0.554940108339055,-0.460212100404364,0.103273060196841
1580421294.00386,-0.999282825970855,-0.0959487296864268,0.121828030823224
1580421294.03563,-1.23219653620203,-0.302983138780805,0.3288624399176
1580421294.0674,-1.31227588311589,-0.784924086366065,0.0744640268558783
1580421294.09918,-0.98268101014725,-0.491462577248798,-0.0515144579232469
1580421294.13095,-0.91773861295491,-0.453376058594644,-0.244388494697489
1580421294.16272,-1.21510643167773,-0.573006790264744,-0.539803158617532
1580421294.19449,-1.31960021362631,0.00512703135728998,1.11793698023957
1580421294.22626,-1.16530098420691,0.0881361104753182,0.0251468680857556
1580421294.25803,-1.37819485770962,-0.535408560311284,0.125246051728084
1580421294.2898,-0.782482642862593,-1.2600289921416,0.0822766460669868
1580421294.32157,-1.0036774242771,-0.296635385671779,-0.346440833142596
1580421294.35334,-1.28004882887007,-0.198977645532921,-0.203372243839169
1580421294.38511,-1.00318913557641,-0.496833752956436,0.0144045166704814
1580421294.41688,-1.06178377965972,-0.184328984512092,-0.0212405584802013
1580421294.44882,-1.01100175478752,-0.0046387426565957,0.034424353398947
1580421294.48059,-0.99977111467155,-0.0661631189440754,0.0881361104753182
1580421294.51236,-0.988540474555581,-0.273685816739148,0.0100099183642328
1580421294.54413,-1.07399099717708,-0.240482185091935,-0.0598153658350498
1580421294.5759,-1.02565041580835,0.118898298619058,0.0983901731898982
1580421294.60767,-0.977798123140307,0.410406652933546,0.127687495231555
1580421294.63945,-1.07447928587777,0.35620660715648,0.231204699778743
1580421294.67122,-1.18141451132982,0.401129167620354,0.293217364766917
1580421294.70299,-1.21803616388189,0.396734569314106,0.362554360265506
1580421294.73476,-1.5080796520943,0.400152590218966,0.269291218432897
1580421294.76653,-1.55593194476234,0.333745326924543,0.57349507896544
1580421294.7983,-1.64333562218662,0.125734340428778,0.36646066987106
1580421294.83007,-1.56618600747692,-0.376714732585642,0.0900892652780954
1580421294.86184,-0.939223315785458,-1.04567025253681,-0.475837338826581
1580421294.89361,-0.92457465476463,-0.590096894789044,-0.227786678873883
1580421294.92538,-0.416266117341879,-0.459235523002976,-0.0314946211947813
1580421294.95715,-0.0896009765774011,-0.848889906157016,-0.253665980010682
1580421294.98892,-0.338628213931488,-0.897718776226444,-0.226321812771801
1580421295.02069,-0.342534523537042,-0.678477149614709,-0.106202792401007
1580421295.05246,-0.427985046158541,-0.54175631342031,0.0461432822156098
1580421295.08424,-0.809338521400779,-0.468513008316167,-0.0695811398489354
1580421295.11601,-1.19850461585412,-0.151613641565575,0.219485770962081
1580421295.14778,-1.43239490348669,-0.810315098802167,-0.0549324788281069
1580421295.17955,-1.06715495536736,-0.583260852979324,0.0197756923781185
1580421295.21132,-0.920668345159076,-0.34692912184329,0.0427252613107498
1580421295.24309,-0.853284504463264,-0.458258945601587,-0.0476081483176927
1580421295.27486,-1.36012817578393,0.980239566643778,0.0549324788281069
1580421295.30663,-1.19850461585412,0.341557946135651,0.159914549477378
1580421295.3384,-1.20289921416037,-0.551033798733501,-0.0974135957885096
1580421295.37017,-0.916273746852827,-0.971938658731975,-0.136476691844052
1580421295.40194,-0.967544060425727,-0.844495307850767,-0.344975967040513
1580421295.43371,-1.15944151979858,-0.214114595254443,-0.219485770962081
1580421295.46548,-1.09010452429999,-0.164309147783626,-0.00854505226214997
1580421295.49725,-1.00123598077363,-0.614511329823758,-0.0432135500114441
1580421295.52903,-0.99977111467155,-0.262455176623179,-0.0490730144197755
1580421295.5608,-1.0129549095903,0.128664072632944,0.0319829098954756
1580421295.59257,-0.987075608453498,-0.175539787899595,0.0573739223315783
1580421295.62434,-1.04127565423056,-0.197512779430838,0.0207522697795071
1580421295.65611,-1.08766308079652,-0.0520027466239412,0.117433432516975
1580421295.68788,-1.0207675288014,0.266361486228732,0.161379415579461
1580421295.71985,-0.888441290913253,0.33911650263218,0.152101930266269
1580421295.75162,-1.10524147402151,0.199465934233615,0.211673151750972
1580421295.78339,-1.14235141527428,0.244876783398183,0.192629892423895
1580421295.81516,-1.24391546501869,0.230228122377355,0.392828259708551
1580421295.84693,-1.46999313344015,0.249271381704432,0.37329671168078
1580421295.8787,-1.56569771877623,0.255619134813458,0.576424811169606
1580421295.91048,-1.62575722896162,0.102296482795452,0.202883955138475
1580421295.94225,-1.45973907072557,-0.0363775082017241,0.0744640268558783
1580421295.97402,-0.947524223697261,-0.793713282978562,-0.583260852979324
1580421296.00579,-0.788342107270925,-0.920668345159076,-0.610605020218204
1580421296.03756,-0.596932936598764,-0.722911421377889,-0.282475013351645
1580421296.06933,-0.131105516136415,-0.896253910124361,-0.328862439917602
1580421296.1011,-0.248783093003738,-0.866956588082704,-0.424078736552987
1580421296.13287,-0.302494850080111,-0.615487907225146,-0.238040741588463
1580421296.16464,-0.487556267643244,-0.377203021286336,-0.0222171358815899
1580421296.19642,-0.88697642481117,-0.246341649500266,-0.0427252613107498
1580421296.22819,-1.25319295033188,-0.501228351262684,-0.0656748302433812
1580421296.25996,-1.36647592889296,-0.659922178988326,-0.0656748302433812
1580421296.29173,-0.99977111467155,-0.481696803234913,-0.224368657969023
1580421296.3235,-0.669687953002212,-0.414801251239796,-0.264408331425956
1580421296.35527,-0.942641336690318,0.151125352864881,-0.188723582818341
1580421296.38704,-1.33522545204852,0.569100480659191,0.620859082932785
1580421296.41881,-1.31667048142214,0.0417486839093613,0.132082093537804
1580421296.45058,-1.02858014801251,-0.997817959868772,0.121828030823224
1580421296.48236,-0.960219729915313,-1.06178377965972,-0.377203021286336
1580421296.51413,-0.944106202792401,-0.335210193026628,-0.0407721065079727
1580421296.5459,-1.25709925993744,-0.580331120775158,0.048096437018387
1580421296.57767,-1.02320897230488,-0.132082093537804,-0.0329594872968642
1580421296.60944,-1.07057297627222,0.0778820477607383,0.0148928053711757
1580421296.64121,-1.00172426947433,-0.174074921797512,0.143312733653772
1580421296.67298,-0.901625085831999,-0.245853360799572,0.194583047226672
1580421296.70475,-1.00270084687572,-0.126222629129472,0.10424963759823
1580421296.73653,-0.94850080109865,-0.152101930266269,0.0290531776913099
1580421296.7683,-0.976333257038224,-0.177981231403066,0.100343327992675
1580421296.80007,-0.982192721446555,-0.212649729152361,0.192141603723201
1580421296.83184,-0.984634164950027,-0.126222629129472,0.206790264744029
1580421296.86361,-1.00660715648127,-0.0656748302433812,0.211184863050278
1580421296.89538,-0.987075608453498,-0.00659189745937283,0.188723582818341
1580421296.92715,-1.06324864576181,0.0305180437933927,0.125734340428778
1580421296.95892,-0.994888227664607,-0.0842298008697639,0.24682993820096
1580421296.99081,-1.14869916838331,0.00659189745937283,0.120851453421835
1580421297.02258,-1.18043793392843,-0.0900892652780954,0.099855039291981
1580421297.05436,-1.30934615091173,-0.102296482795452,0.200930800335698
1580421297.08613,-1.38356603341726,0.0314946211947813,0.307377737087052
1580421297.1179,-1.33620202944991,-0.126222629129472,0.118410009918364
1580421297.14967,-0.999282825970855,-0.446540016784924,-0.151125352864881
1580421297.18144,-0.781506065461205,-0.390386816205082,-0.619882505531395
1580421297.21321,-0.79810788128481,-0.335210193026628,-0.737071793698023
1580421297.24499,-0.762462806134128,-0.305424582284276,-0.807873655298696
1580421297.27676,-0.719005111772335,-0.676523994811932,-0.899183642328527
1580421297.30853,-0.753673609521631,-0.908461127641718,-0.759044785229268
1580421297.3403,-0.663828488593881,-0.642343785763332,-0.446540016784924
1580421297.37207,-0.652597848477912,-0.0466315709163041,-0.193606469825284
1580421297.40384,-0.712169069962615,0.255619134813458,-0.236087586785686
1580421297.43562,-1.17311360341802,-0.201419089036392,-0.420172426947433
1580421297.46739,-1.11158922713054,-0.666269932097352,-0.357671473258565
1580421297.49916,-0.969985503929198,-0.760997940032045,-0.319096665903716
1580421297.53093,-0.972915236133364,-0.478278782330053,-0.231692988479438
1580421297.5627,-1.07545586327916,-0.366460669871062,-0.177492942702372
1580421297.59448,-1.01149004348821,-0.547615777828641,0.0915541313801782
1580421297.62625,-1.03590447852293,-0.164309147783626,0.138918135347524
1580421297.65802,-0.915785458152133,0.0710460059510183,0.308842603189134
1580421297.68979,-0.89039444571603,-0.402105745021744,0.132082093537804
1580421297.72156,-0.792248416876479,-0.45972381170367,0.0485847257190812
1580421297.75333,-0.973403524834058,-0.0778820477607383,0.347905699244677
1580421297.7851,-0.953871976806287,-0.119386587319752,0.413824673838405
1580421297.81688,-0.950453955901427,-0.270756084534982,0.147219043259327
1580421297.84865,-1.25416952773327,-0.39478141451133,0.0363775082017241
1580421297.88042,-0.858655680170902,-0.610605020218204,0.0896009765774011
1580421297.91219,-1.04127565423056,-0.241947051194018,-0.208255130846112
1580421297.94396,-1.0891279468986,-0.404058899824522,-0.218997482261386
1580421297.97573,-1.02662699320974,-0.558358129243915,-0.143801022354467
1580421298.00751,-1.02565041580835,-0.333745326924545,-0.048096437018387
1580421298.03928,-0.963637750820173,-0.370366979476616,-0.0627450980392155
1580421298.07105,-0.98951705195697,-0.161379415579461,0.0632333867399097
1580421298.10282,-0.988540474555581,-0.152590218966964,-0.0104982070649271
1580421298.13459,-0.98268101014725,-0.402594033722439,-0.0207522697795071
1580421298.16636,-1.15553521019303,-0.232181277180132,0.0178225375753414
1580421298.19814,-1.17213702601663,0.201907377737086,0.132570382238498
1580421298.22991,-1.00221255817502,0.640390630960557,0.161867704280155
1580421298.26175,-1.11598382543679,0.539803158617534,0.206790264744029
1580421298.29352,-1.33522545204852,0.394293125810634,0.405035477225908
1580421298.32529,-1.39577325093462,0.536385137712674,0.526619363698789
1580421298.35706,-1.61989776455329,0.506599526970323,0.472907606622414
1580421298.38884,-1.69314106965743,0.266361486228732,0.278568703746089
1580421298.42061,-1.76296635385672,-0.263431754024568,0.0285648889906156
1580421298.45238,-1.20778210116731,-0.976333257038224,-0.564217593652247
1580421298.48415,-0.722423132677195,-0.135500114442664,-0.0715342946517126
1580421298.51592,-0.421637293049516,-0.452399481193256,-0.0720225833524069
1580421298.54769,-0.371343556878005,-1.00563057907988,-0.364507515068285
1580421298.57946,-0.332280460822462,-0.985122453650721,-0.212161440451666
1580421298.61124,-0.345952544441902,-1.05006485084306,-0.0676279850461583
1580421298.64301,-0.420660715648127,-0.744396124208437,-0.0129396505683985
1580421298.67478,-0.588143739986267,-0.0158693827725642,0.00317387655451284
1580421298.70655,-1.27125963225757,-0.063721675440604,0.456794079499502
1580421298.73832,-1.56032654306859,-0.946059357595178,-0.174074921797512
1580421298.77009,-0.879652094300756,-0.763439383535516,-0.203860532539863
1580421298.80187,-0.916762035553521,-0.318120088502328,-0.106202792401007
1580421298.83364,-0.935317006179904,-0.918715190356298,-0.146242465857938
1580421298.86541,-1.68337529564355,1.20289921416037,1.89675745784695
1580421298.89718,-1.23756771190967,-0.103761348897535,0.127199206530861
1580421298.92895,-1.17994964522774,-1.01051346608682,0.0246585793850613
1580421298.96072,-0.879652094300756,-1.42409399557488,-0.481696803234913
1580421298.9925,-1.06617837796597,-0.377203021286336,-0.455817502098116
1580421299.02427,-1.25075150682841,-0.0656748302433812,-0.176516365300984
1580421299.05604,-0.973891813534753,-0.540291447318227,-0.0227054245822842
1580421299.08781,-0.995376516365301,-0.471931029221027,-0.0588387884336612
1580421299.11958,-1.04518196383612,-0.0778820477607383,0.0266117341878385
1580421299.15136,-0.959243152513924,-0.106202792401007,0.124269474326695
1580421299.18313,-1.01149004348821,-0.181887541008621,0.0520027466239412
1580421299.2149,-1.05641260395209,0.0334477759975584,0.0656748302433812
1580421299.24667,-1.01881437399863,0.333745326924543,0.173586633096818
1580421299.27844,-1.05836575875486,0.410406652933546,0.163332570382238
1580421299.31021,-1.19557488364996,0.519783321889069,0.276127260242617
1580421299.34198,-1.25026321812772,0.5085526817731,0.39038681620508
1580421299.37376,-1.34254978255894,0.343022812237734,0.395757991912717
1580421299.40553,-1.6706797894255,0.351323720149537,0.488532845044631
1580421299.4373,-1.54811932555123,0.508064393072406,0.458258945601585
1580421299.46907,-1.80495918211643,0.00903334096284425,0.10424963759823
1580421299.50084,-0.874280918593119,-0.947035934996567,-0.0578622110322726
1580421299.53265,-1.16578927290761,-0.458258945601587,-0.543221179522392
1580421299.56442,-0.546150911726558,0.126222629129472,-0.0549324788281069
1580421299.5962,-0.310307469291219,-1.17067215991455,-0.52124818799115
1580421299.62797,-0.578866254673075,-1.17653162432288,0.0114747844663157
1580421299.65974,-0.35718318455787,-0.727794308384832,0.0427252613107498
1580421299.69151,-0.403082322423133,-0.332768749523156,-0.0471198596169984
1580421299.72328,-0.931898985275044,0.155031662470435,0.223880369268329
1580421299.75505,-1.27321278706035,-0.531013962005035,0.00415045395590141
1580421299.78683,-1.34206149385824,-1.26198214694438,-0.0666514076447697
1580421299.8186,-0.846448462653544,-0.362554360265507,0.0461432822156098
1580421299.85037,-1.0207675288014,-0.470466163118944,-0.150148775463492
1580421299.88214,-0.772228580148013,-0.76392767223621,0.0427252613107498
1580421299.91391,-1.53054093232624,1.16920729381247,0.292240787365529
1580421299.94568,-1.18727397573815,0.145265888456549,-0.409430075532159
1580421299.97746,-1.36549935149157,-0.663340199893186,0.341557946135651
1580421300.00923,-0.970473792629893,-1.22194247348745,-0.156496528572518
1580421300.041,-0.90406652933547,-0.776623178454262,-0.711192492561226
1580421300.07277,-1.29909208819715,-0.0813000686655982,-0.404547188525216
1580421300.10454,-1.06129549095903,-0.295658808270391,-0.027588311589227
1580421300.13631,-0.955825131609064,-0.431891355764096,0.0373540856031127
1580421300.16809,-1.0129549095903,-0.137453269245441,0.0261234454871442
1580421300.19986,-0.990981918059052,0.123781185626001,0.00512703135728998
1580421300.23163,-0.968032349126421,-0.243900205996795,0.0988784618905925
1580421300.2634,-1.0891279468986,-0.221927214465552,0.0383306630045013
1580421300.29517,-1.05348287174792,0.199954222934309,0.118898298619058
1580421300.32694,-0.961684596017395,0.289311055161363,0.125734340428778
1580421300.35872,-1.07643244068055,0.381597619592583,0.165285725185015
1580421300.39049,-1.22926680399786,0.392339971007857,0.237064164187075
1580421300.42226,-1.27858396276799,0.372320134279391,0.40747692072938
1580421300.45403,-1.5681391622797,0.6281834134432,0.405523765926603
1580421300.4858,-1.76687266346227,0.42456702525368,0.598886091401543
1580421300.51758,-1.82986190585184,0.155519951171129,0.118410009918364
1580421300.54935,-1.57448691538872,-0.301518272678722,0.060303654535744
1580421300.58112,-0.720958266575112,-1.16920729381247,-0.482673380636301
1580421300.61289,-0.80152590218967,-0.580819409475852,0.00805676356145568
1580421300.64466,-0.234622720683603,-0.530525673304341,0.0383306630045013
1580421300.67643,-0.070557717250324,-1.09352254520485,-0.133546959639887
1580421300.7082,-0.192629892423895,-0.930922407873656,-0.130128938735027
1580421300.73998,-0.188723582818341,-0.637949187457084,-0.0393072404058898
1580421300.77175,-0.611093308918898,-0.49390402075227,0.0212405584802013
1580421300.80362,-0.899183642328527,-0.349370565346762,0.202395666437781
1580421300.83539,-1.39919127183948,-0.498298619058518,0.0373540856031127
1580421300.86716,-1.21315327687495,-0.719493400473029,-0.164797436484321
1580421300.89893,-0.654062714579995,-0.531990539406424,-0.0217288471808956
1580421300.93071,-0.802502479591059,0.324467841611352,-0.171633478294041
1580421300.96248,-1.44606698710613,-0.0192874036774242,-0.940688181887541
1580421300.99425,-1.24635690852216,0.183840695811398,0.442633707179368
1580421301.02602,-1.35378042267491,-0.0939955748836496,-0.252201113908599
1580421301.0578,-1.24049744411383,-1.29372091248951,0.0373540856031127
1580421301.08957,-1.05104142824445,-1.12135500114443,0.168703746089875
1580421301.12134,-1.11793698023957,-0.192629892423895,-0.301518272678722
1580421301.15311,-1.13942168307011,-0.265873197528039,-0.285893034256505
1580421301.18489,-0.96900892652781,-0.238040741588463,0.11108567940795
1580421301.21666,-1.00172426947433,-0.0759288929579611,0.277103837644006
1580421301.24843,-0.955825131609064,-0.158449683375295,0.226321812771801
1580421301.2802,-0.927504386968796,-0.0354009308003356,0.144289311055161
1580421301.31197,-0.928969253070878,-0.0373540856031127,0.185793850614175
1580421301.34374,-0.99977111467155,-0.00366216525520713,0.0388189517051956
1580421301.37552,-0.994888227664607,-0.12133974212253,0.0456549935149155
1580421301.40729,-0.892347600518807,0.163332570382238,0.253177691309986
1580421301.43906,-0.948012512397955,0.367437247272449,0.252201113908598
1580421301.47083,-1.04029907682918,-0.0632333867399097,0.207278553444723
1580421301.50261,-1.03639276722362,0.027588311589227,0.196536202029449
1580421301.53438,-1.10182345311665,0.119874876020447,0.179446097505149
1580421301.56615,-1.12086671244373,0.103273060196841,0.26392004272526
1580421301.59792,-1.33278400854505,0.425543602655068,0.285893034256503
1580421301.62969,-1.63308155947204,0.037842374303807,0.0686045624475469
1580421301.66147,-1.60769054703593,0.0236820019836728,0.00219729915312428
1580421301.69324,-1.21852445258259,-0.750743877317465,-0.0329594872968642
1580421301.72501,-0.962661173418784,-0.434332799267567,-0.282963302052339
1580421301.75678,-0.323491264209965,-0.283451590753033,-0.758556496528573
1580421301.78855,-0.578866254673075,-0.354253452353705,-0.911879148546578
1580421301.82033,-0.533455405508507,-0.380621042191196,-0.796643015182728
1580421301.8521,-0.457770656900893,-0.693125810635538,-0.655527580682078
1580421301.88387,-0.682871747920958,-1.06715495536736,-0.730235751888303
1580421301.91564,-0.661875333791103,-0.736095216296635,-0.50074006256199
1580421301.94742,-0.807873655298696,0.10424963759823,-0.254154268711376
1580421301.97919,-0.931898985275044,0.148195620660715,-0.299076829175251
1580421302.01096,-1.35768673228046,-0.337651636530099,-0.549080643930724
1580421302.04273,-1.33669031815061,-0.447516594186313,-0.549568932631418
1580421302.07458,-1.34401464866102,-0.232181277180132,-0.526131074998093
1580421302.10636,-1.26247043564508,-0.00903334096284425,-0.399176012817579
1580421302.13813,-1.26393530174716,-0.45288776989395,-0.378179598687725
1580421302.1699,-1.072526131075,-0.893324177920196,-0.0896009765774011
1580421302.20167,-0.895765621423667,-0.214602883955138,-0.136964980544747
1580421302.23344,-0.899183642328527,-0.103761348897535,-0.0593270771343555
1580421302.26522,-0.825940337224385,-0.728282597085526,-0.0109864957656214
1580421302.29699,-0.938735027084764,-0.40503547722591,-0.192141603723201
1580421302.32876,-0.923598077363241,-0.546150911726558,0.0217288471808956
1580421302.36053,-1.26491187914855,0.252689402609292,0.778088044556345
1580421302.39231,-1.20192263675898,-0.371343556878005,-0.0813000686655982
1580421302.42408,-0.84596017395285,-0.605233844510566,0.159426260776684
1580421302.45585,-0.941176470588236,-0.344975967040513,-0.118410009918364
1580421302.48762,-1.0471351186389,-0.551033798733501,0.0407721065079727
1580421302.51939,-1.04567025253681,-0.24682993820096,0.0988784618905925
1580421302.55117,-0.983657587548638,-0.234134431982909,0.0500495918211641
1580421302.58294,-1.06227206836042,-0.219485770962081,-0.0896009765774011
1580421302.61471,-0.957289997711147,-0.289311055161365,-0.000732433051041426
1580421302.64648,-0.943617914091707,0.0397955291065841,0.0876478217746239
1580421302.67825,-1.04078736552987,-0.204837109941252,0.183840695811398
1580421302.71003,-0.999282825970855,-0.203860532539863,0.0822766460669868
1580421302.7418,-0.982192721446555,-0.229739833676661,-0.0290531776913099
1580421302.77357,-0.995376516365301,-0.223392080567635,0.0505378805218584
1580421302.80534,-1.0295567254139,-0.0725108720531011,0.0075684748607614
1580421302.83712,-1.0637369344625,-0.282963302052339,0.0187991149767299
1580421302.86889,-1.16188296330205,-0.0661631189440754,0.0866712443732354
1580421302.90066,-1.0891279468986,0.251224536507209,0.0505378805218584
1580421302.93243,-1.15992980849927,0.0075684748607614,0.144777599755855
1580421302.9642,-1.28883802548257,0.266361486228732,0.173586633096818
1580421302.99598,-1.26198214694438,0.276127260242617,0.323979552910657
1580421303.02775,-1.33913176165408,0.391363393606468,0.389410238803691
1580421303.05952,-1.39333180743114,0.615976195925843,0.548104066529337
1580421303.09129,-1.68239871824216,0.249271381704432,0.394293125810634
1580421303.12306,-1.50759136339361,0.200442511635003,0.114991989013504
1580421303.15484,-1.16920729381247,-1.11061264972915,-0.410894941634242
1580421303.18661,-1.13405050736248,-0.193118181124589,-0.0529793240253298
1580421303.21838,-0.537361715114061,-0.470466163118944,-0.333745326924545
1580421303.25015,-0.582772564278629,-1.10572976272221,-0.208255130846112
1580421303.28193,-0.564705882352941,-1.16920729381247,-0.175051499198901
1580421303.3137,-0.228763256275272,-0.74244296940566,0.048096437018387
1580421303.34558,-0.309819180590525,-0.185305561913481,0.0207522697795071
1580421303.37735,-1.01393148699168,-0.0192874036774242,0.283451590753032
1580421303.40913,-1.24733348592355,-0.704356450751506,0.0710460059510183
1580421303.4409,-1.40456244754711,-0.985122453650721,-0.188723582818341
1580421303.47267,-0.91090257114519,-0.850354772259099,-0.366460669871062
1580421303.50444,-0.932387273975738,-0.425055313954376,-0.138918135347524
1580421303.53622,-1.50563820859083,-0.137941557946135,-0.0271000228885327
1580421303.56799,-1.42604715037766,0.471931029221025,1.1067063401236
1580421303.59976,-0.930922407873656,-0.712657358663309,-0.659922178988326
1580421303.63153,-1.18971541924163,-0.92799267566949,-0.340581368734265
