Timestamp_seconds,Accel_X_g,Accel_Y_g,Accel_Z_g
1580421251.435,-0.941176470588236,-0.0168459601739528,-0.338628213931488
1580421251.46728,-0.939223315785458,-0.0305180437933927,-0.31958495460441
1580421251.4996,-0.939223315785458,-0.0583504997329669,-0.328862439917602
1580421251.53188,-0.945571068894484,-0.0891126878767068,-0.322514686808576
1580421251.56415,-0.946547646295873,-0.113038834210727,-0.307377737087053
1580421251.59642,-0.942641336690318,-0.0612802319371326,-0.318608377203022
1580421251.6287,-0.962661173418784,-0.0437018387121384,-0.313725490196079
1580421251.66097,-0.944594491493095,-0.0456549935149155,-0.305912870984971
1580421251.69324,-0.956313420309758,-0.0617685206378269,-0.297611963073168
1580421251.72552,-0.956313420309758,-0.0554207675288012,-0.319096665903716
1580421251.75779,-0.932387273975738,-0.0363775082017241,-0.323979552910659
1580421251.79006,-0.940688181887541,-0.0314946211947813,-0.322026398107882
1580421251.82234,-0.946547646295873,-0.0319829098954756,-0.315678644998856
1580421251.85461,-0.956801709010453,-0.0510261692225527,-0.308354314488442
1580421251.88688,-0.951430533302815,-0.0368657969024184,-0.298100251773862
1580421251.91916,-0.95191882200351,-0.0441901274128327,-0.314213778896773
1580421251.95143,-0.952407110704204,-0.0520027466239412,-0.320561532005799
1580421251.9837,-0.945571068894484,-0.0593270771343555,-0.320073243305105
1580421252.01598,-0.939711604486153,-0.0471198596169984,-0.312260624093996
1580421252.04825,-0.943617914091707,-0.0578622110322726,-0.310795757991913
1580421252.08052,-0.956313420309758,-0.0466315709163041,-0.306401159685665
1580421252.11279,-0.947524223697261,-0.0554207675288012,-0.292729076066225
1580421252.14507,-0.948989089799344,-0.0593270771343555,-0.313725490196079
1580421252.17734,-0.947524223697261,-0.0627450980392155,-0.307377737087053
1580421252.20961,-0.950942244602121,-0.0529793240253298,-0.293705653467613
1580421252.24189,-0.953383688105593,-0.0534676127260241,-0.296635385671779
1580421252.27416,-0.956801709010453,-0.0578622110322726,-0.302006561379416
1580421252.30643,-0.93824673838407,-0.0568856336308841,-0.306401159685665
1580421252.33871,-0.941176470588236,-0.0642099641412983,-0.303959716182193
1580421252.37098,-0.941176470588236,-0.0437018387121384,-0.316166933699551
1580421252.40325,-0.942641336690318,-0.0622568093385212,-0.315190356298162
1580421252.43553,-0.943129625391013,-0.0568856336308841,-0.296635385671779
1580421252.4678,-0.94166475928893,-0.0578622110322726,-0.302494850080111
1580421252.50007,-0.950942244602121,-0.0598153658350498,-0.278568703746091
1580421252.53235,-0.94850080109865,-0.0598153658350498,-0.273685816739148
1580421252.56462,-0.948012512397955,-0.0759288929579611,-0.288822766460671
1580421252.59689,-0.939711604486153,-0.0749523155565726,-0.314213778896773
1580421252.62917,-0.940199893186847,-0.0666514076447697,-0.312748912794691
1580421252.66144,-0.931898985275044,-0.0554207675288012,-0.316166933699551
1580421252.69371,-0.939711604486153,-0.0612802319371326,-0.310795757991913
1580421252.72599,-0.952895399404898,-0.0451667048142212,-0.303471427481499
1580421252.75826,-0.956313420309758,-0.0568856336308841,-0.299076829175251
1580421252.79062,-0.946547646295873,-0.0764171816586554,-0.307377737087053
1580421252.82289,-0.948989089799344,-0.0954604409857325,-0.295170519569696
1580421252.85517,-0.942641336690318,-0.0920424200808725,-0.315190356298162
1580421252.88744,-0.929945830472267,-0.0832532234683754,-0.292729076066225
1580421252.91971,-0.946059357595178,-0.0617685206378269,-0.301029983978028
1580421252.95198,-0.96217288471809,-0.0935072861829553,-0.332280460822462
1580421252.98426,-0.96900892652781,-0.0285648889906156,-0.274662394140536
1580421253.01653,-0.960708018616007,-0.0466315709163041,-0.324956130312048
1580421253.0488,-0.957289997711147,-0.0456549935149155,-0.282475013351645
1580421253.08108,-0.962661173418784,-0.0476081483176927,-0.279545281147479
1580421253.11335,-0.940688181887541,-0.0515144579232469,-0.282963302052339
1580421253.14562,-0.943129625391013,-0.0207522697795071,-0.302006561379416
1580421253.1779,-0.960219729915313,-0.00610360875867855,-0.280033569848174
1580421253.21017,-0.969497215228504,0.00708018616006711,-0.272709239337759
1580421253.24244,-0.977309834439613,0.01196307316701,-0.2434119172961
1580421253.27472,-1.00123598077363,0.0300297550926985,-0.179934386205844
1580421253.30699,-1.0295567254139,0.077393759060044,-0.11450370031281
1580421253.33926,-1.03102159151598,0.145754177157244,-0.0300297550926985
1580421253.37154,-0.994888227664607,0.215579461356526,0.0329594872968642
1580421253.40381,-0.988052185854887,0.250736247806515,0.0305180437933927
1580421253.43608,-1.21217669947356,0.28442816815442,-0.0852063782711525
1580421253.46836,-1.26149385824369,0.273197528038452,-0.230228122377355
1580421253.50063,-1.12623788815137,-0.0251468680857556,-0.320073243305105
1580421253.5329,-1.04078736552987,-0.234622720683603,0.0153810940718699
1580421253.56518,-0.922621499961853,-0.0803234912642097,-0.376714732585642
1580421253.59745,-0.843518730449379,0.0700694285496297,-0.201419089036392
1580421253.62972,-0.837170977340353,0.132082093537804,-0.215579461356526
1580421253.662,-0.868909742885482,0.113038834210727,-0.126710917830167
1580421253.69427,-0.916762035553521,0.024170290684367,-0.0354009308003356
1580421253.72654,-0.918226901655604,-0.0314946211947813,-0.0173342488746471
1580421253.75882,-0.929457541771573,-0.0900892652780954,0.0788586251621268
1580421253.79109,-0.98268101014725,0.225345235370412,0.107179369802395
1580421253.82336,-1.03053330281529,0.5256427862974,-0.0915541313801782
1580421253.85564,-0.897718776226444,0.545662623025866,-0.041260395208667
1580421253.88791,-0.865003433279927,0.263431754024566,0.00610360875867855
1580421253.92018,-0.885511558709087,0.118898298619058,-0.0153810940718699
1580421253.95246,-1.01441977569238,0.189211871519035,0.0202639810788128
1580421253.98473,-1.08717479209583,-0.0222171358815899,-0.213626306553749
1580421254.017,-1.14479285877775,0.5769130998703,-0.130617227435721
1580421254.04928,-0.957778286411841,0.25366598001068,-0.23657587548638
1580421254.08169,-0.824963759822996,-0.129152361333638,-0.249271381704432
1580421254.11397,-0.974380102235447,0.132570382238498,-0.242435339894712
1580421254.14624,-0.913832303349356,0.0925307087815668,-0.303471427481499
1580421254.17851,-0.901625085831999,0.0783703364614325,-0.264896620126651
1580421254.21079,-0.908461127641718,0.145754177157244,-0.35034714274815
1580421254.24306,-0.931898985275044,0.156008239871824,-0.330327306019685
1580421254.27533,-0.926039520866713,0.157473105973907,-0.364995803768979
1580421254.30761,-0.930434119172961,0.30151827267872,-0.455817502098116
1580421254.33988,-0.913344014648661,0.215579461356526,-0.426031891355764
1580421254.37215,-0.925062943465324,0.0490730144197755,-0.460700389105059
1580421254.40443,-0.939223315785458,-0.0803234912642097,-0.451422903791867
1580421254.4367,-0.934340428778516,-0.0729991607537954,-0.382085908293279
1580421254.46897,-0.902601663233387,-0.0129396505683985,-0.448493171587701
1580421254.50125,-0.865003433279927,0.187258716716258,-0.443610284580759
1580421254.53352,-0.844495307850767,0.164309147783626,-0.465583276112001
1580421254.56579,-0.89039444571603,0.0573739223315783,-0.436285954070344
1580421254.59807,-0.909437705043107,0.0544441901274126,-0.37769130998703
1580421254.63034,-0.932387273975738,0.0988784618905925,-0.331303883421073
1580421254.66261,-0.935317006179904,0.130128938735027,-0.313237201495385
1580421254.69489,-0.943617914091707,0.198001068131532,-0.324467841611353
1580421254.72716,-0.913344014648661,0.0871595330739297,-0.404547188525216
1580421254.75943,-0.957289997711147,0.0197756923781185,-0.32642099641413
1580421254.79171,-0.929457541771573,0.10766765850309,-0.385015640497445
1580421254.82398,-0.93824673838407,0.101319905394064,-0.450446326390479
1580421254.85625,-0.938735027084764,0.169192034790569,-0.458258945601587
1580421254.88853,-0.984145876249332,0.0803234912642097,-0.371831845578699
1580421254.9208,-1.01881437399863,0.0217288471808956,-0.229251544975966
1580421254.95307,-1.0466468299382,-0.0456549935149155,-0.104737926298924
1580421254.98535,-1.03053330281529,-0.0485847257190812,-0.190676737621118
1580421255.01762,-1.03981078812848,-0.342534523537042,-0.0217288471808956
1580421255.04989,-1.03639276722362,0.00268558785381856,-0.337163347829405
1580421255.08217,-1.01441977569238,0.0842298008697639,-0.327397573815519
1580421255.11444,-1.03199816891737,0.291752498664835,-0.318120088502328
1580421255.14671,-1.13356221866178,0.119874876020447,-0.266361486228734
1580421255.17899,-1.1233081559472,0.0334477759975584,-0.317631799801633
1580421255.21126,-1.21217669947356,-0.0397955291065841,-0.280033569848174
1580421255.24353,-1.10475318532082,0.0358892195010299,-0.196047913328755
1580421255.27581,-0.929457541771573,-0.117433432516975,-0.152590218966964
1580421255.30808,-0.872816052491036,-0.122804608224612,-0.0778820477607383
1580421255.34035,-0.82203402761883,-0.0666514076447697,-0.0852063782711525
1580421255.37271,-0.808850232700085,-0.0207522697795071,-0.126710917830167
1580421255.40498,-0.817151140611887,0.099855039291981,-0.0695811398489354
1580421255.43726,-0.860120546272984,0.0905775539787896,0.0129396505683985
1580421255.46953,-0.926039520866713,0.225833524071106,0.0354009308003356
1580421255.50181,-0.978774700541695,0.506599526970323,0.185793850614175
1580421255.53408,-0.99635309376669,0.42798504615854,0.116945143816281
1580421255.56635,-0.98951705195697,0.364507515068283,0.122316319523918
1580421255.59863,-0.947035934996567,0.347905699244677,0.0881361104753182
1580421255.6309,-0.903089951934081,0.211184863050278,0.115968566414892
1580421255.66317,-0.919691767757687,0.044678416113527,0.175051499198901
1580421255.69545,-0.909925993743801,0.0539559014267184,0.0900892652780954
1580421255.72772,-0.876234073395896,0.187258716716258,-0.156008239871824
1580421255.76,-1.06861982146944,0.385015640497443,-0.0686045624475469
1580421255.79227,-1.06617837796597,0.429938200961317,0.156496528572518
1580421255.82454,-1.05592431525139,0.251712825207903,-0.288334477759976
1580421255.85682,-1.0124666208896,0.155031662470435,-0.329350728618296
1580421255.88909,-0.788342107270925,-0.178957808804455,-0.37085526817731
1580421255.92137,-0.907972838941024,-0.0925307087815668,-0.308354314488442
1580421255.95364,-0.96900892652781,0.227298390173189,-0.326909285114825
1580421255.98591,-0.931898985275044,0.309819180590523,-0.394293125810636
1580421256.01819,-0.86646829938201,0.244388494697489,-0.376714732585642
1580421256.05046,-0.964614328221561,0.25024795910582,-0.394293125810636
1580421256.08273,-0.939223315785458,-0.00561532005798426,-0.323979552910659
1580421256.11501,-0.94166475928893,-0.00903334096284425,-0.343999389639125
1580421256.14728,-0.946059357595178,0.162844281681544,-0.353276874952316
1580421256.17955,-0.953871976806287,0.0871595330739297,-0.356694895857176
1580421256.21183,-0.862073701075762,0.132082093537804,-0.369878690775922
1580421256.2441,-0.936293583581293,0.077393759060044,-0.360112916762036
1580421256.27638,-0.964126039520867,0.0129396505683985,-0.359624628061342
1580421256.30865,-0.895277332722973,0.0617685206378269,-0.37769130998703
1580421256.34092,-0.91432059205005,0.0729991607537954,-0.360112916762036
1580421256.3732,-0.926039520866713,-0.000732433051041426,-0.42554360265507
1580421256.40547,-0.906019684138247,0.147219043259327,-0.466071564812696
1580421256.43774,-0.93482871747921,0.0778820477607383,-0.412359807736324
1580421256.47002,-0.926039520866713,0.0266117341878385,-0.37769130998703
1580421256.50229,-0.928480964370184,0.0451667048142212,-0.40845349813077
1580421256.53457,-0.926039520866713,0.073975738155184,-0.358648050659953
1580421256.56684,-0.936781872281987,0.0910658426794839,-0.355230029755093
1580421256.59911,-0.970962081330587,0.122804608224612,-0.417730983443962
1580421256.63139,-0.944594491493095,0.0554207675288012,-0.315190356298162
1580421256.66373,-0.965102616922255,0.0798352025635154,-0.277103837644008
1580421256.696,-1.09694056610971,0.184817273212786,-0.203860532539863
1580421256.72827,-1.12965590905623,0.179446097505149,-0.00268558785381856
1580421256.76055,-1.17164873731594,0.0554207675288012,0.208255130846112
1580421256.79282,-1.16774242771038,-0.382574196993973,-0.226810101472495
1580421256.82509,-1.06324864576181,0.0607919432364383,-0.554940108339055
1580421256.85737,-1.12184328984512,-0.0251468680857556,-0.344975967040513
1580421256.88964,-1.15260547798886,-0.192141603723201,-0.304448004882888
1580421256.92192,-1.10768291752499,-0.0642099641412983,-0.288334477759976
1580421256.95419,-1.05104142824445,-0.0651865415426869,-0.262943465323874
1580421256.98646,-0.992446784161135,-0.0388189517051956,-0.173586633096818
1580421257.01874,-0.906996261539636,-0.000244144350347142,-0.195071335927366
1580421257.05101,-0.795666437781339,-0.151125352864881,-0.219485770962081
1580421257.08328,-0.780041199359122,-0.177004654001678,-0.169680323491264
1580421257.11556,-0.786877241168842,-0.145265888456549,-0.156008239871824
1580421257.14783,-0.83570611123827,0.0212405584802013,0.00122072175173571
1580421257.18011,-0.941176470588236,0.405523765926603,-0.024170290684367
1580421257.21238,-0.971938658731975,0.469489585717554,0.0173342488746471
1580421257.24465,-0.952895399404898,0.368413824673837,0.171145189593346
1580421257.27693,-1.02223239490349,0.379644464789806,0.149172198062104
1580421257.3092,-1.10280003051804,0.411871519035628,0.278080415045395
1580421257.34148,-1.02467383840696,0.272709239337757,0.208743419546806
1580421257.37375,-0.820569161516747,0.104737926298924,-0.0075684748607614
1580421257.40602,-0.989028763256275,0.114015411612115,-0.0563973449301898
1580421257.4383,-0.95191882200351,0.295170519569695,0.115480277714198
1580421257.47057,-0.981704432745861,0.42456702525368,-0.151613641565575
1580421257.50284,-1.02858014801251,0.00122072175173571,-0.158449683375295
1580421257.53512,-1.06861982146944,0.353276874952314,-0.36743724727245
1580421257.56739,-0.865980010681316,-0.067139696345464,-0.365972381170367
1580421257.59967,-0.867933165484093,0.0349126420996413,-0.399176012817579
1580421257.63194,-0.965102616922255,0.123781185626001,-0.264896620126651
1580421257.66421,-0.945571068894484,-0.0300297550926985,-0.223880369268329
1580421257.69649,-0.951430533302815,0.133058670939192,-0.254154268711376
1580421257.72876,-0.934340428778516,0.430426489662011,-0.333745326924545
1580421257.76103,-0.920180056458381,0.132570382238498,-0.41528953994049
1580421257.79331,-0.94508278019379,0.260013733119706,-0.38794537270161
1580421257.82558,-0.939711604486153,0.139894712748912,-0.360112916762036
1580421257.85786,-0.920668345159076,0.112550545510032,-0.34009308003357
1580421257.89013,-0.901136797131304,0.115480277714198,-0.335698481727322
1580421257.9224,-0.990005340657664,0.0983901731898982,-0.345952544441902
1580421257.9548,-0.886488136110476,0.110597390707255,-0.37085526817731
1580421257.98708,-0.86646829938201,0.10766765850309,-0.38794537270161
1580421258.01935,-0.973403524834058,-0.0583504997329669,-0.419684138246739
1580421258.05163,-0.886488136110476,-0.00903334096284425,-0.402105745021744
1580421258.0839,-0.892835889219501,0.109132524605172,-0.385503929198139
1580421258.11618,-0.968032349126421,0.0617685206378269,-0.36060120546273
1580421258.14845,-0.94508278019379,0.11450370031281,-0.429938200961319
1580421258.18073,-0.93824673838407,0.00512703135728998,-0.379644464789807
1580421258.213,-0.940688181887541,0.0402838178072784,-0.358648050659953
1580421258.24528,-0.958266575112535,0.0393072404058898,-0.421149004348822
1580421258.27755,-0.968520637827115,0.0900892652780954,-0.360112916762036
1580421258.30982,-1.00172426947433,0.0729991607537954,-0.313725490196079
1580421258.3421,-0.988540474555581,0.108155947203784,-0.297611963073168
1580421258.37437,-1.03395132372015,0.102784771496147,-0.155519951171129
1580421258.40665,-1.10133516441596,0.209719996948195,-0.101808194094758
1580421258.43892,-1.17213702601663,-0.0148928053711757,0.115480277714198
1580421258.4712,-1.1320973525597,-0.174074921797512,-0.0256351567864499
1580421258.50347,-1.0554360265507,-0.063721675440604,-0.39819943541619
1580421258.53575,-1.07789730678263,0.0627450980392155,-0.506111238269627
1580421258.56802,-1.16188296330205,-0.0363775082017241,-0.310795757991913
1580421258.6003,-1.14430457007706,-0.146242465857938,-0.289799343862059
1580421258.63257,-0.98609903105211,-0.0217288471808956,-0.268802929732205
1580421258.66485,-1.00172426947433,-0.0231937132829785,-0.156496528572518
1580421258.69712,-0.936293583581293,0.00952162966353853,-0.160402838178072
1580421258.7294,-0.848401617456322,-0.0642099641412983,-0.176516365300984
1580421258.76167,-0.786877241168842,-0.102296482795452,-0.165285725185015
1580421258.79395,-0.772716868848708,-0.0759288929579611,-0.146730754558632
1580421258.82622,-0.85279621576257,-0.00903334096284425,-0.106202792401007
1580421258.85849,-0.874280918593119,0.154055085069047,-0.0500495918211641
1580421258.89077,-0.90748455024033,0.318120088502326,0.0495613031204698
1580421258.92304,-0.959731441214618,0.398199435416188,0.0632333867399097
1580421258.95532,-1.05250629434653,0.430426489662011,0.209231708247501
1580421258.98759,-1.05299458304723,0.35962462806134,0.195071335927366
1580421259.01987,-1.04518196383612,0.370366979476614,0.275638971541923
1580421259.05214,-0.894789044022279,0.181887541008621,0.0842298008697639
1580421259.08442,-0.796154726482033,0.169192034790569,-0.160891126878766
1580421259.11669,-0.899183642328527,0.256107423514152,-0.143312733653772
1580421259.14897,-0.824475471122302,0.181399252307926,-0.0778820477607383
1580421259.18124,-1.36696421759365,0.356694895857174,0.0246585793850613
1580421259.21352,-1.09352254520485,0.037842374303807,-0.155031662470435
1580421259.24591,-0.994888227664607,0.258548867017623,-0.138429846646829
1580421259.27818,-0.846448462653544,-0.288822766460671,-0.423102159151599
1580421259.31046,-0.810315098802167,0.212649729152361,-0.43237964446479
1580421259.34274,-0.899671931029221,0.447516594186311,-0.368902113374533
1580421259.37501,-0.944594491493095,0.160891126878766,-0.32300297550927
1580421259.40729,-0.942641336690318,0.242923628595406,-0.309819180590525
1580421259.43956,-0.891859311818113,0.11108567940795,-0.409918364232853
1580421259.47184,-0.905531395437553,0.0817883573662925,-0.423102159151599
1580421259.50411,-0.921644922560464,0.0222171358815899,-0.397222858014802
1580421259.53639,-0.946547646295873,0.0827649347676811,-0.382085908293279
1580421259.56866,-0.918226901655604,0.0573739223315783,-0.406500343327993
1580421259.60094,-0.892835889219501,0.0930189974822611,-0.414312962539102
1580421259.63321,-0.901625085831999,0.102784771496147,-0.406988632028687
1580421259.66549,-0.885999847409781,0.0861829556725411,-0.38452735179675
1580421259.69776,-0.934340428778516,0.0217288471808956,-0.34692912184329
1580421259.73004,-0.927016098268101,0.0549324788281069,-0.380621042191196
1580421259.76231,-0.94166475928893,0.0451667048142212,-0.368413824673839
1580421259.79459,-0.928969253070878,0.102784771496147,-0.423590447852293
1580421259.82686,-0.939711604486153,0.060303654535744,-0.382085908293279
1580421259.85914,-0.941176470588236,0.0427252613107498,-0.406012054627299
1580421259.89141,-0.922621499961853,0.0207522697795071,-0.368413824673839
1580421259.92369,-0.911879148546578,0.024170290684367,-0.404547188525216
1580421259.95597,-0.962661173418784,0.0827649347676811,-0.454840924696727
1580421259.98824,-0.995864805065995,0.0593270771343555,-0.375249866483559
1580421260.02051,-1.01734950789654,0.0607919432364383,-0.232669565880826
1580421260.05279,-1.05983062485695,0.167727168688486,-0.193118181124589
1580421260.08506,-1.14283970397497,0.231204699778743,-0.0383306630045013
1580421260.11734,-1.2004577706569,-0.0881361104753182,0.0324711985961699
1580421260.14962,-1.10719462882429,-0.54175631342031,-0.342534523537042
1580421260.18189,-0.996841382467384,0.167727168688486,-0.343022812237736
1580421260.21417,-0.974380102235447,0.240482185091935,-0.322026398107882
1580421260.24644,-1.14235141527428,0.0798352025635154,-0.388433661402305
1580421260.27872,-1.17604333562219,-0.0339360646982527,-0.354253452353705
1580421260.31099,-1.25416952773327,-0.0510261692225527,-0.286381322957199
1580421260.34327,-1.15651178759441,-0.0563973449301898,-0.194583047226672
1580421260.37554,-0.96900892652781,-0.118898298619058,-0.111573968108644
1580421260.40782,-0.829358358129245,-0.176028076600289,-0.128664072632944
1580421260.44009,-0.810803387502862,-0.0935072861829553,-0.170656900892652
1580421260.47237,-0.760021362630656,-0.112062256809338,-0.198001068131532
1580421260.50464,-0.69459067673762,-0.110109102006561,-0.147219043259327
1580421260.53702,-0.691660944533455,-0.0187991149767299,-0.0466315709163041
1580421260.56929,-0.848889906157016,0.300541695277332,-0.157473105973907
1580421260.60157,-1.00172426947433,0.637949187457085,0.0617685206378269
1580421260.63384,-1.04029907682918,0.630136568245977,0.255619134813458
1580421260.66612,-1.04518196383612,0.443610284580757,0.147219043259327
1580421260.69839,-1.03199816891737,0.359136339360646,0.327885862516212
1580421260.73067,-0.837659266041047,0.115480277714198,-0.027588311589227
1580421260.76294,-0.925062943465324,0.128664072632944,-0.0754406042572668
1580421260.79522,-0.899183642328527,0.0197756923781185,-0.134035248340581
1580421260.82749,-1.20289921416037,0.541756313420311,0.176028076600289
1580421260.85977,-1.07447928587777,0.267826352330815,-0.12133974212253
1580421260.89205,-0.980239566643778,0.396734569314106,-0.193118181124589
1580421260.92432,-0.840588998245213,-0.202395666437781,-0.299076829175251
1580421260.95659,-0.891859311818113,-0.169192034790569,-0.377203021286336
1580421260.98887,-0.970962081330587,0.244388494697489,-0.376714732585642
1580421261.02114,-0.905531395437553,0.175539787899595,-0.368902113374533
1580421261.05342,-0.926527809567407,0.128664072632944,-0.382085908293279
1580421261.0857,-0.94166475928893,0.2605020218204,-0.386480506599527
1580421261.11797,-0.918715190356298,0.146242465857938,-0.358648050659953
1580421261.15025,-0.941176470588236,0.123781185626001,-0.398687724116884
1580421261.18252,-0.90748455024033,0.0769054703593497,-0.340581368734265
1580421261.2148,-0.943617914091707,0.102784771496147,-0.356694895857176
1580421261.24707,-0.964126039520867,0.0715342946517126,-0.335210193026628
1580421261.27935,-0.915785458152133,0.108155947203784,-0.394293125810636
1580421261.31162,-0.926527809567407,0.0969253070878153,-0.385503929198139
1580421261.3439,-0.857190814068819,-0.00268558785381856,-0.433356221866179
1580421261.37617,-0.870862897688259,0.0520027466239412,-0.485114824139773
1580421261.40845,-0.90406652933547,-0.0163576714732585,-0.345464255741208
1580421261.44072,-0.935317006179904,0.0358892195010299,-0.327397573815519
1580421261.473,-0.920668345159076,0.0842298008697639,-0.365484092469673
1580421261.50527,-1.01393148699168,0.0720225833524069,-0.366460669871062
1580421261.53755,-0.982192721446555,0.0778820477607383,-0.355230029755093
1580421261.56982,-0.946547646295873,0.0388189517051956,-0.302983138780805
1580421261.6021,-0.94850080109865,0.0217288471808956,-0.308842603189136
1580421261.63437,-1.01441977569238,0.0925307087815668,-0.382085908293279
1580421261.66665,-1.00953688868544,0.129640650034332,-0.362554360265507
1580421261.69893,-0.991470206759747,0.160402838178072,-0.229739833676661
1580421261.7312,-1.05299458304723,0.11450370031281,-0.202395666437781
1580421261.76347,-1.14186312657359,0.103273060196841,-0.0559090562294955
1580421261.79575,-1.14283970397497,0.0212405584802013,0.119874876020447
1580421261.82819,-1.18043793392843,-0.208255130846112,0.154055085069047
1580421261.86046,-1.06861982146944,-0.23315785458152,-0.322026398107882
1580421261.89274,-1.05152971694514,-0.0559090562294955,-0.500251773861295
1580421261.92501,-1.09254596780346,0.0451667048142212,-0.428473334859236
1580421261.95729,-1.12867933165484,0.0393072404058898,-0.347905699244679
1580421261.98956,-1.08424505989166,0.0495613031204698,-0.316655222400245
1580421262.02184,-1.00904859998474,0.130128938735027,-0.33325703822385
1580421262.05411,-0.929457541771573,-0.00610360875867855,-0.201419089036392
1580421262.08639,-0.840100709544519,0.0124513618677042,-0.149172198062104
1580421262.11867,-0.811291676203556,-0.0437018387121384,-0.193606469825284
1580421262.15094,-0.788342107270925,-0.0476081483176927,-0.196536202029449
1580421262.18322,-0.797619592584116,0.0134279392690928,-0.185793850614175
1580421262.21549,-0.865491721980622,0.0764171816586554,-0.0935072861829553
1580421262.24777,-0.937270160982681,0.175539787899595,0.0529793240253298
1580421262.28005,-0.998306248569467,0.349858854047454,0.0827649347676811
1580421262.31232,-0.970962081330587,0.363530937666894,0.244388494697489
1580421262.3446,-1.04078736552987,0.310307469291217,0.219974059662775
1580421262.37687,-0.98609903105211,0.355718318455786,0.106202792401007
1580421262.40915,-1.01002517738613,0.439215686274508,0.192141603723201
1580421262.44142,-0.93824673838407,0.38355077439536,0.0539559014267184
1580421262.4737,-0.774670023651485,0.237064164187075,-0.116945143816281
1580421262.50598,-0.73218890669108,0.314213778896772,-0.318608377203022
1580421262.53825,-1.09694056610971,0.265873197528038,-0.105714503700312
1580421262.57053,-1.1574883649958,0.398199435416188,0.159914549477378
1580421262.6028,-1.38698405432212,-0.214602883955138,-0.00170901045242999
1580421262.63508,-0.969985503929198,-0.431891355764096,-0.278080415045396
1580421262.66735,-0.679942015716792,-0.202395666437781,-0.399176012817579
1580421262.69963,-0.97242694743267,0.161379415579461,-0.373296711680782
1580421262.7319,-0.988052185854887,0.347417410543983,-0.389410238803693
1580421262.76418,-0.935805294880598,0.256107423514152,-0.341557946135653
1580421262.79646,-0.92799267566949,0.212649729152361,-0.321049820706493
1580421262.82873,-0.929457541771573,0.0622568093385212,-0.298588540474556
1580421262.86101,-0.948012512397955,0.0769054703593497,-0.285893034256505
1580421262.89328,-0.922133211261158,0.269291218432897,-0.352788586251622
1580421262.92556,-0.831799801632716,0.176028076600289,-0.302494850080111
1580421262.95783,-1.0041657129778,0.12133974212253,-0.292729076066225
1580421262.99011,-0.905043106736859,0.148683909361409,-0.395757991912719
1580421263.02239,-0.896742198825056,0.0271000228885327,-0.37427328908217
1580421263.05466,-0.939223315785458,0.102784771496147,-0.347905699244679
1580421263.08694,-0.940199893186847,0.0197756923781185,-0.267826352330816
1580421263.11932,-0.962661173418784,0.0192874036774242,-0.214114595254443
1580421263.1516,-0.964126039520867,0.147707331960021,-0.264896620126651
1580421263.18387,-0.98268101014725,0.0935072861829553,-0.203372243839169
1580421263.21615,-1.00514229037919,0.130128938735027,-0.234134431982909
1580421263.24843,-1.09449912260624,0.0534676127260241,-0.115968566414892
1580421263.2807,-1.14430457007706,0.300053406576637,-0.0222171358815899
1580421263.31298,-1.30641641870756,0.454352635996031,-0.144777599755855
1580421263.34525,-1.3625696192874,0.111573968108644,-0.00170901045242999
1580421263.37753,-1.13258564126039,0.0974135957885096,-0.461676966506447
1580421263.4098,-1.03736934462501,-0.214602883955138,-0.269779507133594
1580421263.44208,-0.843030441748684,0.0793469138628211,-0.722423132677195
1580421263.47436,-0.80494392309453,0.551033798733503,-0.748790722514686
1580421263.50663,-0.89723048752575,0.552010376134891,-0.67750057221332
1580421263.53891,-1.0036774242771,0.096437018387121,-0.593026626993209
1580421263.57118,-0.995376516365301,0.139894712748912,-0.530037384603647
1580421263.60346,-0.943129625391013,0.0871595330739297,-0.424567025253682
1580421263.63573,-0.908461127641718,0.0227054245822842,-0.406500343327993
1580421263.66801,-0.927016098268101,-0.0187991149767299,-0.324467841611353
1580421263.70029,-0.924086366063936,-0.0104982070649271,-0.223880369268329
1580421263.73256,-0.946059357595178,-0.0295414663920042,-0.145754177157244
1580421263.76484,-0.971450370031281,0.115480277714198,-0.162844281681544
1580421263.79711,-1.02613870450904,0.187258716716258,-0.155031662470435
1580421263.82939,-1.00563057907988,0.146242465857938,-0.108644235904478
1580421263.86166,-0.887953002212559,0.0891126878767068,-0.162355992980849
1580421263.89394,-0.961684596017395,0.162844281681544,-0.173586633096818
1580421263.92621,-1.07594415197986,0.168215457389181,0.0759288929579611
1580421263.95849,-0.956313420309758,0.263431754024566,0.121828030823224
1580421263.99077,-0.82203402761883,0.295658808270389,-0.044678416113527
1580421264.02304,-0.796643015182728,0.381109330891888,-0.322026398107882
1580421264.05532,-0.830823224231327,0.189700160219729,-0.147219043259327
1580421264.08759,-1.07887388418402,0.103273060196841,-0.135011825741969
1580421264.11987,-1.05885404745556,-0.468513008316167,0.0280766002899213
1580421264.15214,-1.53786526283665,0.536385137712674,-0.0334477759975584
1580421264.18442,-0.816662851911193,-0.354741741054399,-0.302983138780805
1580421264.2167,-0.723887998779277,-0.144289311055161,-0.444586861982147
1580421264.24897,-1.0124666208896,0.551522087434197,-0.41187151903563
1580421264.28125,-0.894789044022279,0.0432135500114441,-0.38452735179675
1580421264.31352,-1.04420538643473,0.0925307087815668,-0.258060578316931
1580421264.3458,-0.920180056458381,-0.0417486839093613,-0.440192263675899
1580421264.37807,-0.853772793163959,0.148195620660715,-0.471931029221027
1580421264.41058,-0.941176470588236,0.240970473792629,-0.40161745632105
1580421264.44286,-0.895765621423667,0.184328984512092,-0.32983901731899
1580421264.47513,-1.00904859998474,0.0368657969024184,-0.317631799801633
1580421264.50741,-0.959243152513924,0.0915541313801782,-0.430914778362707
1580421264.53969,-0.929457541771573,-0.0104982070649271,-0.450934615091173
1580421264.57196,-0.890882734416724,-0.0666514076447697,-0.423102159151599
1580421264.60424,-0.997817959868772,0.027588311589227,-0.385503929198139
1580421264.63652,-0.870374608987564,0.101319905394064,-0.43921568627451
1580421264.66879,-0.923598077363241,0.113038834210727,-0.414312962539102
1580421264.70107,-0.912367437247273,-0.0334477759975584,-0.414801251239796
1580421264.73335,-0.900160219729916,-0.0783703364614325,-0.38110933089189
1580421264.76562,-0.937758449683376,-0.0285648889906156,-0.343022812237736
1580421264.7979,-0.95191882200351,0.110597390707255,-0.354253452353705
1580421264.83017,-0.964126039520867,0.139406424048218,-0.36401922636759
1580421264.86245,-1.00611886778058,0.0710460059510183,-0.237064164187075
1580421264.89472,-1.03883421072709,0.200930800335698,-0.263920042725262
1580421264.927,-1.05104142824445,0.3972228580148,-0.133058670939192
1580421264.95928,-1.1916685740444,0.360112916762034,0.0681162737468526
1580421264.99155,-1.19801632715343,0.122316319523918,0.0251468680857556
1580421265.02383,-1.25026321812772,-0.519783321889067,-0.00317387655451284
1580421265.05611,-1.02174410620279,0.0261234454871442,-0.563241016250858
1580421265.08838,-1.06080720225834,-0.0891126878767068,-0.355718318455787
1580421265.12066,-1.10963607232776,-0.0236820019836728,-0.360112916762036
1580421265.15294,-1.3029983978027,-0.160402838178072,-0.327885862516213
1580421265.18521,-1.11598382543679,-0.0725108720531011,-0.315678644998856
1580421265.21749,-1.0212558175021,-0.179446097505149,-0.241458762493323
1580421265.24976,-0.869398031586176,-0.135011825741969,-0.225345235370412
1580421265.28204,-0.816662851911193,-0.0949721522850382,-0.154543373769741
1580421265.31431,-0.765392538338293,-0.0944838635843439,-0.168215457389181
1580421265.34659,-0.678965438315403,-0.060303654535744,-0.278080415045396
1580421265.37887,-0.733165484092469,-0.112550545510032,-0.195559624628061
1580421265.41114,-0.885023270008393,0.176516365300984,-0.196536202029449
1580421265.44342,-1.01783779659724,0.686289768825819,0.170656900892652
1580421265.4757,-1.02613870450904,0.475349050125885,0.444098573281451
1580421265.50797,-1.11061264972915,0.263431754024566,0.143801022354467
1580421265.54025,-1.03736934462501,0.399664301518271,0.237552452887769
1580421265.57253,-0.756115053025102,0.439215686274508,0.000244144350347142
1580421265.6048,-0.623300526436255,0.214114595254443,-0.458258945601587
1580421265.63708,-0.992446784161135,-0.0246585793850613,0.00219729915312428
1580421265.66935,-1.61647974364843,0.650156404974442,0.0246585793850613
1580421265.70178,-1.16920729381247,0.0432135500114441,-0.149172198062104
1580421265.73406,-0.523201342793927,-0.719981689173723,-0.436285954070344
1580421265.76633,-0.918226901655604,0.220950637064163,-0.653574425879301
1580421265.79861,-0.972915236133364,0.295170519569695,-0.575936522468909
1580421265.83089,-0.822522316319525,0.240482185091935,-0.43579766536965
1580421265.86316,-0.983169298847944,0.0881361104753182,-0.363530937666896
1580421265.89544,-0.915785458152133,0.00512703135728998,-0.368902113374533
1580421265.92771,-0.93824673838407,0.118898298619058,-0.35376516365301
1580421265.95999,-0.910414282444496,0.0817883573662925,-0.346440833142596
1580421265.99227,-0.97242694743267,0.122316319523918,-0.345952544441902
1580421266.02454,-0.920668345159076,0.122316319523918,-0.37085526817731
1580421266.05682,-0.882581826504921,0.113038834210727,-0.423590447852293
1580421266.0891,-0.901136797131304,0.137941557946135,-0.44946974898909
1580421266.12137,-0.92799267566949,-0.0383306630045013,-0.380621042191196
1580421266.15365,-0.944106202792401,-0.060303654535744,-0.348393987945373
1580421266.18592,-0.920180056458381,0.139894712748912,-0.35034714274815
1580421266.2182,-0.94508278019379,0.195071335927366,-0.345952544441902
1580421266.25048,-0.972915236133364,0.0393072404058898,-0.330327306019685
1580421266.28275,-0.977798123140307,0.00708018616006711,-0.331303883421073
1580421266.31503,-1.0295567254139,-0.096437018387121,-0.307866025787748
1580421266.3473,-1.01588464179446,0.027588311589227,-0.397711146715496
1580421266.37958,-0.977309834439613,0.227786678873883,-0.347905699244679
1580421266.41186,-0.93824673838407,0.215579461356526,-0.266361486228734
1580421266.44413,-1.06031891355764,-0.0939955748836496,-0.202395666437781
1580421266.47641,-1.05152971694514,0.219485770962081,-0.207278553444723
1580421266.50869,-1.07692072938125,-0.0202639810788128,-0.0744640268558783
1580421266.54096,-1.16871900511177,-0.155519951171129,-0.0886243991760125
1580421266.57324,-0.969985503929198,0.027588311589227,-0.278080415045396
1580421266.60551,-1.01832608529793,0.184817273212786,-0.257084000915542
1580421266.63779,-1.17213702601663,-0.0104982070649271,-0.298588540474556
1580421266.67007,-1.39772640573739,0.0187991149767299,-0.276615548943314
1580421266.70234,-1.35524528877699,0.0217288471808956,-0.256595712214848
1580421266.73462,-1.18092622262913,-0.0441901274128327,-0.0744640268558783
1580421266.76689,-0.951430533302815,-0.161867704280155,0.0314946211947813
1580421266.79917,-0.81861600671397,-0.195559624628061,-0.0822766460669868
1580421266.83145,-0.698985275043869,-0.177492942702372,-0.184328984512092
1580421266.86372,-0.607186999313344,-0.0856946669718468,-0.186770428015564
1580421266.896,-0.563729304951552,-0.0461432822156098,-0.105226214999618
1580421266.92828,-0.653574425879301,-0.0441901274128327,-0.296635385671779
1580421266.96055,-0.770275425345236,0.626718547341117,-0.35718318455787
1580421266.99307,-1.18043793392843,1.0378576333257,0.697520408941788
1580421267.02535,-1.09401083390555,0.323491264209963,0.223392080567635
1580421267.05762,-0.954360265506981,0.321049820706492,0.10424963759823
1580421267.0899,-0.96559090562295,0.139406424048218,0.401129167620354
1580421267.12218,-0.969497215228504,-0.437262531471733,-0.345952544441902
1580421267.15445,-1.1916685740444,0.918715190356298,-0.00952162966353853
1580421267.18673,-1.32106507972839,-0.0314946211947813,-0.265873197528039
1580421267.21901,-0.887464713511864,-0.0163576714732585,-0.358159761959259
1580421267.25128,-0.691660944533455,0.00561532005798426,-0.530525673304341
1580421267.28356,-0.980727855344472,0.254642557412069,-0.35376516365301
1580421267.31584,-0.926039520866713,0.262455176623178,-0.427496757457847
1580421267.34811,-0.853284504463264,0.103273060196841,-0.39819943541619
1580421267.38039,-0.927016098268101,-0.0266117341878385,-0.389410238803693
1580421267.41267,-0.962661173418784,0.142824444953078,-0.393804837109942
1580421267.44494,-0.911390859845884,0.00952162966353853,-0.392828259708553
1580421267.47722,-0.890882734416724,0.232669565880826,-0.427496757457847
1580421267.5095,-0.857190814068819,0.148683909361409,-0.38452735179675
1580421267.54177,-0.894789044022279,-0.0168459601739528,-0.334721904325933
1580421267.57405,-0.927504386968796,0.0295414663920042,-0.337651636530099
1580421267.60633,-0.947524223697261,-0.0178225375753414,-0.296635385671779
1580421267.6386,-0.989028763256275,-0.0588387884336612,-0.357671473258565
1580421267.67088,-1.00807202258335,0.117433432516975,-0.339116502632182
1580421267.70316,-0.974868390936141,0.198977645532921,-0.414801251239796
1580421267.73544,-0.976821545738918,0.077393759060044,-0.300053406576639
1580421267.76771,-1.02027924010071,0.027588311589227,-0.257572289616236
1580421267.79999,-1.06959639887083,0.0676279850461583,-0.318608377203022
1580421267.83226,-1.11793698023957,0.218020904859998,-0.148683909361409
1580421267.86454,-1.19264515144579,0.330327306019683,0.0109864957656214
1580421267.89682,-1.24782177462425,0.378667887388417,0.134523537041275
1580421267.92909,-1.31813534752422,-0.106202792401007,0.25708400091554
1580421267.96137,-1.11793698023957,-0.420660715648127,-0.582284275577935
1580421267.99365,-0.988540474555581,0.0715342946517126,-0.596932936598764
1580421268.02592,-1.18776226443885,-0.0734874494544897,-0.293217364766919
1580421268.0582,-1.14576943617914,-0.031006332494087,-0.358648050659953
1580421268.09048,-1.02760357061112,0.143801022354467,-0.254154268711376
1580421268.12275,-1.08619821469444,0.000244144350347142,-0.190676737621118
1580421268.15503,-0.92115663385977,-0.0456549935149155,-0.217532616159303
1580421268.18731,-0.78785381857023,-0.0803234912642097,-0.161867704280155
1580421268.21958,-0.707774471656366,-0.0920424200808725,-0.173098344396124
1580421268.25186,-0.70826276035706,-0.10083161669337,-0.210208285648889
1580421268.28436,-0.711192492561226,-0.0993667505912867,-0.132570382238498
1580421268.31664,-0.778576333257039,-0.0207522697795071,-0.00952162966353853
1580421268.34892,-0.899671931029221,0.410406652933546,0.109620813305867
1580421268.38119,-1.04371709773404,0.868909742885482,0.186282139314869
1580421268.41347,-1.12184328984512,0.680918593118182,0.390875104905774
1580421268.44575,-1.07057297627222,0.353276874952314,0.203372243839169
1580421268.47802,-0.926527809567407,0.290775921263446,0.0920424200808725
1580421268.5103,-0.86988632028687,0.243900205996795,-0.273685816739148
1580421268.54258,-0.978286411841001,0.181887541008621,-0.0075684748607614
1580421268.57486,-1.01197833218891,0.233646143282215,-0.146242465857938
1580421268.60713,-1.44411383230335,0.351812008850231,-0.239505607690546
1580421268.63941,-0.720958266575112,-0.53833829251545,-0.393316548409247
1580421268.67169,-0.730235751888303,-0.284916456855116,-0.491950865949493
1580421268.70396,-1.06276035706111,0.586678873884185,-0.494392309452964
1580421268.73624,-0.865003433279927,0.096437018387121,-0.409430075532159
1580421268.76852,-0.928969253070878,0.212649729152361,-0.338628213931488
1580421268.8008,-0.985122453650721,0.0354009308003356,-0.305424582284276
1580421268.83307,-0.930922407873656,0.233646143282215,-0.348393987945373
1580421268.86535,-0.882581826504921,0.180910963607232,-0.401129167620356
1580421268.89763,-0.891371023117419,0.139406424048218,-0.423590447852293
1580421268.9299,-0.892835889219501,0.197512779430838,-0.403570611123827
1580421268.96218,-0.874769207293813,0.0729991607537954,-0.338139925230793
1580421268.99446,-0.956313420309758,0.063721675440604,-0.31958495460441
1580421269.02674,-0.968520637827115,0.0627450980392155,-0.300053406576639
1580421269.05901,-0.941176470588236,0.0622568093385212,-0.283451590753033
1580421269.09129,-0.954360265506981,0.28784618905928,-0.348393987945373
1580421269.12357,-0.943617914091707,0.213138017853055,-0.332280460822462
1580421269.15584,-0.993423361562524,0.111573968108644,-0.278080415045396
1580421269.18812,-1.02027924010071,-0.0544441901274126,-0.176028076600289
1580421269.2204,-1.01002517738613,0.218509193560692,-0.206301976043335
1580421269.25268,-1.06227206836042,0.295170519569695,-0.128175783932249
1580421269.28495,-1.06276035706111,0.317631799801632,-0.0300297550926985
1580421269.31723,-1.27663080796521,-0.0319829098954756,-0.099855039291981
1580421269.34951,-1.24147402151522,0.0817883573662925,-0.117433432516975
1580421269.38178,-1.11110093842985,0.0383306630045013,-0.237064164187075
1580421269.41406,-1.09742885481041,0.0495613031204698,-0.532478828107118
1580421269.44634,-1.20680552376593,-0.0100099183642328,-0.37769130998703
1580421269.47862,-1.15211718928817,-0.0886243991760125,-0.285893034256505
1580421269.51089,-1.14235141527428,-0.0280766002899213,-0.212649729152361
1580421269.54317,-1.09010452429999,-0.10766765850309,-0.215579461356526
1580421269.57559,-0.949965667200733,-0.127687495231555,-0.143312733653772
1580421269.60787,-0.774670023651485,-0.0607919432364383,-0.178957808804455
1580421269.64015,-0.720469977874417,-0.0920424200808725,-0.194094758525978
1580421269.67242,-0.724864576180666,-0.108155947203784,-0.166750591287098
1580421269.7047,-0.670664530403601,-0.151125352864881,-0.149660486762798
1580421269.73698,-0.712169069962615,-0.00512703135728998,-0.102296482795452
1580421269.76925,-0.882093537804227,0.33569848172732,0.00317387655451284
1580421269.80153,-0.990005340657664,0.744396124208439,0.168215457389181
1580421269.83381,-1.09254596780346,0.711192492561228,0.303959716182192
1580421269.86609,-1.11012436102846,0.420660715648125,0.447028305485617
1580421269.89836,-1.05592431525139,0.372320134279391,0.227786678873883
1580421269.93064,-0.875257495994507,0.215091172655832,0.0676279850461583
1580421269.96292,-1.01344319829099,-0.110597390707255,-0.213138017853055
1580421269.99519,-0.863538567177844,0.121828030823224,0.0788586251621268
1580421270.02747,-1.0891279468986,0.583260852979326,-0.31958495460441
1580421270.05975,-1.53493553063249,0.405523765926603,-0.318608377203022
1580421270.09203,-0.53833829251545,-0.364995803768979,-0.39478141451133
1580421270.1243,-0.755626764324408,-0.0339360646982527,-0.478278782330053
1580421270.15658,-1.04322880903334,0.300541695277332,-0.420660715648127
1580421270.18886,-0.906507972838941,0.155031662470435,-0.376714732585642
1580421270.22113,-0.901136797131304,0.106691081101701,-0.322026398107882
1580421270.25341,-0.927016098268101,0.0817883573662925,-0.37427328908217
1580421270.28569,-0.952895399404898,0.159914549477378,-0.38452735179675
1580421270.31797,-0.923598077363241,0.0651865415426869,-0.364995803768979
1580421270.35024,-0.909925993743801,0.0856946669718468,-0.37769130998703
1580421270.38252,-0.962661173418784,0.163820859082932,-0.336186770428016
1580421270.4148,-0.930922407873656,0.0075684748607614,-0.390875104905776
1580421270.44707,-0.881605249103533,-0.0417486839093613,-0.393804837109942
1580421270.47935,-0.911390859845884,0.106202792401007,-0.455329213397421
1580421270.51163,-0.86646829938201,0.080811779964904,-0.37427328908217
1580421270.54391,-0.898207064927139,0.122804608224612,-0.301029983978028
1580421270.57618,-1.00465400167849,0.203860532539863,-0.24682993820096
1580421270.60846,-1.0041657129778,0.152590218966964,-0.278568703746091
1580421270.64074,-1.04127565423056,0.0261234454871442,-0.172610055695429
1580421270.67301,-0.987563897154192,0.153078507667658,-0.184817273212786
1580421270.70529,-1.06861982146944,0.149660486762798,-0.263431754024568
1580421270.73757,-1.12721446555276,0.271732661936369,-0.215091172655832
1580421270.76985,-1.1921568627451,0.326909285114823,0.0432135500114441
1580421270.80212,-1.36696421759365,0.251224536507209,0.187258716716258
1580421270.8344,-1.35133897917144,-0.384039063096056,-0.0515144579232469
1580421270.86685,-1.08863965819791,-0.027588311589227,-0.44263370717937
1580421270.89913,-1.04811169604028,0.199465934233615,-0.591073472190432
1580421270.93141,-1.06471351186389,0.0900892652780954,-0.557381551842527
1580421270.96368,-1.02369726100557,0.110109102006561,-0.54517433432517
1580421270.99596,-1.07545586327916,0.0905775539787896,-0.427985046158541
1580421271.02824,-0.956801709010453,-0.00268558785381856,-0.43921568627451
1580421271.06052,-0.85621423666743,-0.0319829098954756,-0.425055313954376
1580421271.09279,-0.845471885252156,0.0793469138628211,-0.39136339360647
1580421271.12507,-0.842053864347296,0.0246585793850613,-0.413336385137713
1580421271.15735,-0.837659266041047,-0.0124513618677042,-0.355718318455787
1580421271.18963,-0.843518730449379,-0.0397955291065841,-0.191653315022506
1580421271.2219,-0.960708018616007,0.00170901045242999,-0.107179369802395
1580421271.25418,-0.982192721446555,0.286869611657892,-0.0266117341878385
1580421271.28646,-0.980239566643778,0.151613641565575,0.10424963759823
1580421271.31874,-0.857190814068819,0.0720225833524069,0.0358892195010299
1580421271.35101,-0.903578240634776,0.295658808270389,-0.189211871519035
1580421271.38329,-1.31960021362631,0.587655451285574,0.260013733119706
1580421271.41557,-1.00611886778058,0.285893034256503,-0.01196307316701
1580421271.44785,-0.740978103303577,0.253177691309986,-0.218020904859998
1580421271.48013,-0.72535286488136,-0.0197756923781185,-0.364507515068285
1580421271.5124,-1.03736934462501,0.0598153658350498,-0.393316548409247
1580421271.54468,-1.02027924010071,-0.0554207675288012,-0.460212100404364
1580421271.57696,-1.38747234302281,-0.271732661936371,0.0783703364614325
1580421271.60924,-1.07154955367361,-0.338628213931488,-0.257572289616236
1580421271.64151,-0.671641107804989,-0.302494850080111,-0.391851682307164
1580421271.67379,-0.988540474555581,0.293705653467612,-0.45972381170367
1580421271.70607,-0.819592584115359,0.615976195925843,-0.519295033188373
1580421271.73835,-0.92799267566949,0.138429846646829,-0.379156176089113
1580421271.77062,-0.990493629358358,0.131593804837109,-0.289311055161365
1580421271.8029,-0.935317006179904,0.0192874036774242,-0.330815594720379
1580421271.83518,-0.92115663385977,-0.0329594872968642,-0.240482185091935
1580421271.86746,-0.967544060425727,0.253177691309986,-0.35376516365301
1580421271.89973,-0.803479056992447,0.231692988479438,-0.424567025253682
1580421271.93201,-0.879652094300756,0.0363775082017241,-0.410406652933547
1580421271.96429,-0.977798123140307,0.0563973449301898,-0.389898527504387
1580421271.99657,-0.97242694743267,0.0300297550926985,-0.438239108873121
1580421272.02884,-0.913832303349356,-0.0183108262760356,-0.445075150682841
1580421272.06112,-0.844007019150073,0.0749523155565726,-0.385015640497445
1580421272.0934,-0.936293583581293,-0.0886243991760125,-0.462653543907836
1580421272.12568,-0.852307927061876,0.00122072175173571,-0.448004882887007
1580421272.15817,-0.896742198825056,-0.0388189517051956,-0.401129167620356
1580421272.19045,-0.956313420309758,0.0202639810788128,-0.327397573815519
1580421272.22273,-0.998306248569467,0.0109864957656214,-0.166750591287098
1580421272.255,-1.05934233615625,0.195071335927366,-0.258548867017625
1580421272.28728,-1.09059281300069,0.255619134813458,-0.265873197528039
1580421272.31956,-1.17653162432288,0.315678644998854,-0.0568856336308841
1580421272.35184,-1.18922713054093,0.271244373235675,-0.0515144579232469
1580421272.38411,-1.18580910963607,0.285893034256503,-0.0100099183642328
1580421272.41639,-1.20680552376593,0.229251544975966,-0.203860532539863
1580421272.44867,-1.03932249942779,0.0881361104753182,-0.354253452353705
1580421272.48095,-1.03199816891737,0.156008239871824,-0.689707789730678
1580421272.51323,-1.06764324406805,0.214602883955138,-0.70826276035706
1580421272.5455,-1.03736934462501,0.283451590753032,-0.532478828107118
1580421272.57778,-1.04469367513542,-0.0944838635843439,-0.428473334859236
1580421272.61006,-1.00318913557641,-0.0715342946517126,-0.290775921263448
1580421272.64234,-0.860608834973679,0.0280766002899213,-0.201419089036392
1580421272.67461,-0.840100709544519,-0.0334477759975584,-0.151125352864881
1580421272.70689,-0.807873655298696,-0.172121766994735,-0.161867704280155
1580421272.73917,-0.796154726482033,-0.181399252307926,-0.000244144350347142
1580421272.77145,-0.840588998245213,-0.169192034790569,0.00610360875867855
1580421272.80372,-0.871839475089647,0.180422674906538,-0.00561532005798426
1580421272.836,-0.99293507286183,0.430914778362705,0.242435339894712
1580421272.86828,-1.03102159151598,0.480720225833522,0.185305561913481
1580421272.90056,-0.923109788662547,0.453864347295337,0.129640650034332
1580421272.93283,-0.964126039520867,0.347417410543983,0.190676737621118
1580421272.96511,-1.0124666208896,0.306401159685663,0.132570382238498
1580421272.99739,-1.00514229037919,0.476325627527274,0.172610055695429
1580421273.02967,-1.01149004348821,-0.0534676127260241,-0.0168459601739528
1580421273.06194,-1.0129549095903,0.35620660715648,0.141847867551689
1580421273.09422,-1.0554360265507,0.460212100404362,-0.158449683375295
1580421273.1265,-0.77418173495079,-0.35718318455787,-0.222415503166246
1580421273.15878,-0.984634164950027,-0.0163576714732585,-0.453376058594644
1580421273.19105,-0.94850080109865,0.122804608224612,-0.441168841077287
1580421273.22333,-0.953871976806287,0.227786678873883,-0.498786907759213
1580421273.25561,-0.877698939497979,0.238040741588463,-0.498298619058518
1580421273.28789,-0.896253910124361,0.0822766460669868,-0.40503547722591
1580421273.32016,-0.977798123140307,0.10766765850309,-0.407476920729382
1580421273.35244,-0.87672236209659,0.0627450980392155,-0.371831845578699
1580421273.38472,-0.918226901655604,0.0471198596169984,-0.366460669871062
1580421273.417,-0.905531395437553,0.0568856336308841,-0.364995803768979
1580421273.44946,-0.878675516899367,0.209231708247501,-0.345464255741208
1580421273.48174,-0.918715190356298,0.144777599755855,-0.349370565346762
1580421273.51402,-0.986587319752804,0.0866712443732354,-0.343999389639125
1580421273.5463,-0.96900892652781,0.0158693827725642,-0.328374151216908
1580421273.57857,-1.03590447852293,0.0593270771343555,-0.211184863050278
1580421273.61085,-1.00074769207294,0.237064164187075,-0.258548867017625
1580421273.64313,-1.03590447852293,0.179446097505149,-0.302494850080111
1580421273.67541,-1.02418554970626,0.101808194094758,-0.254154268711376
1580421273.70769,-1.08229190508888,0.0925307087815668,-0.38452735179675
1580421273.73996,-1.21510643167773,0.11450370031281,-0.110597390707255
1580421273.77224,-1.09401083390555,0.374761577782863,-0.0715342946517126
1580421273.80452,-1.29127946898604,0.289799343862057,0.0642099641412983
1580421273.8368,-1.22877851529717,0.385992217898831,0.394781414511328
1580421273.86908,-1.20534065766384,-0.202883955138475,-0.286869611657893
1580421273.90136,-1.16432440680552,0.10766765850309,-0.529060807202258
1580421273.93363,-1.40505073624781,-0.515877012283513,-0.463630121309224
1580421273.96591,-1.38405432211795,-0.0163576714732585,-0.36060120546273
1580421273.99819,-1.19411001754787,0.149172198062104,-0.208255130846112
1580421274.03047,-1.03736934462501,-0.34692912184329,-0.304936293583582
1580421274.06275,-0.811291676203556,-0.0944838635843439,-0.276615548943314
1580421274.09502,-0.679942015716792,0.0441901274128327,-0.278080415045396
1580421274.1273,-0.498298619058518,-0.161867704280155,-0.269291218432899
1580421274.15958,-0.284428168154422,-0.289311055161365,-0.128175783932249
1580421274.19186,-0.74244296940566,-0.469001297016861,-0.461676966506447
1580421274.22414,-1.07154955367361,0.696543831540399,0.0798352025635154
1580421274.25641,-1.19069199664301,0.79127183947509,0.875745784695201
1580421274.28869,-1.01393148699168,0.135011825741969,0.149172198062104
1580421274.32097,-0.987075608453498,0.833264667734799,-0.0100099183642328
1580421274.35325,-0.548104066529335,0.776623178454262,-0.214602883955138
1580421274.38553,-1.03492790112154,-0.723887998779277,-0.0427252613107498
1580421274.4178,-1.70193026626993,0.84937819485771,-0.0114747844663157
1580421274.45008,-1.20729381246662,-0.194094758525978,-0.254154268711376
1580421274.48236,-0.373785000381476,-0.547615777828641,-0.556893263141832
1580421274.51464,-0.96559090562295,0.33569848172732,-0.740489814602883
1580421274.54692,-0.906996261539636,0.293705653467612,-0.489997711146716
1580421274.5792,-0.838635843442436,0.170656900892652,-0.393316548409247
1580421274.61147,-1.01734950789654,-0.00708018616006711,-0.314213778896773
1580421274.64375,-0.906507972838941,0.027588311589227,-0.370366979476616
1580421274.67603,-0.891859311818113,0.0876478217746239,-0.38452735179675
1580421274.70831,-0.891371023117419,0.123781185626001,-0.409918364232853
1580421274.74078,-0.892835889219501,0.181399252307926,-0.385015640497445
1580421274.77306,-0.927504386968796,0.0485847257190812,-0.354253452353705
1580421274.80534,-0.932875562676433,-0.0187991149767299,-0.334721904325933
1580421274.83762,-0.924086366063936,0.135011825741969,-0.419684138246739
1580421274.8699,-0.935805294880598,0.0114747844663157,-0.275150682841231
1580421274.90218,-0.926527809567407,0.186282139314869,-0.320073243305105
1580421274.93445,-0.97242694743267,0.147219043259327,-0.390875104905776
1580421274.96673,-1.00221255817502,-0.0339360646982527,-0.282475013351645
1580421274.99901,-1.03590447852293,0.0651865415426869,-0.154543373769741
1580421275.03129,-1.05397116044862,0.257572289616235,-0.245853360799572
1580421275.06357,-1.11354238193332,0.296635385671777,-0.185793850614175
1580421275.09585,-1.16041809719997,0.335210193026626,0.0075684748607614
1580421275.12813,-1.29958037689784,0.148683909361409,0.169192034790569
1580421275.1604,-1.28444342717632,-0.167238879987792,-0.12133974212253
1580421275.19268,-1.15065232318608,0.132082093537804,-0.481696803234913
1580421275.22496,-1.21022354467079,0.0495613031204698,-0.509529259174487
1580421275.25724,-1.29323262378882,-0.23657587548638,-0.355718318455787
1580421275.28952,-1.30251010910201,0.0524910353246355,-0.333745326924545
1580421275.3218,-1.17604333562219,-0.0642099641412983,-0.227786678873883
1580421275.35408,-1.01344319829099,-0.255619134813459,-0.223392080567635
1580421275.38635,-0.826428625925079,-0.067139696345464,-0.183352407110704
1580421275.41863,-0.747325856412603,-0.0832532234683754,-0.222903791866941
1580421275.45091,-0.607675288014038,-0.205325398641946,-0.246341649500266
1580421275.48319,-0.540291447318227,-0.224368657969023,-0.235111009384298
1580421275.51547,-0.591561760891127,-0.158449683375295,-0.110597390707255
1580421275.54775,-0.853772793163959,0.188235294117646,-0.193606469825284
1580421275.58002,-1.20436408026245,1.13453879606317,0.520271610589763
1580421275.6123,-0.99977111467155,0.613046463721677,0.455817502098114
1580421275.64458,-1.06959639887083,0.439215686274508,0.124269474326695
1580421275.67686,-0.881605249103533,0.353276874952314,0.063721675440604
1580421275.70914,-0.766857404440376,0.190676737621118,0.0568856336308841
1580421275.74142,-0.770275425345236,-0.582284275577935,-0.0529793240253298
1580421275.7737,-1.65163653009842,0.749279011215382,0.0646982528419926
1580421275.80597,-1.16481269550622,-0.343999389639125,-0.36401922636759
1580421275.83825,-0.482185091935607,-0.11450370031281,-0.470954451819638
1580421275.87053,-0.912367437247273,0.308842603189134,-0.7390249485008
1580421275.90281,-0.879163805600061,0.128175783932249,-0.485114824139773
1580421275.93509,-0.868421454184787,0.0212405584802013,-0.335210193026628
1580421275.96737,-0.980727855344472,-0.0837415121690697,-0.295170519569696
1580421275.99965,-0.905043106736859,0.139894712748912,-0.313725490196079
1580421276.03214,-0.872327763790341,0.409430075532157,-0.369878690775922
1580421276.06441,-1.00074769207294,0.0485847257190812,-0.320073243305105
1580421276.09669,-0.923109788662547,0.130617227435721,-0.312748912794691
1580421276.12897,-0.949477378500038,0.158937972075989,-0.365484092469673
1580421276.16125,-0.966079194323644,0.070557717250324,-0.294193942168308
1580421276.19353,-0.916762035553521,0.0656748302433812,-0.295170519569696
1580421276.22581,-0.978286411841001,0.115968566414892,-0.258060578316931
1580421276.25808,-0.932387273975738,0.213626306553749,-0.304936293583582
1580421276.29036,-0.96217288471809,0.130617227435721,-0.297123674372473
1580421276.32264,-1.02369726100557,0.0949721522850382,-0.371343556878005
1580421276.35492,-1.04908827344167,0.00805676356145568,-0.155031662470435
1580421276.3872,-1.0896162355993,0.279545281147477,-0.154055085069047
1580421276.41948,-1.11207751583123,0.45532921339742,0.0100099183642328
1580421276.45176,-1.33864347295338,0.342046234836346,0.0817883573662925
1580421276.48403,-1.23756771190967,0.165285725185015,-0.0334477759975584
1580421276.51631,-1.20143434805829,0.118410009918364,-0.394293125810636
1580421276.54859,-1.27077134355688,-0.157961394674601,-0.540291447318227
1580421276.58087,-1.2863965819791,-0.270267795834288,-0.294193942168308
1580421276.61315,-1.26344701304646,0.0158693827725642,-0.274662394140536
1580421276.64543,-1.13258564126039,-0.0900892652780954,-0.207278553444723
1580421276.6777,-0.994888227664607,-0.133546959639887,-0.215091172655832
1580421276.70998,-0.795178149080645,-0.0793469138628211,-0.228274967574578
1580421276.74226,-0.697032120241092,-0.0568856336308841,-0.272709239337759
1580421276.77454,-0.584237430380712,-0.166262302586404,-0.284428168154422
1580421276.80682,-0.534431982909895,-0.240482185091935,-0.223392080567635
1580421276.8391,-0.618905928130006,-0.168215457389181,-0.181399252307926
1580421276.87138,-0.873792629892424,0.269779507133592,-0.0861829556725411
1580421276.90365,-1.22243076218814,1.00904859998474,0.47925535973144
1580421276.93593,-1.09938200961318,0.669199664301519,0.434332799267565
1580421276.96821,-1.03297474631876,0.333745326924543,0.206301976043335
1580421277.00049,-0.948989089799344,0.40064087891966,0.164797436484321
1580421277.03277,-1.01149004348821,0.326420996414129,-0.224856946669718
1580421277.06505,-1.0295567254139,0.0656748302433812,0.034424353398947
1580421277.09733,-1.15651178759441,0.57007705806058,-0.427496757457847
1580421277.1296,-1.06861982146944,-0.147707331960021,-0.48364995803769
1580421277.16188,-0.322514686808576,-0.661387045090409,-0.717051956969557
1580421277.19416,-1.34108491645686,0.645761806668194,-0.833752956435493
1580421277.22644,-0.830334935530633,0.141359578850995,-0.539314869916838
1580421277.25872,-0.927016098268101,-0.135988403143358,-0.359624628061342
1580421277.291,-0.94166475928893,-0.0388189517051956,-0.303959716182193
1580421277.32355,-0.976821545738918,0.0148928053711757,-0.314213778896773
1580421277.35583,-0.853772793163959,0.216067750057221,-0.334721904325933
1580421277.3881,-0.870862897688259,0.261478599221789,-0.37427328908217
1580421277.42038,-0.937758449683376,0.279056992446783,-0.312260624093996
1580421277.45266,-0.941176470588236,0.0822766460669868,-0.368902113374533
1580421277.48494,-0.986587319752804,0.00219729915312428,-0.338628213931488
1580421277.51722,-1.00172426947433,0.0515144579232469,-0.213626306553749
1580421277.5495,-0.969985503929198,0.176516365300984,-0.196536202029449
1580421277.58177,-0.959243152513924,0.218509193560692,-0.302983138780805
1580421277.61405,-0.98951705195697,0.139406424048218,-0.249759670405126
1580421277.64633,-0.966079194323644,0.154055085069047,-0.264896620126651
1580421277.67861,-1.02662699320974,0.0627450980392155,-0.199465934233615
1580421277.71089,-1.13551537346456,0.193118181124589,-0.130617227435721
1580421277.74317,-1.1320973525597,0.313237201495383,0.160402838178072
1580421277.77545,-1.27174792095827,-0.0466315709163041,0.0329594872968642
1580421277.80772,-1.30836957351034,0.0441901274128327,-0.206790264744029
1580421277.84,-1.18873884184024,0.28784618905928,-0.445563439383536
1580421277.87228,-1.23952086671244,-0.0290531776913099,-0.556893263141832
1580421277.90456,-1.22975509269856,-0.171145189593346,-0.39478141451133
1580421277.93684,-1.2004577706569,-0.114015411612115,-0.375249866483559
1580421277.96912,-1.09840543221179,-0.0271000228885327,-0.299565117875945
1580421278.0014,-0.914808880750744,-0.0983901731898982,-0.207278553444723
1580421278.03367,-0.764415960936905,-0.0271000228885327,-0.326909285114825
1580421278.06595,-0.702891584649423,0.048096437018387,-0.421149004348822
1580421278.09823,-0.651132982375829,-0.0979018844892039,-0.372808422980087
1580421278.13051,-0.559334706645304,-0.0456549935149155,-0.383550774395362
1580421278.16279,-0.76734569314107,0.119874876020447,-0.433356221866179
1580421278.19507,-1.04957656214237,0.434332799267565,-0.0261234454871442
1580421278.22735,-1.09840543221179,0.486091401541159,0.852307927061876
1580421278.25962,-1.29958037689784,0.323002975509269,0.219485770962081
1580421278.2919,-0.985122453650721,-0.0632333867399097,0.0720225833524069
1580421278.32418,-0.685313191424429,0.0886243991760125,0.0788586251621268
1580421278.35646,-0.805432211795225,-0.311772335393302,-0.442145418478676
1580421278.38874,-1.34645609216449,0.297611963073166,-0.407476920729382
1580421278.42102,-1.36501106279088,0.211184863050278,-0.060303654535744
1580421278.4533,-0.707286182955672,-0.595468070496681,-0.467048142214084
1580421278.48557,-0.713145647364003,0.0266117341878385,-0.439703974975204
1580421278.51785,-1.13746852826734,0.0744640268558783,-0.347905699244679
1580421278.55013,-0.89723048752575,0.10424963759823,-0.38110933089189
1580421278.58241,-0.951430533302815,0.234134431982909,-0.279056992446785
1580421278.61487,-0.898207064927139,0.303959716182192,-0.318120088502328
1580421278.64715,-1.00270084687572,0.224368657969023,-0.277103837644008
1580421278.67943,-0.928969253070878,0.222415503166246,-0.304448004882888
1580421278.7117,-0.854261081864653,0.144289311055161,-0.365484092469673
1580421278.74398,-0.889906157015336,-0.037842374303807,-0.388921950102999
1580421278.77626,-0.94508278019379,-0.10083161669337,-0.417242694743267
1580421278.80854,-0.872327763790341,0.0192874036774242,-0.415777828641184
1580421278.84082,-0.903089951934081,0.0759288929579611,-0.376226443884947
1580421278.8731,-0.928480964370184,0.0798352025635154,-0.339604791332876
1580421278.90538,-1.01490806439307,0.000244144350347142,-0.362554360265507
1580421278.93766,-1.08619821469444,-0.0588387884336612,-0.096437018387121
1580421278.96994,-1.06178377965972,0.173098344396124,-0.222415503166246
1580421279.00222,-1.07106126497291,0.33569848172732,-0.0271000228885327
1580421279.03449,-1.20680552376593,0.238529030289158,0.274662394140535
1580421279.06677,-1.3542687113756,0.366948958571754,-0.146242465857938
1580421279.09905,-1.24586861982147,0.150637064164187,-0.307866025787748
1580421279.13133,-1.11793698023957,0.31519035629816,-0.377203021286336
1580421279.16361,-1.03736934462501,0.154055085069047,-0.682871747920958
1580421279.19589,-1.0041657129778,0.391363393606468,-0.881605249103533
1580421279.22817,-0.949965667200733,0.310795757991912,-0.749767299916074
1580421279.26045,-1.01149004348821,0.179934386205844,-0.693614099336232
1580421279.29273,-1.09254596780346,0.343022812237734,-0.670176241702906
1580421279.32501,-1.03102159151598,0.0617685206378269,-0.530037384603647
1580421279.35729,-0.976333257038224,-0.0495613031204698,-0.438239108873121
1580421279.38956,-0.956801709010453,-0.0202639810788128,-0.412359807736324
1580421279.42184,-0.901625085831999,-0.0256351567864499,-0.389898527504387
1580421279.45412,-0.944594491493095,0.0393072404058898,-0.2434119172961
1580421279.4864,-0.93141069657435,-0.0617685206378269,-0.255130846112765
1580421279.51868,-0.945571068894484,-0.151125352864881,-0.213138017853055
1580421279.55096,-1.03053330281529,0.175539787899595,0.063721675440604
1580421279.58324,-0.96900892652781,0.203860532539863,0.096437018387121
1580421279.61552,-0.782970931563288,0.077393759060044,0.103761348897535
1580421279.6478,-0.872327763790341,0.0075684748607614,-0.0158693827725642
1580421279.68007,-0.993911650263218,0.320073243305103,0.140871290150301
1580421279.71235,-1.0036774242771,0.491950865949491,0.25708400091554
1580421279.74463,-0.671641107804989,0.418707560845348,-0.159426260776684
1580421279.77691,-0.747325856412603,0.355230029755091,-0.238040741588463
1580421279.80919,-1.16334782940413,0.0983901731898982,-0.273197528038454
1580421279.84147,-1.20680552376593,0.203372243839169,0.41773098344396
1580421279.87375,-1.62038605325399,0.112550545510032,0.109132524605172
1580421279.90628,-0.76734569314107,-0.524177920195315,-0.305912870984971
1580421279.93856,-0.538826581216144,-0.120851453421835,-0.613046463721675
1580421279.97084,-1.04371709773404,0.948989089799344,-0.545662623025864
1580421280.00312,-1.00318913557641,-0.114991989013504,-0.406988632028687
1580421280.0354,-0.88355840390631,0.121828030823224,-0.329350728618296
1580421280.06768,-0.865491721980622,0.00805676356145568,-0.406988632028687
1580421280.09996,-0.937758449683376,0.114991989013504,-0.348393987945373
1580421280.13224,-0.949965667200733,0.148195620660715,-0.262455176623179
1580421280.16452,-0.954360265506981,0.147219043259327,-0.338139925230793
1580421280.1968,-0.902601663233387,0.169680323491264,-0.330327306019685
1580421280.22907,-0.984634164950027,0.0866712443732354,-0.417730983443962
1580421280.26135,-0.868421454184787,0.027588311589227,-0.379644464789807
1580421280.29363,-0.95191882200351,0.163332570382238,-0.406012054627299
1580421280.32591,-0.892835889219501,0.044678416113527,-0.353276874952316
1580421280.35819,-1.02320897230488,0.116456855115587,-0.290287632562753
1580421280.39047,-0.96559090562295,0.111573968108644,-0.266361486228734
1580421280.42275,-1.08424505989166,0.0993667505912867,-0.241458762493323
1580421280.45503,-1.10914778362707,0.111573968108644,-0.274662394140536
1580421280.48731,-1.13551537346456,0.135011825741969,-0.153566796368352
1580421280.51959,-1.13160906385901,0.323979552910657,-0.0920424200808725
1580421280.55187,-1.09254596780346,0.320561532005797,0.0651865415426869
1580421280.58415,-1.2693064774548,0.170656900892652,0.323491264209963
1580421280.61643,-1.22389562829023,0.181887541008621,-0.232669565880826
1580421280.64871,-1.13698023956664,0.0495613031204698,-0.56568245975433
1580421280.68099,-1.35085069047074,-0.594003204394598,-0.563729304951552
1580421280.71327,-1.41628137636378,0.0046387426565957,-0.323491264209965
1580421280.74555,-1.18434424353399,0.0139162279697871,-0.327885862516213
1580421280.77783,-1.04420538643473,-0.201419089036392,-0.202883955138475
1580421280.81011,-0.918715190356298,-0.153078507667658,-0.233646143282215
1580421280.84238,-0.789806973373008,-0.149660486762798,-0.235111009384298
1580421280.87467,-0.599862668802929,-0.207766842145418,-0.274174105439842
1580421280.90694,-0.419684138246739,-0.211673151750972,-0.255619134813459
1580421280.93922,-0.46655985351339,-0.402105745021744,-0.280521858548868
1580421280.9715,-0.790295262073702,0.0417486839093613,-0.32642099641413
1580421281.00378,-1.30934615091173,1.18043793392843,0.970473792629893
1580421281.03606,-1.04225223163195,0.402594033722437,0.532967116807814
1580421281.06834,-1.18434424353399,0.52222476539254,0.0793469138628211
1580421281.10062,-0.807873655298696,0.622323949034868,-0.0466315709163041
1580421281.1329,-1.30104524299992,0.579354543373771,0.348393987945371
1580421281.16518,-1.00709544518196,-0.250247959105822,-0.101319905394064
1580421281.19772,-1.3718471046006,0.160891126878766,-0.127687495231555
1580421281.23,-0.501716639963378,-0.916762035553521,-0.594979781795987
1580421281.26228,-0.844983596551462,0.129152361333638,-0.821057450217442
1580421281.29456,-0.98268101014725,0.628671702143894,-0.537361715114061
1580421281.32684,-0.810803387502862,-0.0432135500114441,-0.516853589684901
1580421281.35912,-0.949965667200733,0.048096437018387,-0.43237964446479
1580421281.3914,-0.89381246662089,-0.0363775082017241,-0.347417410543985
1580421281.42368,-0.929457541771573,0.0578622110322726,-0.326909285114825
1580421281.45596,-0.873792629892424,0.0974135957885096,-0.320073243305105
1580421281.48824,-0.885511558709087,0.0915541313801782,-0.309819180590525
1580421281.52052,-0.95191882200351,0.149660486762798,-0.272220950637065
1580421281.5528,-0.987075608453498,0.0690928511482412,-0.306889448386359
1580421281.58508,-1.01393148699168,0.0847180895704582,-0.316655222400245
1580421281.61736,-1.04127565423056,0.288334477759975,-0.060303654535744
1580421281.64964,-1.0637369344625,0.248783093003738,-0.250247959105822
1580421281.68192,-1.09254596780346,0.192629892423895,-0.211184863050278
1580421281.7142,-1.12184328984512,0.102296482795452,-0.194583047226672
1580421281.74648,-1.2004577706569,0.307377737087052,-0.0632333867399097
1580421281.77876,-1.22780193789578,0.334721904325932,0.191165026321812
1580421281.81104,-1.3117875944152,0.160402838178072,0.497810330357822
1580421281.84332,-1.23952086671244,0.297123674372472,-0.295170519569696
1580421281.8756,-1.26393530174716,-0.0983901731898982,-0.594003204394598
1580421281.90788,-1.2600289921416,-0.0393072404058898,-0.629159990844586
1580421281.94016,-1.40065613794156,-0.119386587319752,-0.396734569314107
1580421281.97244,-1.28542000457771,-0.0969253070878153,-0.328374151216908
1580421282.00472,-1.0808270389868,-0.0368657969024184,-0.293217364766919
1580421282.037,-0.889906157015336,-0.151613641565575,-0.263920042725262
1580421282.06928,-0.7048447394522,-0.0544441901274126,-0.208743419546806
1580421282.10156,-0.615976195925841,-0.120851453421835,-0.265873197528039
1580421282.13384,-0.534431982909895,-0.310307469291219,-0.308842603189136
1580421282.16612,-0.508552681773098,-0.321049820706493,-0.264896620126651
1580421282.1984,-0.722423132677195,-0.199465934233615,-0.232181277180132
1580421282.23068,-1.02613870450904,0.408941786831463,0.156984817273212
1580421282.26296,-1.29274433508812,1.1662775616083,0.900160219729916
1580421282.29524,-1.08766308079652,0.377203021286334,0.214602883955138
1580421282.32752,-0.856702525368124,0.541756313420311,0.128175783932249
1580421282.3598,-0.714122224765392,0.460212100404362,-0.312260624093996
1580421282.39208,-1.41921110856794,0.0896009765774011,0.194583047226672
1580421282.42436,-1.03443961242084,0.35962462806134,-0.260502021820402
1580421282.45664,-1.41774624246586,-0.0588387884336612,-0.229251544975966
1580421282.4892,-0.470954451819638,-0.555916685740444,-0.54859235523003
1580421282.52148,-0.874769207293813,0.35962462806134,-0.821545738918136
1580421282.55376,-0.935317006179904,0.348882276646066,-0.47681391622797
1580421282.58604,-0.919203479056993,-0.205813687342641,-0.417730983443962
1580421282.61832,-0.965102616922255,0.0583504997329669,-0.42554360265507
1580421282.6506,-0.899183642328527,0.0700694285496297,-0.359136339360647
1580421282.68288,-0.944594491493095,0.147707331960021,-0.36743724727245
1580421282.71516,-0.876234073395896,0.0876478217746239,-0.329350728618296
1580421282.74744,-0.905043106736859,0.172121766994735,-0.365972381170367
1580421282.77972,-0.913344014648661,0.167727168688486,-0.364995803768979
1580421282.812,-0.919203479056993,0.00952162966353853,-0.380132753490502
1580421282.84428,-0.915297169451438,0.0490730144197755,-0.299076829175251
1580421282.87656,-0.997817959868772,0.204348821240558,-0.147707331960021
1580421282.90884,-1.0207675288014,0.312748912794689,-0.181399252307926
1580421282.94112,-1.05299458304723,0.220950637064163,-0.174074921797512
1580421282.9734,-1.07447928587777,0.0822766460669868,-0.186770428015564
1580421283.00568,-1.14772259098192,0.216067750057221,-0.236087586785686
1580421283.03796,-1.17799649042496,0.345464255741206,-0.0100099183642328
1580421283.07024,-1.18727397573815,0.3801327534905,0.248294804303043
1580421283.10252,-1.2863965819791,0.077393759060044,0.100343327992675
1580421283.1348,-1.25807583733883,-0.185305561913481,-0.420172426947433
1580421283.16709,-1.12428473334859,0.219974059662775,-0.696543831540398
1580421283.19937,-1.33083085374228,-0.143801022354467,-0.409918364232853
1580421283.23165,-1.38649576562142,-0.273685816739148,-0.343999389639125
1580421283.26393,-1.22340733958953,-0.0393072404058898,-0.371831845578699
1580421283.29621,-1.02320897230488,-0.124269474326695,-0.168703746089875
1580421283.32849,-0.835217822537576,-0.0974135957885096,-0.162355992980849
1580421283.36077,-0.719981689173723,-0.0578622110322726,-0.213626306553749
1580421283.39305,-0.617929350728618,-0.170656900892652,-0.267826352330816
1580421283.42533,-0.507087815671015,-0.220950637064163,-0.24682993820096
1580421283.45761,-0.582772564278629,-0.113527122911421,-0.224368657969023
1580421283.48989,-0.810803387502862,-0.0720225833524069,-0.00610360875867855
1580421283.52217,-1.02662699320974,0.52222476539254,0.0935072861829553
1580421283.55445,-1.1237964446479,0.990005340657664,0.699473563744565
1580421283.58673,-1.08278019378958,0.612069886320288,0.217532616159303
1580421283.61901,-0.929945830472267,0.45532921339742,0.132570382238498
1580421283.65129,-0.750255588616771,0.40064087891966,-0.173586633096818
1580421283.68357,-1.20143434805829,-0.0607919432364383,0.270267795834286
1580421283.71585,-0.869398031586176,0.288822766460669,-0.120363164721141
1580421283.74813,-1.43288319218738,0.289311055161363,-0.0852063782711525
1580421283.7807,-0.983169298847944,-0.197024490730143,-0.360112916762036
1580421283.81298,-0.48023193713283,-0.152101930266269,-0.660410467689021
1580421283.84526,-1.08278019378958,0.299076829175249,-0.746837567711909
1580421283.87754,-0.833264667734799,0.248294804303043,-0.585214007782101
1580421283.90982,-0.905531395437553,0.0114747844663157,-0.404547188525216
1580421283.9421,-0.971938658731975,-0.117433432516975,-0.320561532005799
1580421283.97439,-0.88014038300145,0.0725108720531011,-0.348393987945373
1580421284.00667,-0.911879148546578,0.191165026321812,-0.346440833142596
1580421284.03895,-0.899671931029221,0.0100099183642328,-0.306401159685665
1580421284.07123,-0.936293583581293,0.198489356832226,-0.355230029755093
1580421284.10351,-0.972915236133364,0.184328984512092,-0.311284046692608
1580421284.13579,-0.910414282444496,0.0979018844892039,-0.247806515602349
1580421284.16807,-1.00563057907988,0.0886243991760125,-0.208743419546806
1580421284.20035,-0.959243152513924,0.215579461356526,-0.207766842145418
1580421284.23263,-1.01783779659724,0.156008239871824,-0.345464255741208
1580421284.26491,-0.962661173418784,0.134523537041275,-0.32642099641413
1580421284.29719,-1.02565041580835,0.124269474326695,-0.32642099641413
1580421284.32948,-1.07350270847639,0.108155947203784,-0.308354314488442
1580421284.36176,-1.1150072480354,0.322514686808574,-0.0832532234683754
1580421284.39404,-1.20827038986801,0.321538109407186,0.0593270771343555
1580421284.42632,-1.32936598764019,0.0871595330739297,0.182375829709315
1580421284.4586,-1.24635690852216,-0.276127260242619,-0.248783093003738
1580421284.49088,-1.07447928587777,0.0612802319371326,-0.611093308918898
1580421284.52316,-1.13160906385901,0.00659189745937283,-0.46655985351339
1580421284.55544,-1.20729381246662,-0.0827649347676811,-0.393804837109942
1580421284.58772,-1.18629739833677,0.0847180895704582,-0.287357900358588
1580421284.62,-1.05397116044862,-0.176028076600289,-0.251712825207905
1580421284.65228,-0.947035934996567,-0.101319905394064,-0.299076829175251
1580421284.68457,-0.841565575646602,0.0656748302433812,-0.298588540474556
1580421284.71685,-0.736583504997329,0.0324711985961699,-0.286381322957199
1580421284.74913,-0.686778057526512,-0.0549324788281069,-0.297123674372473
1580421284.78141,-0.638437476157778,-0.0642099641412983,-0.335698481727322
1580421284.81369,-0.700450141145952,0.106202792401007,-0.193606469825284
1580421284.84597,-0.857190814068819,0.54956893263142,-0.171633478294041
1580421284.87825,-1.07057297627222,0.485603112840465,0.381109330891888
1580421284.91053,-1.01149004348821,0.242435339894712,0.404547188525214
1580421284.94281,-1.15651178759441,0.127687495231555,0.198489356832226
1580421284.97509,-1.0383459220264,0.227786678873883,0.241458762493323
1580421285.00738,-0.544197756923781,0.219485770962081,-0.0783703364614325
1580421285.03966,-1.03541618982223,-0.0817883573662925,-0.298588540474556
1580421285.0722,-1.16432440680552,0.309819180590523,-0.161379415579461
1580421285.10449,-1.69655909056229,0.431891355764094,0.110597390707255
1580421285.13677,-0.697032120241092,-0.540291447318227,-0.552986953536278
1580421285.16905,-0.378667887388419,-0.037842374303807,-0.679453727016098
1580421285.20133,-1.19996948195621,0.489997711146714,-0.559822995345998
1580421285.23361,-0.940199893186847,0.0368657969024184,-0.440680552376593
1580421285.26589,-1.02565041580835,0.0461432822156098,-0.188235294117646
1580421285.29817,-0.940688181887541,0.230228122377355,-0.300053406576639
1580421285.33045,-0.889417868314641,0.0202639810788128,-0.266849774929428
1580421285.36274,-0.990005340657664,0.0510261692225527,-0.268314641031511
1580421285.39502,-0.890882734416724,0.231692988479438,-0.368902113374533
1580421285.4273,-0.94850080109865,0.200442511635003,-0.297123674372473
1580421285.45958,-0.93824673838407,-0.0144045166704814,-0.274174105439842
1580421285.49186,-0.972915236133364,-0.126222629129472,-0.268314641031511
1580421285.52414,-0.90406652933547,0.0939955748836496,-0.347905699244679
1580421285.55642,-0.857190814068819,0.180422674906538,-0.381597619592585
1580421285.58871,-0.947035934996567,0.116456855115587,-0.321049820706493
1580421285.62099,-0.968032349126421,0.135011825741969,-0.393316548409247
1580421285.65327,-0.968032349126421,0.0437018387121384,-0.307866025787748
1580421285.68555,-0.987075608453498,0.0627450980392155,-0.287846189059282
1580421285.71783,-1.03150988021668,0.139406424048218,-0.35034714274815
1580421285.75011,-0.962661173418784,0.111573968108644,-0.296147096971085
1580421285.78239,-0.998306248569467,0.173586633096818,-0.172610055695429
1580421285.81468,-0.997817959868772,0.483649958037688,-0.302983138780805
1580421285.84696,-1.2092469672694,0.186770428015564,-0.287846189059282
1580421285.87924,-1.13746852826734,0.281498435950255,-0.209231708247501
1580421285.91152,-1.0378576333257,0.442145418478674,-0.380621042191196
1580421285.9438,-1.12526131074998,0.110597390707255,-0.323979552910659
1580421285.97608,-0.968032349126421,0.348393987945371,-0.809338521400779
1580421286.00836,-0.971450370031281,0.195071335927366,-0.726817730983443
1580421286.04065,-0.991470206759747,0.0407721065079727,-0.713145647364003
1580421286.07293,-0.990005340657664,0.0217288471808956,-0.539314869916838
1580421286.10521,-1.10426489662013,0.103761348897535,-0.417242694743267
1580421286.13749,-0.990005340657664,-0.208255130846112,-0.324467841611353
1580421286.16977,-0.962661173418784,-0.0676279850461583,-0.238529030289158
1580421286.20205,-0.970962081330587,-0.0349126420996413,-0.226810101472495
1580421286.23433,-0.93824673838407,-0.0632333867399097,-0.0783703364614325
1580421286.26662,-0.998794537270161,-0.0524910353246355,-0.00170901045242999
1580421286.2989,-0.973403524834058,-0.096437018387121,-0.0109864957656214
1580421286.33118,-0.913344014648661,0.142336156252384,0.152590218966964
1580421286.36374,-0.895765621423667,0.156984817273212,0.177492942702372
1580421286.39602,-0.814709697108416,0.0939955748836496,-0.0329594872968642
1580421286.4283,-0.778576333257039,0.519783321889069,-0.0134279392690928
1580421286.46058,-0.954848554207675,0.537361715114063,-0.142336156252384
1580421286.49287,-1.03736934462501,0.422613870450903,0.12475776302739
1580421286.52515,-0.994888227664607,0.368902113374531,0.287357900358586
1580421286.55743,-0.847913328755627,0.174074921797512,0.119386587319752
1580421286.58971,-0.796643015182728,-0.00903334096284425,-0.153078507667658
1580421286.62199,-1.19655146105135,0.307377737087052,0.619882505531397
1580421286.65428,-0.874280918593119,-0.660898756389715,-0.163820859082932
1580421286.68656,-1.17994964522774,0.919691767757687,-0.306401159685665
1580421286.71884,-0.971450370031281,-0.153566796368352,-0.557381551842527
1580421286.75112,-0.565194171053635,-0.141847867551689,-0.328862439917602
1580421286.7834,-1.12037842374304,0.292240787365529,-0.404058899824522
1580421286.81569,-0.953383688105593,-0.0358892195010299,-0.400152590218967
1580421286.84797,-0.86988632028687,0.00366216525520713,-0.426520180056459
1580421286.88025,-0.929945830472267,0.126222629129472,-0.446540016784924
1580421286.91253,-0.898695353627833,0.215579461356526,-0.396246280613413
1580421286.94481,-0.878187228198673,0.0632333867399097,-0.358648050659953
1580421286.97709,-0.969497215228504,0.0451667048142212,-0.384039063096056
1580421287.00938,-0.872816052491036,0.0139162279697871,-0.427985046158541
1580421287.04166,-0.905531395437553,0.0559090562294955,-0.382085908293279
1580421287.07394,-0.918226901655604,0.00512703135728998,-0.365484092469673
1580421287.10622,-1.08668650339513,-0.0622568093385212,-0.184817273212786
1580421287.1385,-0.98609903105211,0.221927214465552,-0.207278553444723
1580421287.17079,-1.10084687571527,0.348882276646066,-0.328862439917602
1580421287.20307,-1.16139467460136,0.242923628595406,-0.297123674372473
1580421287.23535,-1.17750820172427,0.130617227435721,-0.132082093537804
1580421287.26763,-1.26540016784924,0.159426260776684,-0.0236820019836728
1580421287.29991,-1.25709925993744,0.220950637064163,0.167238879987792
1580421287.3322,-1.28346684977493,0.191165026321812,0.344487678339817
1580421287.36448,-1.23561455710689,0.101319905394064,-0.109132524605172
1580421287.39676,-1.16920729381247,0.0109864957656214,-0.775158312352179
1580421287.42904,-1.33962005035477,-0.368413824673839,-0.530525673304341
1580421287.46132,-1.43727779049363,0.0153810940718699,-0.39819943541619
1580421287.4936,-1.24782177462425,-0.0529793240253298,-0.335698481727322
1580421287.52589,-1.10963607232776,-0.0983901731898982,-0.244876783398183
1580421287.55817,-0.891859311818113,-0.0710460059510183,-0.303471427481499
1580421287.59045,-0.699961852445258,-0.10766765850309,-0.252201113908599
1580421287.62273,-0.570077058060578,-0.219485770962081,-0.273685816739148
1580421287.65527,-0.437750820172427,-0.283939879453728,-0.242435339894712
1580421287.68755,-0.457282368200199,-0.44605172808423,-0.207278553444723
1580421287.71984,-0.645761806668192,-0.0314946211947813,-0.156008239871824
1580421287.75212,-1.23610284580758,1.20729381246662,0.602792401007097
1580421287.7844,-1.22389562829023,0.892347600518807,0.56324101625086
1580421287.81668,-1.01051346608682,0.503181506065463,0.0285648889906156
1580421287.84897,-0.754650186923019,0.530037384603649,-0.181887541008621
1580421287.88125,-0.712657358663309,0.461188677805751,0.0871595330739297
1580421287.91353,-0.799572747386893,-0.922621499961853,-0.239505607690546
1580421287.94581,-2.13357747768368,0.481696803234911,0.0827649347676811
1580421287.9781,-0.633554589150835,-0.653086137178606,-0.561776150148775
1580421288.01038,-0.41528953994049,-0.363042648966202,-0.858167391470207
1580421288.04266,-1.2942092011902,0.967544060425727,-0.585702296482795
1580421288.07494,-0.91773861295491,-0.307377737087053,-0.540779736018921
1580421288.10723,-0.941176470588236,0.0969253070878153,-0.358648050659953
1580421288.13951,-0.88697642481117,0.0393072404058898,-0.361577782864119
1580421288.17179,-0.929457541771573,0.0798352025635154,-0.352300297550928
1580421288.20407,-0.852307927061876,0.10766765850309,-0.356694895857176
1580421288.23635,-0.903578240634776,0.106691081101701,-0.368902113374533
1580421288.26864,-0.96900892652781,0.175539787899595,-0.339604791332876
1580421288.30092,-0.97584496833753,0.0227054245822842,-0.258548867017625
1580421288.3332,-1.07643244068055,0.176028076600289,-0.024170290684367
1580421288.36548,-1.08668650339513,0.337163347829403,-0.171145189593346
1580421288.39777,-1.12281986724651,0.317143511100937,-0.235111009384298
1580421288.43005,-1.10524147402151,0.347905699244677,-0.118898298619058
1580421288.46233,-1.23414969100481,0.443610284580757,0.0456549935149155
1580421288.49461,-1.35085069047074,0.249271381704432,0.388921950102997
1580421288.5269,-1.32594796673533,-0.0544441901274126,0.0397955291065841
1580421288.55918,-1.27321278706035,0.286381322957197,-0.622323949034866
1580421288.59146,-1.36696421759365,0.11450370031281,-0.545662623025864
1580421288.62374,-1.66237888151369,-0.488044556343938,-0.389898527504387
1580421288.65603,-1.4743877317464,-0.12133974212253,-0.399176012817579
1580421288.68831,-1.20289921416037,-0.167238879987792,-0.323979552910659
1580421288.72059,-0.93482871747921,-0.251712825207905,-0.231692988479438
1580421288.75287,-0.688242923628595,0.00268558785381856,-0.262455176623179
1580421288.78515,-0.553475242236972,-0.0563973449301898,-0.310307469291219
1580421288.81744,-0.371343556878005,-0.35034714274815,-0.348882276646068
1580421288.84972,-0.177004654001678,-0.503181506065461,-0.244876783398183
1580421288.882,-0.521736476691844,-0.200930800335698,-0.382085908293279
1580421288.91428,-1.09352254520485,0.644785229266805,0.275150682841229
1580421288.94684,-1.50368505378805,1.16725413900969,0.999282825970855
1580421288.97912,-1.16725413900969,0.542244602121006,0.388433661402303
1580421289.0114,-1.1408865491722,0.525154497596706,0.106691081101701
1580421289.04369,-0.970473792629893,0.3801327534905,0.0236820019836728
1580421289.07597,-0.846936751354239,-0.453864347295339,-0.244388494697489
1580421289.10825,-1.16090638590066,0.591073472190434,-0.322514686808576
1580421289.14053,-0.885511558709087,-1.01832608529793,-0.611093308918898
1580421289.17282,-0.798596169985505,-0.0246585793850613,-0.705333028152895
1580421289.2051,-0.946059357595178,0.736095216296636,-0.561287861448081
1580421289.23738,-0.819104295414665,-0.265873197528039,-0.534431982909895
1580421289.26967,-1.0036774242771,0.0622568093385212,-0.364995803768979
1580421289.30195,-0.91090257114519,-0.027588311589227,-0.344487678339819
1580421289.33423,-0.88697642481117,0.169192034790569,-0.287357900358588
1580421289.36651,-0.85621423666743,0.298588540474555,-0.356206607156482
1580421289.3988,-0.889417868314641,0.135011825741969,-0.331303883421073
1580421289.43108,-0.931898985275044,0.0988784618905925,-0.336186770428016
1580421289.46336,-1.02174410620279,0.0407721065079727,-0.254642557412071
1580421289.49565,-1.06080720225834,0.134523537041275,-0.063721675440604
1580421289.52793,-1.0471351186389,0.313725490196077,-0.169192034790569
1580421289.56021,-1.06129549095903,0.328374151216906,-0.238040741588463
1580421289.59249,-1.06910811017014,0.312748912794689,-0.157961394674601
1580421289.62478,-1.1916685740444,0.378179598687723,0.0466315709163041
1580421289.65706,-1.26247043564508,0.162355992980849,0.248294804303043
1580421289.68934,-1.29616235599298,-0.0334477759975584,0.070557717250324
1580421289.72163,-1.2863965819791,0.360601205462729,-0.443610284580759
1580421289.75391,-1.28688487067979,0.217532616159303,-0.709727626459143
1580421289.78619,-1.52614633401999,-0.355230029755093,-0.342534523537042
1580421289.81847,-1.57497520408942,-0.221927214465552,-0.407965209430076
1580421289.85076,-1.35671015487907,-0.0954604409857325,-0.320073243305105
1580421289.88304,-1.10182345311665,-0.261966887922485,-0.187747005416952
1580421289.91532,-0.842053864347296,-0.143312733653772,-0.284916456855116
1580421289.94761,-0.634531166552224,-0.0852063782711525,-0.347417410543985
1580421289.97989,-0.48706797894255,-0.318608377203022,-0.369878690775922
1580421290.01217,-0.275638971541925,-0.440192263675899,-0.265873197528039
1580421290.04445,-0.337163347829405,-0.436285954070344,-0.281010147249562
1580421290.07674,-0.793224994277868,0.256595712214846,-0.358159761959259
1580421290.10902,-1.60817883573663,1.73659876401923,1.41725795376516
1580421290.1413,-1.04420538643473,0.354741741054397,0.482673380636299
1580421290.17359,-1.11110093842985,0.520271610589763,0.0666514076447697
1580421290.20587,-0.653574425879301,0.480231937132828,-0.174074921797512
1580421290.23843,-1.02467383840696,-0.0466315709163041,0.281498435950255
1580421290.27072,-1.25270466163119,0.668711375600825,-0.197024490730143
1580421290.303,-1.61745632104982,0.220462348363469,-0.0783703364614325
1580421290.33528,-0.41187151903563,-0.896742198825056,-0.617441062027924
1580421290.36757,-0.419684138246739,0.0827649347676811,-0.891371023117419
1580421290.39985,-1.31667048142214,0.715587090867476,-0.397222858014802
1580421290.43214,-0.861097123674373,-0.169680323491264,-0.448981460288396
1580421290.46442,-1.06910811017014,-0.0495613031204698,-0.284916456855116
1580421290.4967,-0.920668345159076,-0.0793469138628211,-0.312748912794691
1580421290.52899,-0.92115663385977,0.117433432516975,-0.36060120546273
1580421290.56127,-0.812756542305639,0.169680323491264,-0.39136339360647
1580421290.59355,-0.870862897688259,0.122804608224612,-0.39478141451133
1580421290.62584,-0.821545738918136,0.11792172121767,-0.428473334859236
1580421290.65812,-0.911879148546578,0.0642099641412983,-0.330327306019685
1580421290.69041,-0.944106202792401,0.0842298008697639,-0.218509193560692
1580421290.72269,-1.02858014801251,0.140383001449607,-0.0920424200808725
1580421290.75497,-1.0124666208896,0.327885862516212,-0.102296482795452
1580421290.78726,-1.0378576333257,0.202883955138475,-0.200930800335698
1580421290.81954,-1.02858014801251,0.0656748302433812,-0.169192034790569
1580421290.85182,-1.04078736552987,0.263431754024566,0.0129396505683985
1580421290.88411,-1.22047760738537,0.491950865949491,0.113527122911421
1580421290.91639,-1.44069581139849,0.471442740520331,0.552498664835586
1580421290.94868,-1.4822003509575,0.0988784618905925,-0.281986724650951
1580421290.98096,-1.27614251926452,0.315678644998854,-0.636484321355001
1580421291.01324,-1.07740901808194,0.266849774929426,-0.973403524834058
1580421291.04553,-1.17946135652705,0.303471427481497,-0.783459220263982
1580421291.07781,-1.14381628137636,-0.0261234454871442,-0.788342107270925
1580421291.1101,-1.16871900511177,-0.000732433051041426,-0.582284275577935
1580421291.14238,-0.944106202792401,-0.0505378805218584,-0.433356221866179
1580421291.17466,-0.824963759822996,0.080811779964904,-0.527595941100175
1580421291.20695,-0.81519798580911,0.0905775539787896,-0.560799572747387
1580421291.23923,-0.775646601052873,-0.0676279850461583,-0.50415808346685
1580421291.27151,-0.771252002746625,-0.118410009918364,-0.524177920195315
1580421291.3038,-0.738536659800106,-0.145754177157244,-0.362554360265507
1580421291.33608,-0.95191882200351,0.0573739223315783,-0.126710917830167
1580421291.36837,-1.20534065766384,0.0109864957656214,0.10424963759823
1580421291.40065,-0.820569161516747,-0.0925307087815668,0.0144045166704814
1580421291.43293,-0.882093537804227,0.23657587548638,-0.185305561913481
1580421291.46522,-1.5593499656672,0.76392767223621,0.42798504615854
1580421291.4975,-1.01734950789654,0.625741969939728,0.0690928511482412
1580421291.53003,-0.746837567711909,0.746349279011216,-0.198489356832226
1580421291.56231,-0.820569161516747,0.26733806363012,-0.347905699244679
1580421291.5946,-0.615487907225146,-0.000244144350347142,-0.470954451819638
1580421291.62688,-1.05494773785,0.0666514076447697,-0.444098573281453
1580421291.65916,-1.32350652323186,-0.257572289616236,-0.0183108262760356
1580421291.69145,-1.45583276112001,-0.349370565346762,0.158937972075989
1580421291.72373,-0.857190814068819,-0.436285954070344,-0.262943465323874
1580421291.75601,-0.491462577248798,0.0744640268558783,-0.539803158617532
1580421291.7883,-1.19801632715343,0.656015869382774,-0.490974288548104
1580421291.82058,-0.809826810101473,0.147219043259327,-0.498298619058518
1580421291.85287,-0.97926298924239,0.202395666437781,-0.414312962539102
1580421291.88515,-0.872816052491036,0.0168459601739528,-0.426520180056459
1580421291.91743,-0.947524223697261,-0.110109102006561,-0.341069657434959
1580421291.94972,-0.977309834439613,0.0134279392690928,-0.354253452353705
1580421291.982,-0.871351186388953,0.099855039291981,-0.355718318455787
1580421292.01429,-0.92115663385977,0.0847180895704582,-0.437262531471733
1580421292.04657,-0.830334935530633,0.027588311589227,-0.430426489662013
1580421292.07885,-0.873792629892424,0.120851453421835,-0.366948958571756
1580421292.11114,-0.972915236133364,0.162355992980849,-0.36401922636759
1580421292.14342,-0.927016098268101,-0.0769054703593497,-0.318608377203022
1580421292.1757,-0.996841382467384,-0.0515144579232469,-0.239505607690546
1580421292.20799,-0.976333257038224,0.0822766460669868,-0.181399252307926
1580421292.24027,-0.96559090562295,-0.0510261692225527,-0.46997787441825
1580421292.27256,-0.936781872281987,-0.096437018387121,-0.502693217364767
1580421292.30484,-0.965102616922255,0.0573739223315783,-0.240482185091935
1580421292.33712,-0.995864805065995,-0.0246585793850613,-0.328374151216908
1580421292.36941,-1.05250629434653,-0.0856946669718468,-0.204348821240558
1580421292.40169,-0.987075608453498,0.123292896925307,-0.261966887922485
1580421292.43397,-1.07154955367361,0.103761348897535,-0.286869611657893
1580421292.46626,-1.09840543221179,0.290775921263446,-0.158449683375295
1580421292.49854,-1.1237964446479,0.667734798199437,-0.0803234912642097
1580421292.53083,-1.31764705882353,0.321049820706492,0.0827649347676811
1580421292.56311,-1.19752803845273,-0.0402838178072784,-0.116456855115587
1580421292.59539,-1.27858396276799,-0.263431754024568,-0.441168841077287
1580421292.62768,-1.4226291294728,-0.118898298619058,-0.467536430914778
1580421292.65996,-1.32790112153811,0.223880369268329,-0.433844510566873
1580421292.69225,-1.19411001754787,0.244388494697489,-0.317143511100939
1580421292.72453,-1.11451895933471,-0.00170901045242999,-0.174074921797512
1580421292.75681,-0.913832303349356,-0.0651865415426869,-0.155031662470435
1580421292.7891,-0.717540245670252,-0.100343327992675,-0.215579461356526
1580421292.82168,-0.535896849011978,-0.167727168688486,-0.198977645532921
1580421292.85397,-0.501228351262684,-0.277592126344702,-0.0900892652780954
1580421292.88626,-0.581307698176547,-0.259037155718319,0.0744640268558783
1580421292.91854,-0.573495078965438,0.141359578850995,0.0490730144197755
1580421292.95082,-1.0124666208896,1.03688105592432,0.283451590753032
1580421292.98311,-1.19996948195621,0.937270160982681,0.363530937666894
1580421293.01539,-0.890882734416724,0.615487907225148,0.225345235370412
1580421293.04768,-0.685313191424429,0.372808422980086,-0.275150682841231
1580421293.07996,-0.615976195925841,0.0212405584802013,-0.196536202029449
1580421293.11225,-1.40749217975128,0.608163576714734,-0.134523537041275
1580421293.14453,-1.77761501487755,0.211184863050278,0.165774013885709
1580421293.17682,-0.491462577248798,-0.896253910124361,-0.558358129243915
1580421293.2091,-0.421637293049516,0.158937972075989,-1.05006485084306
1580421293.24139,-1.22926680399786,0.784924086366065,-0.579354543373769
1580421293.27367,-0.783459220263982,-0.549080643930724,-0.495857175555047
1580421293.30596,-1.05494773785,0.0314946211947813,-0.322026398107882
1580421293.33824,-0.809826810101473,0.0798352025635154,-0.39478141451133
1580421293.37053,-0.855725947966736,0.152590218966964,-0.346440833142596
1580421293.40281,-0.88014038300145,0.0852063782711525,-0.299565117875945
1580421293.43509,-0.990981918059052,-0.0129396505683985,-0.256107423514154
1580421293.46738,-0.918715190356298,0.0813000686655982,-0.380132753490502
1580421293.49967,-1.02027924010071,0.0646982528419926,-0.31958495460441
1580421293.53195,-1.08717479209583,0.260013733119706,-0.0666514076447697
1580421293.56423,-1.16920729381247,0.492439154650185,-0.0485847257190812
1580421293.59652,-1.30202182040131,0.284916456855115,0.00122072175173571
1580421293.6288,-1.33131914244297,0.396246280613411,-0.103273060196841
1580421293.66109,-1.41042191195544,0.552498664835586,0.249271381704432
1580421293.69337,-1.33424887464714,0.182375829709315,0.413824673838405
1580421293.72566,-1.2522163729305,0.235111009384298,-0.141847867551689
1580421293.75794,-1.35036240177005,0.103273060196841,-0.833752956435493
1580421293.79023,-1.64431219958801,-0.285404745555811,-0.534431982909895
1580421293.82251,-1.64040588998245,-0.0544441901274126,-0.404547188525216
1580421293.8548,-1.24782177462425,-0.245365072098878,-0.421149004348822
1580421293.88708,-0.94850080109865,-0.380132753490502,-0.308354314488442
1580421293.91937,-0.695078965438315,0.0046387426565957,-0.257572289616236
1580421293.95165,-0.549080643930724,-0.031006332494087,-0.257572289616236
1580421293.98394,-0.251712825207905,-0.349370565346762,-0.335210193026628
1580421294.01622,-0.158937972075989,-0.549568932631418,-0.218509193560692
1580421294.0485,-0.634531166552224,-0.199465934233615,-0.406988632028687
1580421294.08079,-1.3889372091249,1.18239108873121,0.825940337224385
1580421294.11334,-1.15992980849927,0.642343785763334,0.735606927595942
1580421294.14563,-1.26393530174716,0.423102159151597,0.302983138780803
1580421294.17791,-0.819592584115359,0.580819409475854,-0.0524910353246355
1580421294.2102,-0.846448462653544,-1.17604333562219,-0.185305561913481
1580421294.24248,-1.82351415274281,2.98954757000076,-0.348393987945373
1580421294.27477,-1.58278782330053,-0.676523994811932,-0.476325627527276
1580421294.30705,-0.174563210498206,-1.01002517738613,-0.573495078965438
1580421294.33934,-1.07350270847639,0.621835660334174,-1.06813153276875
1580421294.37162,-0.94508278019379,0.0695811398489354,-0.420660715648127
1580421294.40391,-0.846448462653544,-0.212161440451666,-0.420660715648127
1580421294.43619,-0.981704432745861,0.245365072098878,-0.359136339360647
1580421294.46848,-0.886488136110476,0.0876478217746239,-0.342534523537042
1580421294.50076,-0.856702525368124,0.186282139314869,-0.33667505912871
1580421294.53305,-0.816662851911193,0.0075684748607614,-0.404058899824522
1580421294.56534,-0.870374608987564,-0.077393759060044,-0.294193942168308
1580421294.59762,-1.03053330281529,0.156496528572518,-0.115968566414892
1580421294.6299,-1.14430457007706,0.47241931792172,-0.0461432822156098
1580421294.66219,-1.16969558251316,0.519295033188374,-0.221438925764858
1580421294.69448,-1.25856412603952,0.323002975509269,-0.0783703364614325
1580421294.72676,-1.37672999160754,0.346440833142594,0.077393759060044
1580421294.75905,-1.38796063172351,0.657480735484857,0.378667887388417
1580421294.79133,-1.44362554360266,-0.0100099183642328,0.248783093003738
1580421294.82362,-1.43434805828946,-0.150637064164187,-0.729747463187609
1580421294.8559,-1.32106507972839,0.0402838178072784,-0.848889906157016
1580421294.88819,-1.87331960021363,-0.282475013351645,-0.334721904325933
1580421294.92047,-1.44313725490196,-0.129640650034332,-0.424567025253682
1580421294.95276,-1.14576943617914,-0.268314641031511,-0.322514686808576
1580421294.98504,-0.904554818036164,-0.171633478294041,-0.397222858014802
1580421295.01733,-0.638437476157778,-0.187747005416952,-0.349858854047456
1580421295.04961,-0.461676966506447,-0.282963302052339,-0.335698481727322
1580421295.0819,-0.279056992446785,-0.426031891355764,-0.327397573815519
1580421295.11418,-0.161379415579461,-0.77759975585565,-0.332280460822462
1580421295.14647,-0.633554589150835,0.322514686808574,-0.712657358663309
1580421295.17875,-1.65896086060883,1.74148165102617,2.08865491721981
1580421295.21104,-1.16188296330205,0.362066071564811,0.298588540474555
1580421295.24332,-1.30251010910201,0.481208514534217,0.395269703212023
1580421295.27561,-0.913344014648661,0.493904020752268,-0.376226443884947
1580421295.30789,-0.97926298924239,0.450934615091171,-0.0886243991760125
1580421295.34018,-1.50563820859083,0.409918364232851,-0.211673151750972
1580421295.37246,-0.818127718013276,-0.48364995803769,-0.659433890287632
1580421295.40503,-0.462653543907836,-0.589608606088349,-0.982192721446555
1580421295.43731,-1.31618219272145,0.824963759822996,-0.707286182955672
1580421295.4696,-0.930922407873656,-0.270267795834288,-0.51441214618143
1580421295.50189,-0.977798123140307,-0.0124513618677042,-0.359136339360647
1580421295.53417,-0.877698939497979,0.317143511100937,-0.37769130998703
1580421295.56646,-0.885999847409781,0.0417486839093613,-0.286869611657893
1580421295.59874,-0.94166475928893,0.171633478294041,-0.229251544975966
1580421295.63103,-0.956801709010453,0.0817883573662925,-0.226810101472495
1580421295.66331,-0.954848554207675,0.145265888456549,-0.245365072098878
1580421295.6956,-0.892835889219501,0.279056992446783,-0.10766765850309
1580421295.72789,-0.989028763256275,0.409918364232851,-0.0383306630045013
1580421295.76017,-1.13942168307011,0.217044327458609,-0.114015411612115
1580421295.79246,-1.17750820172427,0.322514686808574,-0.132570382238498
1580421295.82474,-1.22780193789578,0.382085908293277,0.136964980544747
1580421295.85703,-1.37282368200198,0.526131074998094,0.256107423514152
1580421295.88931,-1.28786144808118,0.430426489662011,0.416266117341877
1580421295.9216,-1.37331197070268,0.0979018844892039,-0.339604791332876
1580421295.95389,-1.30983443961242,-0.11108567940795,-0.930434119172961
1580421295.98617,-1.37038223849851,0.0266117341878385,-0.721446555275806
1580421296.01846,-1.74636453803311,0.0759288929579611,-0.39819943541619
1580421296.05074,-1.51149767299916,-0.0954604409857325,-0.454352635996033
1580421296.08303,-1.08375677119097,-0.278080415045396,-0.494392309452964
1580421296.11531,-0.830823224231327,-0.198001068131532,-0.504646372167544
1580421296.1476,-0.600839246204318,-0.12475776302739,-0.440680552376593
1580421296.17988,-0.426520180056459,-0.316166933699551,-0.406988632028687
1580421296.21217,-0.143312733653772,-0.730235751888303,-0.421149004348822
1580421296.24446,-0.395757991912719,-0.0827649347676811,-1.13893339436942
1580421296.27674,-1.0466468299382,0.362554360265506,1.59060044251164
1580421296.30903,-1.59597161821927,0.494392309452962,0.331303883421072
1580421296.34131,-1.11354238193332,0.210208285648889,-0.284428168154422
1580421296.3736,-0.50074006256199,0.632578011749448,0.273685816739146
1580421296.40588,-1.29616235599298,0.569100480659191,-0.660898756389715
1580421296.43817,-1.49391927977417,0.615976195925843,-0.10424963759823
1580421296.47046,-0.789806973373008,-0.540291447318227,-0.475349050125887
1580421296.50274,-0.651132982375829,-0.535896849011978,-0.47681391622797
1580421296.53503,-1.21022354467079,0.356694895857174,-0.569588769359884
1580421296.56731,-1.04371709773404,0.0495613031204698,-0.341557946135653
1580421296.5996,-0.896742198825056,0.29810025177386,-0.34692912184329
1580421296.63188,-0.878187228198673,0.518318455786986,-0.322026398107882
1580421296.66417,-0.96559090562295,0.0334477759975584,-0.309819180590525
1580421296.69675,-0.919691767757687,0.145265888456549,-0.285404745555811
1580421296.72903,-0.909437705043107,0.128175783932249,-0.37769130998703
1580421296.76132,-0.864515144579233,0.178469520103761,-0.323979552910659
1580421296.7936,-0.945571068894484,-0.0358892195010299,-0.306889448386359
1580421296.82589,-0.998794537270161,0.01196307316701,-0.269779507133594
1580421296.85818,-0.88697642481117,0.139406424048218,-0.280033569848174
1580421296.89046,-0.952895399404898,0.117433432516975,-0.259037155718319
1580421296.92275,-1.04811169604028,0.177981231403066,-0.275150682841231
1580421296.95503,-0.978286411841001,0.0871595330739297,-0.181399252307926
1580421296.98732,-1.11842526894026,0.203860532539863,-0.175539787899595
1580421297.0196,-1.14528114747845,0.00708018616006711,-0.247806515602349
1580421297.05189,-1.20143434805829,0.292240787365529,-0.238040741588463
1580421297.08417,-1.10475318532082,0.628671702143894,-0.138429846646829
1580421297.11646,-1.14625772487983,0.310795757991912,-0.368902113374533
1580421297.14875,-1.1067063401236,0.0192874036774242,-0.461676966506447
1580421297.18103,-0.959731441214618,0.173586633096818,-0.860120546272984
1580421297.21332,-0.98609903105211,0.511482413977266,-0.844983596551462
1580421297.2456,-1.04811169604028,0.32202639810788,-0.585702296482795
1580421297.27789,-1.08570992599374,0.172610055695429,-0.498786907759213
1580421297.31017,-1.08815136949721,0.270267795834286,-0.464118410009918
1580421297.34246,-1.00563057907988,0.141359578850995,-0.282963302052339
1580421297.37475,-0.858655680170902,0.00219729915312428,-0.251712825207905
1580421297.40703,-0.872816052491036,0.0490730144197755,-0.146730754558632
1580421297.43932,-0.936781872281987,-0.0788586251621268,-0.0681162737468526
1580421297.4716,-1.00123598077363,-0.0178225375753414,-0.0158693827725642
1580421297.50389,-0.911879148546578,-0.0256351567864499,0.0148928053711757
1580421297.53617,-0.883070115205616,0.0217288471808956,0.130128938735027
1580421297.56846,-0.82545204852369,0.0632333867399097,0.113038834210727
1580421297.60075,-0.785412375066759,0.276127260242617,0.216067750057221
1580421297.63303,-0.840588998245213,0.510017547875183,0.0168459601739528
1580421297.66532,-0.951430533302815,0.62476539253834,0.261478599221789
1580421297.6976,-0.96900892652781,0.490974288548102,0.358648050659951
1580421297.72989,-0.891859311818113,0.335210193026626,0.182864118410009
1580421297.76217,-0.919691767757687,0.370366979476614,0.152101930266269
1580421297.79446,-1.23317311360342,0.0866712443732354,-0.379156176089113
1580421297.82675,-0.498786907759213,-0.272709239337759,0.211673151750972
1580421297.85903,-1.90749980926223,0.981704432745861,-0.0910658426794839
1580421297.89132,-0.633554589150835,-0.751232166018159,-0.450446326390479
1580421297.9236,-0.820569161516747,-0.0383306630045013,-0.54517433432517
1580421297.95589,-1.10475318532082,0.340581368734263,-0.591561760891127
1580421297.98849,-0.848889906157016,-0.211184863050278,-0.525154497596704
1580421298.02078,-0.963149462119478,0.182864118410009,-0.459235523002976
1580421298.05307,-0.884534981307699,-0.037842374303807,-0.390875104905776
1580421298.08535,-0.861585412375067,0.096437018387121,-0.325444419012742
1580421298.11764,-0.960708018616007,0.01196307316701,-0.395269703212024
1580421298.14992,-0.829358358129245,-0.105714503700312,-0.35376516365301
1580421298.18221,-0.943129625391013,0.134035248340581,-0.428473334859236
1580421298.2145,-1.16725413900969,0.167727168688486,-0.31958495460441
1580421298.24678,-1.31276417181659,0.709727626459145,0.163820859082932
1580421298.27907,-1.39821469443809,0.200930800335698,0.241947051194018
1580421298.31136,-1.50270847638666,0.104737926298924,0.0646982528419926
1580421298.34364,-1.45094987411307,0.646250095368888,0.160891126878766
1580421298.37593,-1.35573357747768,0.689219501029985,0.358159761959257
1580421298.40822,-1.44362554360266,-0.12133974212253,-0.175051499198901
1580421298.4405,-1.34938582436866,0.120851453421835,-1.05250629434653
1580421298.47279,-1.69802395666438,-0.656015869382772,-0.550545510032807
1580421298.50507,-1.4397192339971,0.156496528572518,-0.550057221332112
1580421298.53736,-1.35817502098116,-0.444586861982147,-0.413824673838407
1580421298.56965,-0.937270160982681,-0.238040741588463,-0.371831845578699
1580421298.60193,-0.746837567711909,0.0632333867399097,-0.283939879453728
1580421298.63422,-0.520271610589761,-0.170168612191958,-0.314702067597468
1580421298.6665,-0.238529030289158,-0.46314183260853,-0.38110933089189
1580421298.69879,-0.102784771496147,-0.606210421911955,-0.223880369268329
1580421298.73108,-0.517341878385595,-0.241458762493323,-0.403082322423133
1580421298.76336,-1.23366140230411,1.19118028534371,0.877210650797284
1580421298.79565,-1.24782177462425,0.824963759822996,0.701426718547342
1580421298.82793,-1.21071183337148,0.492927443350879,0.148683909361409
1580421298.86022,-0.459235523002976,0.760509651331351,-0.464606698710613
1580421298.89251,-1.40358587014572,-0.515877012283513,0.342046234836346
1580421298.92479,-1.44460212100404,0.409430075532157,-0.194094758525978
1580421298.95708,-0.239505607690546,-1.58278782330053,-0.868421454184787
1580421298.98937,-0.723887998779277,-0.0622568093385212,-1.11061264972915
1580421299.02165,-1.11012436102846,1.00904859998474,-0.619394216830701
1580421299.05394,-0.729747463187609,-0.867933165484093,-0.607186999313344
1580421299.08622,-1.09498741130693,0.151125352864881,-0.371343556878005
1580421299.11851,-0.858655680170902,0.11792172121767,-0.363530937666896
1580421299.1508,-0.91090257114519,-0.120851453421835,-0.212161440451666
1580421299.18308,-0.887464713511864,0.118410009918364,-0.246341649500266
1580421299.21537,-0.932387273975738,0.190676737621118,-0.35718318455787
1580421299.24765,-1.00611886778058,0.381109330891888,-0.185793850614175
1580421299.2803,-1.18141451132982,0.394293125810634,-0.0266117341878385
1580421299.31259,-1.32985427634089,0.346440833142594,0.146242465857938
1580421299.34488,-1.3371786068513,0.296147096971083,0.0046387426565957
1580421299.37716,-1.30543984130617,0.478278782330051,0.138918135347524
1580421299.40945,-1.44557869840543,0.599862668802931,0.651621271076525
1580421299.44174,-1.25075150682841,0.279545281147477,0.141359578850995
1580421299.47403,-1.47975890745403,0.254642557412069,-0.658945601586938
1580421299.50631,-1.39919127183948,-0.431403067063401,-0.805920500495919
1580421299.5386,-1.92263675898375,0.197024490730143,-0.216067750057221
1580421299.57089,-1.47634088654917,-0.463630121309224,-0.519783321889067
1580421299.60317,-1.04029907682918,-0.154055085069047,-0.341557946135653
1580421299.63546,-0.839612420843824,0.0466315709163041,-0.242923628595406
1580421299.66775,-0.573983367666132,-0.146730754558632,-0.295170519569696
1580421299.70004,-0.406988632028687,-0.361089494163425,-0.345464255741208
1580421299.73232,-0.2434119172961,-0.403570611123827,-0.287357900358588
1580421299.76461,-0.384039063096056,-0.542244602121004,-0.290775921263448
1580421299.7969,-0.538826581216144,0.353765163653009,-0.344975967040513
1580421299.82919,-1.90847638666362,1.77175555046922,1.28737315938048
1580421299.86147,-1.21901274128328,0.342046234836346,0.437262531471731
1580421299.89376,-0.885023270008393,0.354253452353703,-0.147707331960021
1580421299.92605,-0.816174563210499,0.611581597619594,-0.0134279392690928
1580421299.95833,-1.23366140230411,-0.460212100404364,-0.263920042725262
1580421299.99062,-1.48122377355612,0.126710917830167,-0.265384908827345
1580421300.02291,-0.416266117341879,-1.15407034409094,-0.81861600671397
1580421300.05519,-0.755626764324408,0.450934615091171,-1.19899290455482
1580421300.08748,-1.00660715648127,0.461188677805751,-0.574959945067521
1580421300.11977,-0.807385366598002,-0.588143739986267,-0.438239108873121
1580421300.15206,-1.02906843671321,0.224368657969023,-0.289799343862059
1580421300.18434,-0.85621423666743,0.0183108262760356,-0.290287632562753
1580421300.21663,-0.933363851377127,0.128175783932249,-0.197512779430838
1580421300.24892,-0.871351186388953,0.0734874494544897,-0.231692988479438
1580421300.2812,-0.953871976806287,0.0495613031204698,-0.330815594720379
1580421300.31349,-0.935317006179904,0.288334477759975,-0.128175783932249
1580421300.34578,-1.11891355764095,0.3459525444419,0.0173342488746471
1580421300.37807,-1.12867933165484,0.487556267643242,-0.0686045624475469
1580421300.41035,-1.28200198367285,0.42114900434882,-0.0764171816586554
1580421300.44264,-1.37087052719921,0.566170748455026,0.0974135957885096
1580421300.47493,-1.41188677805753,0.771252002746625,0.402594033722437
1580421300.50721,-1.48757152666514,-0.0212405584802013,0.32544441901274
1580421300.5395,-1.44948500801099,0.166262302586404,-0.884046692607004
1580421300.57202,-1.5764400701915,-0.257084000915542,-0.624277103837644
1580421300.60431,-1.90749980926223,-0.0227054245822842,-0.543221179522392
1580421300.6366,-1.56032654306859,-0.220462348363469,-0.416266117341879
1580421300.66888,-1.16774242771038,-0.367925535973145,-0.379156176089113
1580421300.70117,-0.83228809033341,-0.154543373769741,-0.395269703212024
1580421300.73346,-0.590585183489738,-0.0866712443732354,-0.39478141451133
1580421300.76575,-0.388433661402305,-0.32642099641413,-0.465583276112001
1580421300.79803,0.0944838635843439,-0.769298847943848,-0.237064164187075
1580421300.83032,-0.303471427481499,-0.553963530937667,-0.891859311818113
1580421300.86261,-0.782482642862593,0.454840924696725,0.681406881818877
1580421300.8949,-1.47048142214084,0.688242923628597,0.536385137712674
1580421300.92718,-1.11158922713054,0.194583047226672,0.0222171358815899
1580421300.95947,-0.769787136644542,0.82545204852369,0.506111238269629
1580421300.99176,-1.16334782940413,0.138429846646829,-0.505134660868238
1580421301.02405,-1.83425650415808,1.67312123292897,0.000732433051041426
1580421301.05633,-1.01783779659724,-0.376226443884947,-0.511482413977264
1580421301.08862,-0.765392538338293,-0.677988860914015,-0.799084458686199
1580421301.12091,-0.976333257038224,0.331792172121766,-0.89723048752575
1580421301.1532,-0.963637750820173,0.314702067597466,-0.603280689707789
1580421301.18548,-0.926527809567407,0.0852063782711525,-0.309819180590525
1580421301.21777,-1.06227206836042,-0.0207522697795071,-0.175539787899595
1580421301.25006,-0.947035934996567,-0.0847180895704582,-0.135011825741969
1580421301.28235,-0.843518730449379,0.229739833676661,-0.252201113908599
1580421301.31464,-0.870374608987564,0.196536202029449,-0.212161440451666
1580421301.34692,-0.896742198825056,0.236087586785686,-0.317631799801633
1580421301.37921,-0.82887006942855,0.183840695811398,-0.318608377203022
1580421301.4115,-0.986587319752804,0.00854505226214997,-0.0842298008697639
1580421301.44379,-1.08717479209583,0.161379415579461,-0.044678416113527
1580421301.47607,-1.0466468299382,0.0871595330739297,-0.198977645532921
1580421301.50836,-1.05885404745556,0.122316319523918,-0.126710917830167
1580421301.54065,-1.05348287174792,0.341557946135651,-0.146730754558632
1580421301.57294,-1.10719462882429,0.425543602655068,0.169680323491264
1580421301.60522,-1.20192263675898,0.807385366598002,0.0271000228885327
1580421301.63751,-1.56862745098039,0.0437018387121384,-0.073975738155184
1580421301.6698,-1.2092469672694,0.474372472724497,-0.559822995345998
1580421301.70209,-1.07301441977569,0.269291218432897,-0.465583276112001
1580421301.73438,-0.999282825970855,0.214602883955138,-0.937270160982681
1580421301.76666,-0.973403524834058,0.326909285114823,-0.927016098268101
1580421301.79895,-0.91773861295491,0.248783093003738,-0.875745784695201
1580421301.83124,-1.05494773785,0.585214007782103,-0.682871747920958
1580421301.86386,-0.952895399404898,0.205813687342641,-0.591561760891127
1580421301.89615,-0.877210650797284,-0.0217288471808956,-0.577401388570992
1580421301.92844,-0.885023270008393,0.0305180437933927,-0.582284275577935
1580421301.96073,-0.885999847409781,-0.037842374303807,-0.538826581216144
1580421301.99301,-1.02174410620279,-0.0720225833524069,-0.346440833142596
1580421302.0253,-1.05445944914931,-0.148195620660715,-0.177004654001678
1580421302.05759,-1.02906843671321,0.122804608224612,0.0383306630045013
1580421302.08988,-0.982192721446555,0.408453498130768,-0.101319905394064
1580421302.12217,-1.18043793392843,0.271244373235675,-0.414312962539102
1580421302.15446,-1.03883421072709,0.0778820477607383,-0.037842374303807
1580421302.18675,-0.912855725947967,0.178957808804455,0.0627450980392155
1580421302.21903,-0.953871976806287,0.073975738155184,-0.103761348897535
1580421302.25132,-0.848889906157016,0.101808194094758,0.10083161669337
1580421302.28361,-0.695078965438315,0.238040741588463,-0.186282139314869
1580421302.3159,-0.712169069962615,0.223880369268329,-0.287357900358588
1580421302.34819,-1.29176775768673,-0.0622568093385212,-0.131105516136415
1580421302.38048,-1.16334782940413,-0.0202639810788128,0.00122072175173571
1580421302.41277,-1.19996948195621,0.513435568780043,-0.257084000915542
1580421302.44506,-0.538826581216144,-0.709239337758449,-0.561776150148775
1580421302.47734,-0.870862897688259,-0.00903334096284425,-0.535896849011978
1580421302.50963,-1.11989013504234,0.311284046692606,-0.39136339360647
1580421302.54192,-0.81519798580911,-0.0891126878767068,-0.379644464789807
1580421302.57421,-0.92799267566949,-0.00805676356145568,-0.453864347295339
1580421302.6065,-0.930922407873656,0.0520027466239412,-0.322514686808576
1580421302.63879,-0.85963225757229,0.0231937132829785,-0.36060120546273
1580421302.67107,-0.899671931029221,0.216067750057221,-0.352300297550928
1580421302.70336,-0.974380102235447,0.171633478294041,-0.397222858014802
1580421302.73565,-0.854261081864653,-0.0251468680857556,-0.450934615091173
1580421302.76794,-0.83228809033341,-0.0251468680857556,-0.441657129777981
1580421302.80023,-0.895277332722973,-0.0212405584802013,-0.411383230334936
1580421302.83252,-0.90748455024033,0.0871595330739297,-0.426520180056459
1580421302.86481,-0.984145876249332,0.0925307087815668,-0.374761577782865
1580421302.89709,-1.10572976272221,0.124269474326695,-0.204837109941252
1580421302.92938,-1.13112077515831,0.0852063782711525,-0.338139925230793
1580421302.96167,-1.29372091248951,0.211673151750972,-0.179934386205844
1580421302.99396,-1.32594796673533,0.218509193560692,-0.145265888456549
1580421303.02625,-1.31618219272145,0.494392309452962,0.0612802319371326
1580421303.05854,-1.31618219272145,0.5769130998703,0.454352635996031
1580421303.09083,-1.39577325093462,0.385992217898831,0.64869153887236
1580421303.12311,-1.27174792095827,0.221438925764858,-0.557381551842527
1580421303.1557,-1.48708323796445,-0.523201342793927,-0.888441290913253
1580421303.18799,-1.86160067139696,-0.120363164721141,-0.317143511100939
1580421303.22028,-1.41188677805753,0.10424963759823,-0.349858854047456
1580421303.25257,-1.29616235599298,-0.312260624093996,-0.389410238803693
1580421303.28486,-0.970473792629893,0.0676279850461583,-0.289799343862059
1580421303.31714,-0.643808651865415,-0.154543373769741,-0.218509193560692
1580421303.34943,-0.313237201495385,-0.232181277180132,-0.323979552910659
1580421303.38172,-0.127687495231555,-0.302983138780805,-0.275150682841231
1580421303.41401,-0.221927214465552,-0.657969024185549,-0.354741741054399
1580421303.4463,-0.610605020218204,0.0261234454871442,-0.292729076066225
1580421303.47859,-1.95779354543374,2.19510185397116,1.59206530861372
1580421303.51088,-1.34743266956588,0.549080643930726,0.485603112840465
1580421303.54317,-0.7048447394522,0.409918364232851,-0.221438925764858
1580421303.57546,-1.17555504692149,0.416266117341877,-0.247318226901655
1580421303.60775,-1.414328221561,0.719981689173725,0.0153810940718699
1580421303.64004,-1.23805600061036,-0.406988632028687,-0.627206836041809
1580421303.67232,-0.310307469291219,-0.915297169451438,-0.939711604486153
1580421303.70461,-1.22047760738537,1.19411001754787,-0.98951705195697
1580421303.7369,-0.934340428778516,-0.153078507667658,-0.512458991378653
1580421303.76919,-0.853772793163959,-0.0778820477607383,-0.328862439917602
1580421303.80148,-0.934340428778516,0.189700160219729,-0.316166933699551
1580421303.83377,-0.911879148546578,-0.0852063782711525,-0.316655222400245
1580421303.86606,-0.920180056458381,0.126222629129472,-0.105714503700312
1580421303.89835,-0.947524223697261,0.0285648889906156,-0.317631799801633
1580421303.93064,-1.00318913557641,0.384527351796748,-0.141359578850995
1580421303.96293,-1.2004577706569,0.401129167620354,0.149172198062104
1580421303.99521,-1.28297856107424,0.585214007782103,0.00512703135728998
1580421304.0275,-1.43483634699016,0.339604791332874,0.138429846646829
1580421304.05979,-1.4992904554818,0.916273746852827,0.214602883955138
1580421304.09208,-1.55153734645609,0.520759899290457,1.12916762035553
1580421304.12437,-1.33278400854505,-0.00170901045242999,-0.78101777676051
1580421304.15666,-1.38649576562142,0.330815594720377,-0.846448462653544
1580421304.18895,-2.11160448615244,-0.376226443884947,-0.511482413977264
1580421304.22124,-1.69802395666438,-0.0700694285496297,-0.436285954070344
1580421304.25353,-1.29176775768673,-0.530037384603647,-0.446540016784924
1580421304.28582,-0.886488136110476,-0.199465934233615,-0.294682230869002
1580421304.3181,-0.519295033188373,-0.0280766002899213,-0.330327306019685
1580421304.35039,-0.229251544975966,-0.182864118410009,-0.313725490196079
1580421304.38268,-0.0388189517051956,-0.463630121309224,-0.343022812237736
1580421304.41497,0.00708018616006711,-0.595468070496681,-0.146730754558632
1580421304.44754,-0.536385137712672,-0.310795757991913,-1.0642252231632
1580421304.47983,-3.18583962767987,3.4216830701152,2.60721751735714
1580421304.51212,-0.716563668268863,-0.321538109407188,0.788830395971619
1580421304.54441,-1.17897306782635,0.584237430380714,-0.351323720149539
1580421304.5767,-0.567147325856412,-0.191165026321812,0.0861829556725411
