Timestamp_seconds,Gyro_X_s,Gyro_Y_s,Gyro_Z_s
1580421527.85764,2.16678110933094,1.25123979552905,-0.274662394140478
1580421527.86163,3.44853894865332,1.0070954451819,-0.091554131380235
1580421527.86562,4.8523689631495,1.0681315327688,0.152590218966907
1580421527.86962,6.07309071488521,1.43434805828952,0.213626306553806
1580421527.87361,6.86655985351331,1.37331197070262,0.213626306553806
1580421527.8776,7.17174029144735,1.31227588311594,0.335698481727377
1580421527.8816,7.17174029144735,1.12916762035547,0.274662394140478
1580421527.88559,7.04966811627378,0.946059357595232,-0.091554131380235
1580421527.88958,7.17174029144735,0.70191500724809,-0.274662394140478
1580421527.89358,7.72106507972831,0.51880674448762,-0.51880674448762
1580421527.89757,8.08728160524902,0.335698481727377,-0.640878919661191
1580421527.90156,8.33142595559616,0.091554131380235,-0.885023270008332
1580421527.90556,8.51453421835663,0.091554131380235,-1.0681315327688
1580421527.90958,8.6366063935302,0.0305180437933359,-1.25123979552905
1580421527.91357,8.5755703059433,0.0305180437933359,-1.37331197070262
1580421527.91756,8.39246204318306,-0.213626306553806,-1.49538414587619
1580421527.92156,8.27038986800949,-0.274662394140478,-1.61745632104976
1580421527.92555,8.27038986800949,-0.274662394140478,-1.55642023346309
1580421527.92954,8.08728160524902,-0.091554131380235,-1.61745632104976
1580421527.93354,7.72106507972831,0.274662394140478,-1.55642023346309
1580421527.93753,7.11070420386045,0.457770656900948,-1.37331197070262
1580421527.94152,6.31723506523235,0.396734569314049,-1.12916762035547
1580421527.94552,4.8523689631495,0.335698481727377,-1.0070954451819
1580421527.94951,3.50957503624022,0.274662394140478,-0.823987182421661
1580421527.95351,2.04470893415737,0.091554131380235,-0.640878919661191
1580421527.9575,0.823987182421661,0.152590218966907,-0.51880674448762
1580421527.96149,-0.152590218966907,0.0305180437933359,-0.640878919661191
1580421527.96548,-0.946059357595232,0.274662394140478,-0.640878919661191
1580421527.96948,-1.8616006713969,0.335698481727377,-0.823987182421661
1580421527.97347,-2.47196154726475,0.51880674448762,-1.0070954451819
1580421527.97747,-2.83817807278547,0.396734569314049,-1.19020370794237
1580421527.98146,-3.08232242313261,0.274662394140478,-1.31227588311594
1580421527.98545,-3.14335851071951,0.0305180437933359,-1.19020370794237
1580421527.98944,-2.89921416037237,-0.091554131380235,-1.0681315327688
1580421527.99343,-2.89921416037237,0.0305180437933359,-1.12916762035547
1580421527.99743,-2.7771419851988,0.213626306553806,-0.946059357595232
1580421528.00142,-2.53299763485165,0.396734569314049,-0.823987182421661
1580421528.00541,-2.28885328450451,0.762951094834762,-0.762951094834762
1580421528.00941,-2.34988937209118,0.762951094834762,-0.579842832074519
1580421528.0134,-2.22781719691761,0.70191500724809,-0.51880674448762
1580421528.0174,-2.28885328450451,0.457770656900948,-0.640878919661191
1580421528.02139,-2.10574502174404,0.152590218966907,-0.823987182421661
1580421528.02538,-1.98367284657047,0.0305180437933359,-0.823987182421661
1580421528.02938,-1.67849240863666,-0.152590218966907,-0.885023270008332
1580421528.03337,-1.31227588311594,-0.274662394140478,-0.885023270008332
1580421528.03736,-0.885023270008332,-0.457770656900948,-0.946059357595232
1580421528.04136,-0.274662394140478,-0.640878919661191,-0.885023270008332
1580421528.04535,0.213626306553806,-0.762951094834762,-0.885023270008332
1580421528.04934,0.640878919661191,-0.762951094834762,-0.885023270008332
1580421528.05334,1.12916762035547,-0.762951094834762,-0.823987182421661
1580421528.05733,1.55642023346309,-0.70191500724809,-0.457770656900948
1580421528.06132,2.04470893415737,-0.51880674448762,-0.274662394140478
1580421528.06532,2.59403372243833,-0.152590218966907,-0.0305180437933359
1580421528.06934,3.26543068589308,0.0305180437933359,0.213626306553806
1580421528.07333,3.81475547417404,0.152590218966907,0.335698481727377
1580421528.07732,4.42511635004189,0.274662394140478,0.396734569314049
1580421528.08132,4.7913328755626,0.51880674448762,0.579842832074519
1580421528.08531,5.15754940108332,0.885023270008332,0.51880674448762
1580421528.0893,5.40169375143046,1.12916762035547,0.396734569314049
1580421528.0933,5.27962157625689,1.37331197070262,0.335698481727377
1580421528.09729,4.7913328755626,1.43434805828952,0.0305180437933359
1580421528.10128,4.18097199969475,1.19020370794237,0.0305180437933359
1580421528.10528,3.44853894865332,0.762951094834762,0.091554131380235
1580421528.10927,2.83817807278547,0.457770656900948,0.0305180437933359
1580421528.11326,2.47196154726475,0.091554131380235,-0.0305180437933359
1580421528.11726,2.59403372243833,-0.0305180437933359,0.091554131380235
1580421528.12125,2.7771419851988,0.091554131380235,0.335698481727377
1580421528.12524,2.96025024795904,0.274662394140478,0.51880674448762
1580421528.12924,3.02128633554594,0.457770656900948,0.823987182421661
1580421528.13323,2.7771419851988,0.51880674448762,0.70191500724809
1580421528.13722,2.47196154726475,0.396734569314049,0.762951094834762
1580421528.14122,2.22781719691761,0.274662394140478,0.946059357595232
1580421528.14521,2.04470893415737,-0.0305180437933359,0.885023270008332
1580421528.1492,2.16678110933094,-0.213626306553806,0.823987182421661
1580421528.15319,2.22781719691761,-0.396734569314049,0.762951094834762
1580421528.15719,2.41092545967808,-0.762951094834762,0.640878919661191
1580421528.16118,2.47196154726475,-1.12916762035547,0.579842832074519
1580421528.16517,2.47196154726475,-1.25123979552905,0.457770656900948
1580421528.16917,2.47196154726475,-1.25123979552905,0.396734569314049
1580421528.17316,2.59403372243833,-1.12916762035547,0.335698481727377
1580421528.17716,2.7161058976119,-0.70191500724809,0.213626306553806
1580421528.18115,2.83817807278547,-0.213626306553806,0.335698481727377
1580421528.18514,3.26543068589308,0.152590218966907,0.335698481727377
1580421528.18913,3.50957503624022,0.335698481727377,0.51880674448762
1580421528.19313,3.32646677347975,0.457770656900948,0.640878919661191
1580421528.19712,3.14335851071951,0.335698481727377,0.762951094834762
1580421528.20112,3.14335851071951,0.274662394140478,0.946059357595232
1580421528.20511,3.63164721141379,0.335698481727377,0.762951094834762
1580421528.2091,4.42511635004189,0.335698481727377,0.823987182421661
1580421528.2131,5.03547722590974,0.152590218966907,1.12916762035547
1580421528.21709,5.21858548867021,-0.091554131380235,1.12916762035547
1580421528.22108,5.03547722590974,-0.396734569314049,1.25123979552905
1580421528.22508,4.8523689631495,-0.396734569314049,1.49538414587619
1580421528.22906,5.03547722590974,-0.152590218966907,1.61745632104976
1580421528.23306,5.15754940108332,-0.091554131380235,1.61745632104976
1580421528.23705,5.27962157625689,0.0305180437933359,1.61745632104976
1580421528.24104,5.27962157625689,-0.0305180437933359,1.55642023346309
1580421528.24504,4.48615243762879,0.0305180437933359,1.37331197070262
1580421528.24903,3.44853894865332,-0.091554131380235,1.19020370794237
1580421528.25303,2.59403372243833,-0.213626306553806,0.946059357595232
1580421528.25702,1.9226367589838,-0.396734569314049,0.70191500724809
1580421528.26101,1.43434805828952,-0.457770656900948,0.640878919661191
1580421528.26501,0.946059357595232,-0.51880674448762,0.51880674448762
1580421528.269,0.70191500724809,-0.274662394140478,0.457770656900948
1580421528.27299,0.213626306553806,-0.152590218966907,0.51880674448762
1580421528.27699,0.0305180437933359,0.091554131380235,0.457770656900948
1580421528.28098,0.091554131380235,0.335698481727377,0.51880674448762
1580421528.28497,-0.152590218966907,0.335698481727377,0.51880674448762
1580421528.28897,-0.335698481727377,0.579842832074519,0.51880674448762
1580421528.29296,-0.823987182421661,0.823987182421661,0.70191500724809
1580421528.29695,-0.946059357595232,1.0681315327688,0.762951094834762
1580421528.30095,-0.823987182421661,1.43434805828952,0.823987182421661
1580421528.30494,-0.091554131380235,1.9226367589838,0.885023270008332
1580421528.30896,0.640878919661191,2.10574502174404,1.0070954451819
1580421528.31295,0.946059357595232,1.80056458381023,1.0681315327688
1580421528.31695,0.823987182421661,1.25123979552905,1.0681315327688
1580421528.32094,0.152590218966907,0.70191500724809,1.0070954451819
1580421528.32493,-0.457770656900948,0.274662394140478,0.885023270008332
1580421528.32893,-0.823987182421661,0.213626306553806,0.762951094834762
1580421528.33292,-0.885023270008332,0.335698481727377,0.579842832074519
1580421528.33691,-1.19020370794237,0.396734569314049,0.335698481727377
1580421528.34091,-1.55642023346309,0.213626306553806,0.213626306553806
1580421528.3449,-1.98367284657047,0.0305180437933359,0.091554131380235
1580421528.34889,-2.16678110933094,-0.274662394140478,0.0305180437933359
1580421528.35289,-2.16678110933094,-0.396734569314049,-0.091554131380235
1580421528.35688,-1.73952849622333,-0.640878919661191,-0.335698481727377
1580421528.36087,-0.885023270008332,-0.762951094834762,-0.396734569314049
1580421528.36487,-0.091554131380235,-0.762951094834762,-0.579842832074519
1580421528.36886,0.70191500724809,-0.70191500724809,-0.579842832074519
1580421528.37286,1.12916762035547,-0.457770656900948,-0.640878919661191
1580421528.37685,1.31227588311594,-0.396734569314049,-0.640878919661191
1580421528.38084,1.12916762035547,-0.335698481727377,-0.640878919661191
1580421528.38484,0.946059357595232,-0.457770656900948,-0.51880674448762
1580421528.38882,0.70191500724809,-0.70191500724809,-0.457770656900948
1580421528.39282,0.579842832074519,-0.823987182421661,-0.51880674448762
1580421528.39681,0.640878919661191,-0.70191500724809,-0.396734569314049
1580421528.4008,0.640878919661191,-0.762951094834762,-0.274662394140478
1580421528.4048,0.823987182421661,-0.762951094834762,-0.213626306553806
1580421528.40879,0.762951094834762,-1.0070954451819,-0.0305180437933359
1580421528.41278,0.51880674448762,-1.25123979552905,0.0305180437933359
1580421528.41678,0.213626306553806,-1.49538414587619,0.152590218966907
1580421528.42077,-0.0305180437933359,-1.67849240863666,0.213626306553806
1580421528.42477,-0.274662394140478,-2.16678110933094,0.152590218966907
1580421528.42876,-0.213626306553806,-2.34988937209118,0.274662394140478
1580421528.43275,-0.091554131380235,-2.53299763485165,0.335698481727377
1580421528.43675,-0.091554131380235,-2.65506981002522,0.091554131380235
1580421528.44074,0.091554131380235,-2.59403372243833,-0.0305180437933359
1580421528.44473,0.335698481727377,-2.59403372243833,-0.213626306553806
1580421528.44873,0.335698481727377,-2.53299763485165,-0.579842832074519
1580421528.45272,0.51880674448762,-2.53299763485165,-0.640878919661191
1580421528.45671,0.70191500724809,-2.28885328450451,-0.823987182421661
1580421528.46071,1.0070954451819,-2.04470893415737,-0.823987182421661
1580421528.4647,1.0070954451819,-2.04470893415737,-1.0070954451819
1580421528.46872,1.25123979552905,-1.98367284657047,-0.946059357595232
1580421528.47271,1.37331197070262,-1.9226367589838,-0.823987182421661
1580421528.47671,1.49538414587619,-2.04470893415737,-0.762951094834762
1580421528.4807,1.67849240863666,-2.04470893415737,-0.579842832074519
1580421528.48469,1.80056458381023,-2.10574502174404,-0.51880674448762
1580421528.48869,1.98367284657047,-2.10574502174404,-0.274662394140478
1580421528.49268,2.34988937209118,-2.10574502174404,-0.0305180437933359
1580421528.49667,2.47196154726475,-2.04470893415737,0.091554131380235
1580421528.50067,2.41092545967808,-2.04470893415737,0.274662394140478
1580421528.50466,1.80056458381023,-2.22781719691761,0.579842832074519
1580421528.50865,0.70191500724809,-2.41092545967808,0.640878919661191
1580421528.51265,-0.213626306553806,-2.47196154726475,0.762951094834762
1580421528.51664,-0.946059357595232,-2.47196154726475,0.70191500724809
1580421528.52063,-1.0070954451819,-2.59403372243833,0.640878919661191
1580421528.52463,-0.762951094834762,-2.7771419851988,0.51880674448762
1580421528.52862,-0.51880674448762,-2.83817807278547,0.457770656900948
1580421528.53261,-0.213626306553806,-2.89921416037237,0.396734569314049
1580421528.53661,0.152590218966907,-2.59403372243833,0.213626306553806
1580421528.5406,0.213626306553806,-2.28885328450451,-0.0305180437933359
1580421528.5446,0.274662394140478,-1.98367284657047,-0.091554131380235
1580421528.54858,0.274662394140478,-1.67849240863666,-0.152590218966907
1580421528.55258,0.396734569314049,-1.43434805828952,-0.396734569314049
1580421528.55657,0.51880674448762,-1.49538414587619,-0.335698481727377
1580421528.56056,0.640878919661191,-1.43434805828952,-0.457770656900948
1580421528.56456,0.885023270008332,-1.43434805828952,-0.579842832074519
1580421528.56855,0.885023270008332,-1.49538414587619,-0.457770656900948
1580421528.57254,1.43434805828952,-1.61745632104976,-0.335698481727377
1580421528.57654,1.67849240863666,-1.73952849622333,-0.152590218966907
1580421528.58053,1.80056458381023,-1.49538414587619,-0.0305180437933359
1580421528.58452,1.67849240863666,-1.31227588311594,0.213626306553806
1580421528.58852,1.49538414587619,-1.25123979552905,0.335698481727377
1580421528.59251,1.31227588311594,-1.37331197070262,0.51880674448762
1580421528.59651,1.0070954451819,-1.43434805828952,0.579842832074519
1580421528.6005,0.885023270008332,-1.43434805828952,0.823987182421661
1580421528.60449,0.946059357595232,-1.25123979552905,0.946059357595232
1580421528.60849,1.0070954451819,-1.25123979552905,1.12916762035547
1580421528.61248,1.12916762035547,-1.43434805828952,1.25123979552905
1580421528.61647,1.12916762035547,-1.67849240863666,1.43434805828952
1580421528.62047,0.946059357595232,-1.8616006713969,1.37331197070262
1580421528.62446,1.0070954451819,-1.73952849622333,1.31227588311594
1580421528.62845,1.12916762035547,-1.61745632104976,1.0681315327688
1580421528.63244,1.0681315327688,-1.43434805828952,1.0070954451819
1580421528.63644,1.12916762035547,-1.37331197070262,0.885023270008332
1580421528.64043,1.12916762035547,-1.37331197070262,0.946059357595232
1580421528.64442,1.19020370794237,-1.55642023346309,0.823987182421661
1580421528.64842,1.49538414587619,-1.61745632104976,0.823987182421661
1580421528.65241,1.80056458381023,-1.55642023346309,0.762951094834762
1580421528.6564,2.22781719691761,-1.49538414587619,0.762951094834762
1580421528.6604,2.83817807278547,-1.43434805828952,0.885023270008332
1580421528.66439,3.32646677347975,-1.19020370794237,0.823987182421661
1580421528.66838,3.93682764934761,-0.823987182421661,0.885023270008332
1580421528.67238,4.30304417486832,-0.457770656900948,0.885023270008332
1580421528.67637,4.30304417486832,-0.335698481727377,0.823987182421661
1580421528.68036,3.93682764934761,-0.335698481727377,0.823987182421661
1580421528.68436,3.50957503624022,-0.396734569314049,1.0070954451819
1580421528.68835,3.08232242313261,-0.213626306553806,1.12916762035547
1580421528.69234,2.59403372243833,0.091554131380235,1.19020370794237
1580421528.69634,2.34988937209118,0.091554131380235,1.0681315327688
1580421528.70033,2.34988937209118,0.152590218966907,1.0681315327688
1580421528.70432,2.10574502174404,0.091554131380235,1.0681315327688
1580421528.70834,1.73952849622333,-0.274662394140478,1.25123979552905
1580421528.71234,1.43434805828952,-0.762951094834762,1.37331197070262
1580421528.71633,0.823987182421661,-1.19020370794237,1.37331197070262
1580421528.72032,0.51880674448762,-1.49538414587619,1.37331197070262
1580421528.72432,0.51880674448762,-1.49538414587619,1.19020370794237
1580421528.72831,0.70191500724809,-1.43434805828952,1.12916762035547
1580421528.7323,1.0681315327688,-1.37331197070262,1.0681315327688
1580421528.7363,1.49538414587619,-1.37331197070262,1.12916762035547
1580421528.74029,1.49538414587619,-1.37331197070262,1.0681315327688
1580421528.74428,1.31227588311594,-1.31227588311594,1.0070954451819
1580421528.74828,1.0681315327688,-1.19020370794237,1.0681315327688
1580421528.75227,1.0681315327688,-1.0681315327688,0.885023270008332
1580421528.75626,1.49538414587619,-0.885023270008332,0.823987182421661
1580421528.76026,1.98367284657047,-0.823987182421661,0.885023270008332
1580421528.76425,2.53299763485165,-0.823987182421661,1.0681315327688
1580421528.76825,2.7161058976119,-0.946059357595232,1.25123979552905
1580421528.77224,2.47196154726475,-1.31227588311594,1.49538414587619
1580421528.77623,2.34988937209118,-1.61745632104976,1.80056458381023
1580421528.78023,2.04470893415737,-1.43434805828952,1.9226367589838
1580421528.78422,2.28885328450451,-0.885023270008332,1.98367284657047
1580421528.78821,2.41092545967808,-0.762951094834762,1.98367284657047
1580421528.7922,2.53299763485165,-0.640878919661191,1.98367284657047
1580421528.7962,2.47196154726475,-0.946059357595232,1.73952849622333
1580421528.80019,2.10574502174404,-1.43434805828952,1.67849240863666
1580421528.80418,1.61745632104976,-1.80056458381023,1.61745632104976
1580421528.80817,1.31227588311594,-2.28885328450451,1.61745632104976
1580421528.81217,1.31227588311594,-2.28885328450451,1.67849240863666
1580421528.81616,1.73952849622333,-2.28885328450451,1.43434805828952
1580421528.82016,2.34988937209118,-2.16678110933094,1.25123979552905
1580421528.82415,2.96025024795904,-1.8616006713969,1.12916762035547
1580421528.82814,3.20439459830618,-1.73952849622333,1.0070954451819
1580421528.83214,3.63164721141379,-1.55642023346309,0.823987182421661
1580421528.83613,3.75371938658736,-1.61745632104976,0.762951094834762
1580421528.84012,3.99786373693451,-1.61745632104976,0.457770656900948
1580421528.84412,4.36408026245522,-1.61745632104976,0.396734569314049
1580421528.84811,4.97444113832307,-1.67849240863666,0.51880674448762
1580421528.8521,5.6458381017776,-1.55642023346309,0.640878919661191
1580421528.8561,6.07309071488521,-1.61745632104976,0.762951094834762
1580421528.86009,6.01205462729831,-1.31227588311594,1.0681315327688
1580421528.86408,5.40169375143046,-1.25123979552905,1.49538414587619
1580421528.8681,4.60822461280236,-1.0070954451819,2.04470893415737
1580421528.8721,4.11993591210808,-0.762951094834762,2.41092545967808
1580421528.87609,3.81475547417404,-0.213626306553806,2.7161058976119
1580421528.88008,3.87579156176093,0.152590218966907,2.7771419851988
1580421528.88408,3.63164721141379,0.457770656900948,2.7771419851988
1580421528.88807,3.20439459830618,0.335698481727377,2.65506981002522
1580421528.89206,2.59403372243833,0.0305180437933359,2.41092545967808
1580421528.89606,1.67849240863666,-0.640878919661191,1.8616006713969
1580421528.90005,1.0681315327688,-1.0681315327688,1.55642023346309
1580421528.90404,0.823987182421661,-1.61745632104976,1.19020370794237
1580421528.90804,0.579842832074519,-2.16678110933094,0.762951094834762
1580421528.91203,0.762951094834762,-2.59403372243833,0.335698481727377
1580421528.91602,0.823987182421661,-2.7771419851988,0.0305180437933359
1580421528.92002,1.19020370794237,-2.7161058976119,-0.152590218966907
1580421528.92401,1.67849240863666,-2.53299763485165,-0.274662394140478
1580421528.928,2.22781719691761,-2.41092545967808,-0.274662394140478
1580421528.932,2.7771419851988,-2.22781719691761,-0.396734569314049
1580421528.93599,3.57061112382689,-2.10574502174404,-0.579842832074519
1580421528.93999,4.30304417486832,-1.9226367589838,-0.51880674448762
1580421528.94398,4.73029678797593,-1.67849240863666,-0.457770656900948
1580421528.94797,5.34065766384379,-1.55642023346309,-0.274662394140478
1580421528.95196,5.6458381017776,-1.49538414587619,-0.091554131380235
1580421528.95595,5.58480201419093,-1.55642023346309,0.213626306553806
1580421528.95995,4.8523689631495,-1.67849240863666,0.51880674448762
1580421528.96394,3.57061112382689,-1.43434805828952,0.70191500724809
1580421528.96793,2.22781719691761,-0.946059357595232,0.946059357595232
1580421528.97193,1.12916762035547,-0.51880674448762,1.0681315327688
1580421528.97592,0.457770656900948,-0.335698481727377,1.12916762035547
1580421528.97991,0.152590218966907,-0.396734569314049,1.12916762035547
1580421528.98391,-0.213626306553806,-0.70191500724809,1.0070954451819
1580421528.9879,-0.640878919661191,-1.19020370794237,0.640878919661191
1580421528.9919,-1.0681315327688,-1.80056458381023,0.457770656900948
1580421528.99589,-1.55642023346309,-2.34988937209118,0.0305180437933359
1580421528.99988,-1.80056458381023,-2.7771419851988,-0.274662394140478
1580421529.00388,-1.67849240863666,-3.02128633554594,-0.640878919661191
1580421529.00787,-1.31227588311594,-2.89921416037237,-1.0070954451819
1580421529.01186,-0.70191500724809,-2.96025024795904,-1.25123979552905
1580421529.01586,-0.091554131380235,-3.02128633554594,-1.37331197070262
1580421529.01985,0.396734569314049,-2.7771419851988,-1.37331197070262
1580421529.02384,1.0070954451819,-2.83817807278547,-1.55642023346309
1580421529.02783,1.61745632104976,-2.89921416037237,-1.49538414587619
1580421529.03182,2.04470893415737,-2.89921416037237,-1.49538414587619
1580421529.03582,2.34988937209118,-2.89921416037237,-1.49538414587619
1580421529.03981,2.59403372243833,-3.02128633554594,-1.49538414587619
1580421529.04381,3.02128633554594,-2.96025024795904,-1.43434805828952
1580421529.0478,3.44853894865332,-2.7771419851988,-1.25123979552905
1580421529.05179,4.24200808728165,-2.59403372243833,-1.0681315327688
1580421529.05579,4.91340505073617,-2.41092545967808,-0.823987182421661
1580421529.05978,5.46272983901736,-2.47196154726475,-0.457770656900948
1580421529.06377,5.7068741893645,-2.28885328450451,-0.091554131380235
1580421529.06777,5.40169375143046,-2.22781719691761,0.213626306553806
1580421529.07176,4.7913328755626,-2.04470893415737,0.152590218966907
1580421529.07575,4.18097199969475,-1.9226367589838,0.213626306553806
1580421529.07975,3.69268329900046,-1.61745632104976,0.213626306553806
1580421529.08374,3.44853894865332,-1.49538414587619,0.213626306553806
1580421529.08773,3.02128633554594,-1.43434805828952,0.213626306553806
1580421529.09173,2.53299763485165,-1.8616006713969,0.091554131380235
1580421529.09572,2.04470893415737,-2.16678110933094,-0.091554131380235
1580421529.09971,1.80056458381023,-2.28885328450451,-0.152590218966907
1580421529.10371,1.8616006713969,-2.47196154726475,-0.457770656900948
1580421529.10773,2.10574502174404,-2.41092545967808,-0.70191500724809
1580421529.11172,2.34988937209118,-2.10574502174404,-1.0070954451819
1580421529.11571,2.34988937209118,-1.80056458381023,-1.31227588311594
1580421529.11971,2.34988937209118,-1.67849240863666,-1.49538414587619
1580421529.1237,2.41092545967808,-1.73952849622333,-1.55642023346309
1580421529.12769,2.41092545967808,-1.8616006713969,-1.80056458381023
1580421529.13169,2.59403372243833,-1.8616006713969,-1.9226367589838
1580421529.13568,2.83817807278547,-1.9226367589838,-1.80056458381023
1580421529.13967,3.08232242313261,-2.04470893415737,-1.67849240863666
1580421529.14367,3.08232242313261,-1.9226367589838,-1.73952849622333
1580421529.14766,2.96025024795904,-1.98367284657047,-1.67849240863666
1580421529.15165,2.65506981002522,-1.9226367589838,-1.37331197070262
1580421529.15565,2.34988937209118,-2.04470893415737,-1.31227588311594
1580421529.15964,2.04470893415737,-2.16678110933094,-0.946059357595232
1580421529.16364,1.8616006713969,-2.16678110933094,-0.70191500724809
1580421529.16763,1.61745632104976,-2.04470893415737,-0.51880674448762
1580421529.17162,1.55642023346309,-1.73952849622333,-0.396734569314049
1580421529.17562,1.43434805828952,-1.61745632104976,-0.152590218966907
1580421529.17961,1.12916762035547,-1.73952849622333,0.091554131380235
1580421529.1836,0.762951094834762,-1.80056458381023,0.457770656900948
1580421529.18759,0.274662394140478,-1.98367284657047,0.762951094834762
1580421529.19158,-0.0305180437933359,-2.10574502174404,0.885023270008332
1580421529.19558,-0.152590218966907,-2.04470893415737,1.0070954451819
1580421529.19957,0.152590218966907,-1.9226367589838,1.0681315327688
1580421529.20356,0.457770656900948,-1.67849240863666,1.19020370794237
1580421529.20756,0.70191500724809,-1.49538414587619,1.25123979552905
1580421529.21155,0.762951094834762,-1.37331197070262,1.19020370794237
1580421529.21555,0.885023270008332,-1.37331197070262,1.12916762035547
1580421529.21954,0.823987182421661,-1.55642023346309,1.0681315327688
1580421529.22353,1.0070954451819,-1.73952849622333,0.762951094834762
1580421529.22753,1.12916762035547,-1.98367284657047,0.51880674448762
1580421529.23152,1.37331197070262,-1.80056458381023,0.396734569314049
1580421529.23551,1.73952849622333,-1.61745632104976,0.152590218966907
1580421529.23951,2.41092545967808,-1.25123979552905,-0.091554131380235
1580421529.2435,2.7771419851988,-1.37331197070262,-0.091554131380235
1580421529.24749,3.32646677347975,-1.49538414587619,-0.0305180437933359
1580421529.25149,3.63164721141379,-1.49538414587619,0.0305180437933359
1580421529.25548,3.99786373693451,-1.37331197070262,0.152590218966907
1580421529.25947,4.24200808728165,-1.12916762035547,0.213626306553806
1580421529.26347,4.66926070038903,-0.946059357595232,0.335698481727377
1580421529.26746,4.8523689631495,-0.640878919661191,0.274662394140478
1580421529.27145,5.09651331349664,-0.274662394140478,0.396734569314049
1580421529.27544,5.03547722590974,-0.091554131380235,0.274662394140478
1580421529.27944,4.7913328755626,0.0305180437933359,0.152590218966907
1580421529.28343,4.54718852521546,-0.091554131380235,0.091554131380235
1580421529.28742,4.36408026245522,-0.213626306553806,-0.152590218966907
1580421529.29142,4.36408026245522,-0.457770656900948,-0.0305180437933359
1580421529.29541,4.48615243762879,-0.51880674448762,0.0305180437933359
1580421529.2994,4.66926070038903,-0.70191500724809,-0.152590218966907
1580421529.3034,4.91340505073617,-0.823987182421661,-0.274662394140478
1580421529.30739,5.21858548867021,-0.946059357595232,-0.335698481727377
1580421529.31138,5.52376592660403,-0.823987182421661,-0.640878919661191
1580421529.31538,5.6458381017776,-0.946059357595232,-0.51880674448762
1580421529.31937,5.46272983901736,-0.946059357595232,-0.51880674448762
1580421529.32336,5.27962157625689,-0.579842832074519,-0.70191500724809
1580421529.32736,4.97444113832307,-0.396734569314049,-0.823987182421661
1580421529.33135,5.03547722590974,0.274662394140478,-0.51880674448762
1580421529.33535,5.15754940108332,0.823987182421661,-0.396734569314049
1580421529.33934,5.34065766384379,1.0070954451819,-0.152590218966907
1580421529.34333,5.76791027695117,1.25123979552905,0.213626306553806
1580421529.34735,6.25619897764545,1.43434805828952,0.579842832074519
1580421529.35134,6.5003433279926,1.98367284657047,0.823987182421661
1580421529.35534,6.31723506523235,2.47196154726475,0.70191500724809
1580421529.35933,5.6458381017776,3.02128633554594,0.579842832074519
1580421529.36332,4.30304417486832,3.32646677347975,0.51880674448762
1580421529.36732,2.65506981002522,3.32646677347975,0.335698481727377
1580421529.37131,1.0681315327688,2.96025024795904,0.274662394140478
1580421529.3753,-0.274662394140478,2.59403372243833,0.213626306553806
1580421529.3793,-1.31227588311594,2.16678110933094,0.091554131380235
1580421529.38329,-1.73952849622333,1.67849240863666,0.0305180437933359
1580421529.38729,-1.80056458381023,1.49538414587619,0.0305180437933359
1580421529.39128,-1.80056458381023,1.37331197070262,0.213626306553806
1580421529.39527,-1.9226367589838,1.31227588311594,0.274662394140478
1580421529.39927,-2.16678110933094,1.49538414587619,0.51880674448762
1580421529.40326,-2.47196154726475,1.61745632104976,0.640878919661191
1580421529.40725,-2.7771419851988,1.67849240863666,0.762951094834762
1580421529.41125,-2.89921416037237,1.9226367589838,0.823987182421661
1580421529.41524,-2.7771419851988,2.04470893415737,0.70191500724809
1580421529.41923,-2.53299763485165,1.98367284657047,0.457770656900948
1580421529.42323,-2.16678110933094,2.04470893415737,0.152590218966907
1580421529.42725,-2.04470893415737,2.04470893415737,0.091554131380235
1580421529.43124,-2.41092545967808,1.98367284657047,-0.335698481727377
1580421529.43523,-2.65506981002522,1.61745632104976,-0.640878919661191
1580421529.43923,-3.14335851071951,1.37331197070262,-0.946059357595232
1580421529.44322,-3.50957503624022,1.0070954451819,-1.31227588311594
1580421529.44721,-3.93682764934761,0.70191500724809,-1.73952849622333
1580421529.45121,-4.24200808728165,0.640878919661191,-2.04470893415737
1580421529.4552,-4.42511635004189,0.51880674448762,-2.16678110933094
1580421529.45919,-4.42511635004189,0.457770656900948,-2.34988937209118
1580421529.46319,-3.99786373693451,0.457770656900948,-2.34988937209118
1580421529.46718,-3.38750286106665,0.579842832074519,-2.28885328450451
1580421529.47117,-2.65506981002522,0.640878919661191,-1.98367284657047
1580421529.47517,-1.31227588311594,0.70191500724809,-1.73952849622333
1580421529.47916,0.152590218966907,0.762951094834762,-1.55642023346309
1580421529.48316,1.61745632104976,0.885023270008332,-1.19020370794237
1580421529.48715,2.65506981002522,1.0070954451819,-0.70191500724809
1580421529.49114,3.32646677347975,1.12916762035547,-0.274662394140478
1580421529.49513,3.69268329900046,1.37331197070262,0.213626306553806
1580421529.49913,3.44853894865332,1.80056458381023,0.762951094834762
1580421529.50312,3.38750286106665,2.04470893415737,0.885023270008332
1580421529.50714,3.14335851071951,2.10574502174404,1.19020370794237
1580421529.51113,2.96025024795904,1.98367284657047,1.43434805828952
1580421529.51513,2.41092545967808,1.9226367589838,1.61745632104976
1580421529.51912,2.10574502174404,1.80056458381023,1.61745632104976
1580421529.52311,1.9226367589838,1.67849240863666,1.55642023346309
1580421529.52711,1.67849240863666,1.55642023346309,1.37331197070262
1580421529.5311,1.61745632104976,1.31227588311594,1.0070954451819
1580421529.53509,1.43434805828952,0.762951094834762,0.640878919661191
1580421529.53909,1.31227588311594,0.091554131380235,0.274662394140478
1580421529.54308,0.946059357595232,-0.51880674448762,-0.335698481727377
1580421529.54708,0.823987182421661,-1.25123979552905,-0.762951094834762
1580421529.55107,0.70191500724809,-1.73952849622333,-1.19020370794237
1580421529.55506,0.640878919661191,-2.10574502174404,-1.37331197070262
1580421529.55906,0.762951094834762,-2.10574502174404,-1.73952849622333
1580421529.56305,1.0070954451819,-1.8616006713969,-1.9226367589838
1580421529.56704,1.43434805828952,-1.37331197070262,-2.10574502174404
1580421529.57104,1.98367284657047,-0.640878919661191,-2.10574502174404
1580421529.57503,2.22781719691761,0.0305180437933359,-1.98367284657047
1580421529.57902,2.47196154726475,0.640878919661191,-1.80056458381023
1580421529.58302,2.41092545967808,1.19020370794237,-1.49538414587619
1580421529.587,2.04470893415737,2.10574502174404,-1.12916762035547
1580421529.591,1.49538414587619,3.02128633554594,-0.579842832074519
1580421529.59499,1.31227588311594,3.63164721141379,-0.0305180437933359
1580421529.59899,1.19020370794237,4.05889982452118,0.457770656900948
1580421529.60298,1.25123979552905,4.24200808728165,0.762951094834762
1580421529.60697,1.0681315327688,4.54718852521546,1.19020370794237
1580421529.61097,0.457770656900948,4.60822461280236,1.55642023346309
1580421529.61496,-0.396734569314049,4.24200808728165,1.80056458381023
1580421529.61895,-1.55642023346309,3.63164721141379,1.8616006713969
1580421529.62295,-2.53299763485165,3.14335851071951,1.8616006713969
1580421529.62694,-3.44853894865332,2.59403372243833,1.73952849622333
1580421529.63093,-3.69268329900046,2.47196154726475,1.49538414587619
1580421529.63493,-3.69268329900046,2.28885328450451,1.37331197070262
1580421529.63892,-3.44853894865332,2.04470893415737,0.946059357595232
1580421529.64291,-3.32646677347975,1.9226367589838,0.762951094834762
1580421529.64691,-3.08232242313261,1.80056458381023,0.213626306553806
1580421529.6509,-2.59403372243833,1.43434805828952,-0.152590218966907
1580421529.65489,-2.22781719691761,1.12916762035547,-0.51880674448762
1580421529.65889,-1.61745632104976,0.762951094834762,-0.823987182421661
1580421529.66288,-0.762951094834762,0.70191500724809,-1.19020370794237
1580421529.66687,0.091554131380235,0.946059357595232,-1.43434805828952
1580421529.67086,0.823987182421661,1.43434805828952,-1.37331197070262
1580421529.67486,1.49538414587619,1.73952849622333,-1.25123979552905
1580421529.67885,2.22781719691761,1.80056458381023,-1.12916762035547
1580421529.68284,2.89921416037237,2.16678110933094,-1.0070954451819
1580421529.68684,3.75371938658736,2.59403372243833,-0.70191500724809
1580421529.69083,4.24200808728165,2.59403372243833,-0.51880674448762
1580421529.69482,4.54718852521546,2.65506981002522,-0.091554131380235
1580421529.69882,4.48615243762879,2.65506981002522,0.396734569314049
1580421529.70281,4.24200808728165,2.53299763485165,0.823987182421661
1580421529.7068,3.99786373693451,2.47196154726475,1.0681315327688
1580421529.7108,3.75371938658736,2.34988937209118,1.12916762035547
1580421529.71479,3.44853894865332,2.16678110933094,1.0070954451819
1580421529.71879,3.08232242313261,2.10574502174404,0.946059357595232
1580421529.72278,2.65506981002522,1.8616006713969,0.70191500724809
1580421529.72677,2.22781719691761,1.49538414587619,0.396734569314049
1580421529.73077,1.9226367589838,1.43434805828952,0.152590218966907
1580421529.73476,1.9226367589838,1.25123979552905,-0.274662394140478
1580421529.73875,2.16678110933094,1.19020370794237,-0.640878919661191
1580421529.74275,2.53299763485165,1.37331197070262,-0.885023270008332
1580421529.74676,2.96025024795904,1.8616006713969,-1.12916762035547
1580421529.75076,3.26543068589308,2.22781719691761,-1.25123979552905
1580421529.75475,3.44853894865332,2.7161058976119,-1.37331197070262
1580421529.75874,3.44853894865332,3.32646677347975,-1.49538414587619
1580421529.76274,3.26543068589308,3.63164721141379,-1.49538414587619
1580421529.76673,3.14335851071951,3.93682764934761,-1.19020370794237
1580421529.77073,3.20439459830618,3.93682764934761,-0.946059357595232
1580421529.77472,3.32646677347975,3.75371938658736,-0.457770656900948
1580421529.77871,3.32646677347975,3.38750286106665,0.152590218966907
1580421529.78271,3.32646677347975,3.20439459830618,0.579842832074519
1580421529.7867,3.38750286106665,3.14335851071951,0.885023270008332
1580421529.79069,3.26543068589308,3.14335851071951,1.0681315327688
1580421529.79469,2.89921416037237,3.20439459830618,1.12916762035547
1580421529.79868,2.53299763485165,3.14335851071951,1.0070954451819
1580421529.80267,1.73952849622333,2.89921416037237,0.70191500724809
1580421529.80667,0.823987182421661,2.34988937209118,0.274662394140478
1580421529.81066,-0.213626306553806,1.67849240863666,-0.152590218966907
1580421529.81465,-0.823987182421661,1.0681315327688,-0.579842832074519
1580421529.81865,-1.12916762035547,0.885023270008332,-0.823987182421661
1580421529.82264,-0.885023270008332,0.946059357595232,-1.0681315327688
1580421529.82663,-0.396734569314049,1.31227588311594,-1.12916762035547
1580421529.83062,0.396734569314049,1.9226367589838,-1.25123979552905
1580421529.83462,1.25123979552905,2.65506981002522,-1.0681315327688
1580421529.83861,1.9226367589838,3.57061112382689,-1.0070954451819
1580421529.8426,2.22781719691761,4.73029678797593,-0.946059357595232
1580421529.8466,2.53299763485165,5.76791027695117,-0.885023270008332
1580421529.85059,3.14335851071951,6.5003433279926,-0.579842832074519
1580421529.85458,3.44853894865332,7.11070420386045,-0.335698481727377
1580421529.85858,3.75371938658736,7.53795681696806,-0.091554131380235
1580421529.86257,3.93682764934761,7.90417334248878,0.213626306553806
1580421529.86656,3.99786373693451,8.14831769283592,0.335698481727377
1580421529.87056,3.99786373693451,8.27038986800949,0.640878919661191
1580421529.87455,3.93682764934761,8.6366063935302,0.70191500724809
1580421529.87855,3.69268329900046,8.75867856870377,0.762951094834762
1580421529.88254,3.14335851071951,8.88075074387734,0.823987182421661
1580421529.88653,2.53299763485165,8.6366063935302,1.0070954451819
1580421529.89052,1.8616006713969,8.14831769283592,1.0681315327688
1580421529.89452,1.37331197070262,7.7821011673152,1.25123979552905
1580421529.89851,1.0070954451819,7.47692072938116,1.12916762035547
1580421529.90251,0.946059357595232,7.35484855420759,1.0070954451819
1580421529.90652,1.25123979552905,7.59899290455473,0.640878919661191
1580421529.91052,1.61745632104976,7.72106507972831,0.091554131380235
1580421529.91451,1.8616006713969,7.47692072938116,-0.396734569314049
1580421529.9185,1.9226367589838,7.17174029144735,-1.37331197070262
1580421529.9225,1.9226367589838,6.80552376592664,-2.16678110933094
1580421529.92649,1.9226367589838,6.5003433279926,-3.14335851071951
1580421529.93049,2.16678110933094,6.01205462729831,-3.99786373693451
1580421529.93448,2.7771419851988,5.40169375143046,-4.66926070038903
1580421529.93847,3.57061112382689,4.8523689631495,-5.40169375143046
1580421529.94247,4.18097199969475,4.60822461280236,-5.82894636453807
1580421529.94646,4.54718852521546,5.15754940108332,-5.88998245212474
1580421529.95045,4.7913328755626,6.19516289005878,-5.40169375143046
1580421529.95445,5.21858548867021,7.04966811627378,-4.7913328755626
1580421529.95844,5.88998245212474,7.96520943007545,-3.69268329900046
1580421529.96243,6.80552376592664,8.45349813076973,-2.47196154726475
1580421529.96643,7.35484855420759,8.69764248111687,-1.0070954451819
1580421529.97042,7.53795681696806,8.81971465629044,0.457770656900948
1580421529.97441,7.35484855420759,9.00282291905091,1.49538414587619
1580421529.97841,7.23277637903402,9.30800335698473,2.41092545967808
1580421529.9824,7.29381246662092,9.4300755321583,2.83817807278547
1580421529.98639,7.72106507972831,9.24696726939806,3.08232242313261
1580421529.99038,7.7821011673152,8.5755703059433,3.02128633554594
1580421529.99438,7.17174029144735,7.53795681696806,2.83817807278547
1580421529.99837,6.25619897764545,6.19516289005878,2.22781719691761
1580421530.00236,4.91340505073617,4.91340505073617,1.43434805828952
1580421530.00636,3.99786373693451,3.81475547417404,0.335698481727377
1580421530.01035,3.38750286106665,3.14335851071951,-0.640878919661191
1580421530.01434,3.38750286106665,2.89921416037237,-1.80056458381023
1580421530.01834,3.50957503624022,2.83817807278547,-2.83817807278547
1580421530.02233,3.63164721141379,3.02128633554594,-3.99786373693451
1580421530.02632,3.81475547417404,3.02128633554594,-4.7913328755626
1580421530.03032,4.24200808728165,2.96025024795904,-5.46272983901736
1580421530.03431,5.15754940108332,2.65506981002522,-5.82894636453807
1580421530.0383,6.07309071488521,2.41092545967808,-6.01205462729831
1580421530.0423,6.86655985351331,2.22781719691761,-5.7068741893645
1580421530.04629,7.47692072938116,2.22781719691761,-5.15754940108332
1580421530.05028,8.39246204318306,2.41092545967808,-4.30304417486832
1580421530.05428,9.4911116197452,2.34988937209118,-3.44853894865332
1580421530.05827,10.2235446707866,2.41092545967808,-2.41092545967808
1580421530.06226,10.0404364080262,2.41092545967808,-1.49538414587619
1580421530.06625,8.94178683146401,2.59403372243833,-0.762951094834762
1580421530.07025,7.29381246662092,2.96025024795904,-0.091554131380235
1580421530.07424,6.37827115281902,3.20439459830618,0.396734569314049
1580421530.07823,6.31723506523235,3.38750286106665,0.51880674448762
1580421530.08223,6.68345159075307,3.32646677347975,0.640878919661191
1580421530.08622,6.86655985351331,2.7161058976119,0.396734569314049
1580421530.09021,6.19516289005878,1.67849240863666,0.152590218966907
1580421530.09421,4.60822461280236,0.152590218966907,-0.396734569314049
1580421530.0982,2.53299763485165,-1.43434805828952,-1.19020370794237
1580421530.1022,0.457770656900948,-3.14335851071951,-2.10574502174404
1580421530.10619,-1.25123979552905,-4.66926070038903,-3.14335851071951
1580421530.11018,-2.83817807278547,-6.01205462729831,-3.93682764934761
1580421530.11417,-3.99786373693451,-7.29381246662092,-5.15754940108332
1580421530.11817,-5.40169375143046,-8.14831769283592,-6.25619897764545
1580421530.12216,-6.62241550316617,-8.6366063935302,-7.41588464179449
1580421530.12616,-7.59899290455473,-9.06385900663759,-8.69764248111687
1580421530.13015,-8.20935378042259,-9.18593118181116,-10.0404364080262
1580421530.13414,-8.51453421835663,-9.55214770733187,-11.4442664225223
1580421530.13814,-7.96520943007545,-9.85732814526591,-12.6039520866711
1580421530.14213,-6.92759594110021,-10.3456168459602,-13.519493400473
1580421530.14615,-5.6458381017776,-11.0170138094147,-14.373998626688
1580421530.15014,-4.24200808728165,-11.6273746852826,-14.8012512397954
1580421530.15413,-3.08232242313261,-12.2377355611504,-15.1064316777295
1580421530.15813,-2.28885328450451,-12.9701686121919,-15.1674677653161
1580421530.16212,-1.9226367589838,-13.8857099259938,-15.0453955901426
1580421530.16612,-1.98367284657047,-14.8012512397954,-14.923323414969
1580421530.17011,-2.7161058976119,-16.0219729915311,-14.6181429770352
1580421530.1741,-3.50957503624022,-17.486839093614,-14.4350347142747
1580421530.1781,-4.18097199969475,-18.7075608453497,-14.373998626688
1580421530.18209,-4.60822461280236,-19.9893186846723,-14.1298542763409
1580421530.18608,-4.66926070038903,-21.3321126115816,-14.068818188754
1580421530.19008,-4.24200808728165,-22.919050888838,-14.1298542763409
1580421530.19407,-3.69268329900046,-24.0787365529868,-14.373998626688
1580421530.19806,-3.44853894865332,-25.1163500419623,-14.7402151522087
1580421530.20206,-3.44853894865332,-25.8487830930037,-15.1064316777295
1580421530.20605,-3.63164721141379,-26.8863965819789,-15.9609369039445
1580421530.21004,-4.11993591210808,-28.2291905088882,-16.5102616922254
1580421530.21404,-4.18097199969475,-29.9382009613182,-17.3037308308537
1580421530.21803,-3.75371938658736,-32.0134279392691,-17.9751277943083
1580421530.22202,-2.7161058976119,-34.637979705501,-18.4634164950025
1580421530.22601,-1.0681315327688,-37.9339284351875,-18.8906691081102
1580421530.23001,0.70191500724809,-41.7181658655682,-19.1348134584573
1580421530.234,2.47196154726475,-45.9296559090562,-19.3179217212175
1580421530.23799,3.87579156176093,-50.3242542153048,-19.3789578088044
1580421530.24199,4.97444113832307,-54.6578164339667,-19.501029983978
1580421530.24598,6.13412680247188,-59.0524147402152,-19.5620660715647
1580421530.24997,7.29381246662092,-63.3859769588769,-19.501029983978
1580421530.25397,8.45349813076973,-67.3533226520181,-19.6231021591516
1580421530.25796,9.4300755321583,-71.2596322575723,-19.6841382467383
1580421530.26195,10.3456168459602,-75.043869687953,-19.9282825970854
1580421530.26595,11.3832303349354,-78.8891432059204,-19.9282825970854
1580421530.26994,12.5429159990845,-82.9175249866482,-19.9893186846723
1580421530.27393,13.9467460135804,-86.8238345922025,-19.8672465094987
1580421530.27793,15.3505760280766,-90.8522163729303,-19.8062104219118
1580421530.28192,16.5712977798123,-94.9416342412453,-19.6841382467383
1580421530.28591,17.3647669184404,-99.0310521095598,-19.501029983978
1580421530.28991,18.341344319829,-103.242542153048,-19.3789578088044
1580421530.2939,19.195849546044,-107.881284809644,-19.0737773708704
1580421530.2979,19.8062104219118,-113.06935225452,-19.0127412832837
1580421530.30189,19.5620660715647,-118.745708400092,-19.0127412832837
1580421530.30588,18.1582360570687,-124.422064545663,-19.3179217212175
1580421530.30987,15.4726482032502,-129.671168078126,-19.8672465094987
1580421530.31386,11.810482948043,-134.431982909895,-20.5996795605402
1580421530.31786,7.90417334248878,-138.52140077821,-21.6983291371023
1580421530.32185,3.81475547417404,-142.305638208591,-23.1021591515982
1580421530.32585,0.0305180437933359,-145.906767376211,-24.4449530785075
1580421530.32984,-3.99786373693451,-149.996185244526,-25.482566567483
1580421530.33383,-8.45349813076973,-154.695963988708,-26.3981078812847
1580421530.33782,-12.9091325246052,-160.55542839704,-26.6422522316318
1580421530.34182,-16.8764782177461,-166.964217593652,-26.3981078812847
1580421530.34581,-20.1113908598459,-172.51850156405,-25.1773861295489
1580421530.34981,-21.5152208743418,-175.082017242695,-23.1631952391851
1580421530.3538,-19.195849546044,-173.067826352331,-20.050354772259
1580421530.35779,-12.4818799114976,-164.583810177768,-15.4726482032502
1580421530.36179,-3.81475547417404,-150.30136568246,-9.73525597009234
1580421530.36578,3.50957503624022,-135.530632486458,-3.26543068589308
1580421530.36977,6.80552376592664,-125.764858472572,3.20439459830618
1580421530.37377,4.11993591210808,-122.652018005646,8.69764248111687
1580421530.37776,-5.15754940108332,-124.727244983597,11.7494468604561
1580421530.38175,-19.3179217212175,-131.319142442969,11.6884107728695
1580421530.38577,-35.7976653696498,-140.901808194095,8.6366063935302
1580421530.38977,-50.7515068284124,-151.461051346609,3.69268329900046
1580421530.39376,-60.9445334554055,-162.386511024643,-2.22781719691761
1580421530.39775,-64.6066987106126,-170.80949111162,-9.91836423285258
1580421530.40175,-62.8976882581826,-173.678187228199,-17.9751277943083
1580421530.40574,-56.2447547112231,-172.030212863355,-26.1539635309375
1580421530.40973,-45.2582589456017,-166.231784542611,-32.928969253071
1580421530.41373,-30.609597924773,-158.113984893568,-37.9949645227741
1580421530.41772,-14.0077821011673,-148.59235523003,-41.7181658655682
1580421530.42171,2.47196154726475,-138.826581216144,-44.3427176317998
1580421530.42571,17.0595864805066,-130.15945677882,-46.0517280842298
1580421530.4297,28.6564431219958,-122.346837567712,-47.2114137483788
1580421530.43369,37.1404592965589,-114.77836270695,-48.5542076752881
1580421530.43769,43.9765011062789,-107.75921263447,-49.5918211642634
1580421530.44168,50.1411459525443,-101.289387350271,-50.5073624780653
1580421530.44567,55.3902494850076,-95.5519951171132,-51.0566872663462
1580421530.44967,59.0524147402148,-91.0353246356908,-51.2397955291067
1580421530.45366,60.8834973678186,-87.2510872053101,-50.8125429159991
1580421530.45766,61.3107499809262,-83.5278858625161,-49.7749294270238
1580421530.46165,61.066605630579,-79.9267566948959,-47.8828107118334
1580421530.46564,60.6393530174714,-76.3256275272754,-45.2582589456017
1580421530.46963,59.90691996643,-72.3582818341345,-41.7181658655682
1580421530.47362,58.2589456015867,-68.3299000534066,-37.8118562600139
1580421530.47762,55.3902494850076,-64.484626535439,-33.478294041352
1580421530.48161,50.6904707408253,-60.8224612802319,-29.2057679102768
1580421530.4856,44.1596093690393,-57.648584725719,-24.9332417792018
1580421530.4896,36.4080262455175,-55.5733577477683,-20.904859998474
1580421530.49359,28.1071183337147,-54.291599908446,-17.0595864805066
1580421530.49758,19.0737773708704,-53.4981307698176,-13.3974212252995
1580421530.50158,9.79629205767901,-53.3760585946441,-10.2845807583733
1580421530.50557,0.091554131380235,-54.2305638208591,-7.47692072938116
1580421530.50956,-10.5287251087204,-55.6343938353552,-5.21858548867021
1580421530.51356,-22.4917982757304,-57.0992599374381,-3.32646677347975
1580421530.51755,-35.6145571068896,-58.2589456015869,-1.80056458381023
1580421530.52155,-49.1035324635691,-58.6861982146945,-0.640878919661191
1580421530.52554,-62.5314717326619,-58.6251621271076,0.274662394140478
1580421530.52953,-75.1659418631266,-59.0524147402152,0.640878919661191
1580421530.53353,-85.8472571908139,-60.0289921416038,0.579842832074519
1580421530.53752,-94.7585259784848,-60.6393530174716,0.0305180437933359
1580421530.54151,-102.021820401312,-60.5172808422981,-0.946059357595232
1580421530.54553,-107.881284809644,-59.5407034409095,-1.9226367589838
1580421530.54953,-111.970702677958,-58.0148012512398,-2.7771419851988
1580421530.55352,-113.618677042802,-56.4278629739833,-3.75371938658736
1580421530.55751,-113.435568780041,-54.9019607843138,-4.36408026245522
1580421530.56151,-112.214847028305,-52.9488059815367,-4.54718852521546
1580421530.5655,-110.200656137942,-49.6528572518503,-4.36408026245522
1580421530.56949,-106.843671320668,-46.0517280842298,-3.57061112382689
1580421530.57349,-101.899748226139,-42.877851529717,-2.41092545967808
1580421530.57748,-95.6740672922867,-40.0701915007248,-1.25123979552905
1580421530.58147,-88.9600976577401,-37.3235675593196,0.091554131380235
1580421530.58547,-81.2695506218051,-34.1496910048068,1.25123979552905
1580421530.58946,-72.9686427100023,-30.3044174868389,2.83817807278547
1580421530.59345,-63.7521934843976,-26.2149996185244,4.18097199969475
1580421530.59745,-53.1929503318838,-22.1255817502097,5.52376592660403
1580421530.60144,-41.7181658655682,-17.9140917067216,6.68345159075307
1580421530.60543,-29.1447318226901,-14.1298542763409,7.59899290455473
1580421530.60943,-16.1440451667047,-10.3456168459602,8.45349813076973
1580421530.61342,-3.02128633554594,-6.62241550316617,8.88075074387734
1580421530.61741,9.4911116197452,-3.20439459830618,9.12489509422448
1580421530.62141,20.7827878233004,-0.213626306553806,9.18593118181116
1580421530.6254,30.9147783627068,2.22781719691761,9.30800335698473
1580421530.62939,39.7039749752039,4.05889982452118,9.24696726939806
1580421530.63338,47.0283054856181,5.34065766384379,9.36903944457163
1580421530.63738,53.1929503318834,6.13412680247188,9.4300755321583
1580421530.64137,58.6861982146943,6.37827115281902,9.73525597009234
1580421530.64536,63.3859769588771,6.01205462729831,10.1625085831997
1580421530.64936,66.9871061264976,5.27962157625689,10.8339055466545
1580421530.65335,69.7947661554895,4.05889982452118,11.5663385976959
1580421530.65734,71.4427405203328,2.65506981002522,12.2987716487373
1580421530.66134,71.8699931334404,0.946059357595232,12.9701686121919
1580421530.66533,71.137560082399,-1.0070954451819,13.3974212252995
1580421530.66932,69.3064774547952,-3.44853894865332,13.7026016632333
1580421530.67332,66.8039978637371,-5.88998245212474,13.6415655756466
1580421530.67731,63.0807965209433,-8.02624551766235,13.3363851377126
1580421530.68131,58.8082703898676,-9.4911116197452,12.7870603494316
1580421530.6853,53.9864194705119,-10.5287251087204,12.359807736324
1580421530.68929,48.7373159380481,-11.2001220721752,11.9935912108033
1580421530.69329,42.7557793545432,-11.505302510109,11.810482948043
1580421530.69728,35.3093766689553,-12.1766994735638,11.7494468604561
1580421530.70127,26.2149996185244,-13.9467460135804,11.2001220721752
1580421530.70526,15.2895399404897,-16.3881895170518,10.7728694590676
1580421530.70925,4.24200808728165,-18.5244525825894,9.91836423285258
1580421530.71325,-4.8523689631495,-19.8062104219118,8.88075074387734
1580421530.71724,-11.0170138094147,-20.6607156481268,7.90417334248878
1580421530.72124,-14.0077821011673,-21.0879682612344,6.92759594110021
1580421530.72523,-14.6181429770352,-21.210040436408,6.07309071488521
1580421530.72922,-14.2519264515145,-21.2710765239947,5.40169375143046
1580421530.73321,-13.3363851377126,-21.210040436408,4.91340505073617
1580421530.73721,-11.810482948043,-20.2944991226061,4.66926070038903
1580421530.7412,-9.18593118181116,-18.341344319829,4.42511635004189
1580421530.7452,-5.58480201419093,-15.228503852903,4.66926070038903
1580421530.74919,-1.31227588311594,-11.0780498970016,5.34065766384379
1580421530.75318,2.65506981002522,-5.52376592660403,6.13412680247188
1580421530.75718,5.76791027695117,0.823987182421661,7.35484855420759
1580421530.76117,7.72106507972831,7.29381246662092,8.39246204318306
1580421530.76516,8.33142595559616,13.4584573128861,9.4911116197452
1580421530.76916,8.6366063935302,18.5854886701761,10.7118333714809
1580421530.77315,8.5755703059433,21.8814373998625,11.5663385976959
1580421530.77714,8.20935378042259,22.9800869764247,12.2987716487373
1580421530.78114,6.74448767833974,22.4307621881437,12.7870603494316
1580421530.78516,3.44853894865332,20.4165712977797,13.3974212252995
1580421530.78915,-2.28885328450451,18.1582360570687,13.7636377508202
1580421530.79314,-9.91836423285258,16.083009079118,14.1908903639276
1580421530.79714,-17.9751277943083,14.4960708018616,14.6181429770352
1580421530.80113,-25.6046387426566,13.5805294880597,15.4116121156633
1580421530.80512,-31.2199588006408,13.0312046997788,16.5712977798123
1580421530.80912,-33.7224383916991,12.6039520866711,18.341344319829
1580421530.81311,-32.1355001144427,11.9325551232166,21.210040436408
1580421530.8171,-25.3604943923094,10.650797283894,25.0553139543754
1580421530.8211,-15.228503852903,8.39246204318306,29.3888761730373
1580421530.82509,-4.36408026245522,4.42511635004189,33.8445105668725
1580421530.82908,4.97444113832307,-1.8616006713969,37.9949645227739
1580421530.83308,9.79629205767901,-9.30800335698473,40.9246967269396
1580421530.83707,7.96520943007545,-16.0219729915311,42.2674906538489
1580421530.84106,-1.49538414587619,-21.0879682612344,42.3895628290225
1580421530.84506,-16.6933699549859,-22.1866178377966,41.7792019531546
1580421530.84905,-34.332799267567,-17.5478751812009,41.1078049897001
1580421530.85305,-51.4229037918669,-6.62241550316617,39.948119325551
1580421530.85704,-65.1560234988938,8.14831769283592,37.6287479972532
1580421530.86103,-73.7010757610437,23.8956282902266,34.027618829633
1580421530.86502,-75.5321583886473,40.0091554131379,29.6330205233844
1580421530.86901,-68.757152666514,55.329213397421,25.5436026550697
1580421530.87301,-53.8643472953383,66.9871061264976,23.2852674143587
1580421530.877,-34.0276188296332,72.1751735713742,24.0177004654001
1580421530.88099,-15.1674677653161,72.0531013962009,27.5577935454337
1580421530.88499,-3.02128633554594,69.428549629969,32.9289692530708
1580421530.88898,0.152590218966907,66.3767452506295,39.2767223620965
1580421530.89297,-4.54718852521546,62.9587243457695,46.1738002594032
1580421530.89697,-16.0219729915311,58.1368734264133,53.9864194705119
1580421530.90096,-32.3796444647899,52.7046616311891,61.249713893339
1580421530.90495,-48.9814602883955,49.7138933394367,66.6819256885638
1580421530.90895,-60.1510643167774,50.7515068284119,69.062333104448
1580421530.91294,-62.5925078202488,55.2681773098343,68.3299000534066
1580421530.91694,-58.1368734264133,61.0055695429919,65.5222400244147
1580421530.92093,-51.2397955291067,65.0949874113071,61.9821469443805
1580421530.92492,-43.4271763179981,65.8274204623485,57.648584725719
1580421530.92892,-34.8821240558482,64.9729152361338,51.5449759670405
1580421530.93291,-24.6890974288547,66.2546730754561,44.1596093690393
1580421530.9369,-13.214312962539,69.6726939803161,36.5911345082779
1580421530.9409,-0.885023270008332,73.0907148851761,30.1823453116654
1580421530.94491,11.9325551232166,74.2504005493251,25.6656748302432
1580421530.94891,25.1773861295489,73.3348592355233,23.1021591515982
1580421530.9529,37.6287479972532,70.9544518196385,22.2476539253832
1580421530.9569,48.0659189745934,68.5740444037538,22.7359426260775
1580421530.96089,54.0474555580986,66.6208896009766,23.6514839398794
1580421530.96488,54.1084916456853,66.4377813382166,24.9332417792018
1580421530.96888,48.8593881132219,69.7947661554895,26.2149996185244
1580421530.97287,42.6947432669565,77.9736018921189,27.1305409323261
1580421530.97686,41.3519493400472,90.4859998474099,27.1305409323261
1580421530.98086,49.3476768139162,104.585336079957,26.8863965819789
1580421530.98485,65.5222400244147,117.097734035248,26.8253604943923
1580421530.98884,84.260318913558,125.032425421531,27.6188296330204
1580421530.99284,98.2986190585184,126.985580224308,29.6940566109711
1580421530.99683,102.204928664073,123.994811932555,32.5627527275501
1580421531.00082,95.0637064164189,118.196383611811,35.1262684061951
1580421531.00482,79.1943236438547,111.360341802091,36.530098420691
1580421531.00881,60.0289921416033,104.646372167544,36.2859540703439
1580421531.0128,40.9857328145265,98.4817273212789,33.9665827420461
1580421531.0168,23.4073395895323,93.2936598764022,30.1213092240787
1580421531.02079,7.53795681696806,89.3873502708479,25.6656748302432
1580421531.02478,-6.43930724040592,86.4576180666822,21.6372930495154
1580421531.02877,-17.2426947432668,84.260318913558,19.0737773708704
1580421531.03277,-23.7125200274661,83.2837415121694,18.5244525825894
1580421531.03676,-25.6656748302432,83.7720302128637,19.4399938963911
1580421531.04075,-24.0787365529868,85.9082932784008,21.3931486991683
1580421531.04475,-19.9893186846723,89.4483863584346,23.8956282902266
1580421531.04874,-15.0453955901426,93.7819485770965,26.337071793698
1580421531.05273,-9.97940032043948,97.7492942702374,28.6564431219958
1580421531.05673,-5.7068741893645,100.801098649576,30.6706340123596
1580421531.06072,-2.7771419851988,102.754253452354,32.1355001144425
1580421531.06471,-1.61745632104976,103.913939116503,32.9900053406575
1580421531.06871,-1.25123979552905,104.280155642024,33.2341496910046
1580421531.0727,-0.457770656900948,104.585336079957,33.0510414282444
1580421531.0767,1.12916762035547,105.073624780652,32.5627527275501
1580421531.08069,3.81475547417404,105.683985656519,31.8303196765087
1580421531.08468,7.47692072938116,106.599526970321,30.8537422751201
1580421531.08868,11.5663385976959,107.392996108949,29.3888761730373
1580421531.09267,15.777828641184,108.369573510338,27.8019378957808
1580421531.09666,19.9282825970854,109.529259174487,26.337071793698
1580421531.10066,23.7125200274661,110.627908751049,24.8722056916151
1580421531.10464,27.191577019913,111.421377889677,23.4073395895323
1580421531.10864,29.9382009613182,112.336919203479,22.064545662623
1580421531.11263,32.3796444647896,113.191424429694,20.4165712977797
1580421531.11662,34.2107270923932,113.923857480735,18.646524757763
1580421531.12062,35.0041962310215,114.41214618143,16.9985503929197
1580421531.12461,35.4924849317158,114.961470969711,15.4726482032502
1580421531.1286,35.2483405813687,115.510795757992,13.9467460135804
1580421531.1326,34.3327992675668,116.243228809034,12.7260242618447
1580421531.13659,33.6614023041122,116.975661860075,11.7494468604561
1580421531.14059,33.6614023041122,118.074311436637,11.0780498970016
1580421531.14458,34.5769436179139,119.661249713894,10.7118333714809
1580421531.14857,37.0183871213853,121.614404516671,10.7118333714809
1580421531.15257,40.9246967269396,124.177920195315,11.2611581597619
1580421531.15656,45.3803311207751,127.168688487068,12.359807736324
1580421531.16055,49.2256046387424,129.671168078126,13.9467460135804
1580421531.16455,51.6670481422138,131.563286793316,15.6557564660104
1580421531.16854,52.3384451056686,132.784008545052,17.486839093614
1580421531.17253,51.2397955291062,134.004730296788,18.9517051956968
1580421531.17653,48.1879911497672,134.737163347829,19.9282825970854
1580421531.18052,44.3427176317996,135.286488136111,20.1724269474325
1580421531.18454,40.6195162890058,136.263065537499,19.9893186846723
1580421531.18853,36.8352788586251,137.788967727169,18.0361638818952
1580421531.19253,33.4172579537651,139.803158617533,15.5947203784237
1580421531.19652,31.0978866254673,141.023880369268,14.3129625391011
1580421531.20051,29.8161287861446,141.573205157549,12.4208438239109
1580421531.20451,28.7174792095825,141.084916456855,11.9325551232166
1580421531.2085,27.6798657206073,140.718699931334,7.66002899214163
1580421531.21249,26.9474326695658,140.413519493401,1.61745632104976
1580421531.21649,23.5294117647059,140.596627756161,10.5287251087204
1580421531.22048,16.3881895170518,140.962844281682,15.228503852903
1580421531.22447,8.6366063935302,135.835812924392,16.632333867399
1580421531.22847,2.04470893415737,130.464637216754,16.8154421301595
1580421531.23246,-3.87579156176093,127.168688487068,16.632333867399
1580421531.23645,-10.3456168459602,123.750667582208,16.3881895170518
1580421531.24045,-16.5712977798123,120.332646677348,16.2661173418783
1580421531.24444,-22.4917982757304,117.891203173876,16.0219729915311
1580421531.24844,-27.4967574578468,116.487373159381,16.0219729915311
1580421531.25243,-30.4875257495994,115.632867933165,16.2050812542916
1580421531.25642,-32.0134279392691,114.717326619364,16.6933699549859
1580421531.26042,-32.9900053406577,113.069352254521,17.486839093614
1580421531.2644,-34.1496910048068,110.261692225528,18.4634164950025
1580421531.2684,-35.492484931716,106.904707408255,19.5620660715647
1580421531.27239,-37.201495384146,103.669794766156,20.8438239108873
1580421531.27638,-38.2391088731213,101.472495613031,22.2476539253832
1580421531.28038,-37.6287479972534,99.275196459907,23.773556115053
1580421531.28437,-34.9431601434349,96.7727168688489,25.482566567483
1580421531.28836,-29.8771648737315,93.5378042267494,27.191577019913
1580421531.29236,-23.3463035019454,90.3028915846494,28.4733348592354
1580421531.29635,-15.8999008163576,87.678339818418,29.2057679102768
1580421531.30035,-8.14831769283592,85.7251850156408,29.4499122606239
1580421531.30434,-0.762951094834762,84.3213550011446,28.9616235599296
1580421531.30833,6.80552376592664,83.1616693369956,27.7409018081939
1580421531.31233,14.4350347142747,82.3682001983675,25.9708552681773
1580421531.31632,22.7359426260775,81.4526588845656,23.6514839398794
1580421531.32031,31.9523918516823,80.1709010452432,21.0879682612344
1580421531.32431,41.2909132524603,78.3398184176394,18.4023804074159
1580421531.3283,49.2866407263291,75.8373388265813,15.5336842908368
1580421531.33229,53.8643472953381,72.7855344472423,13.0922407873654
1580421531.33629,53.8643472953381,69.0012970168614,11.1390859845883
1580421531.34028,49.8359655146105,64.301518272679,9.73525597009234
1580421531.34427,42.9999237048903,58.8082703898676,8.88075074387734
1580421531.34826,35.9807736324101,53.4370946822305,8.20935378042259
1580421531.35225,30.1823453116654,49.042496375982,7.7821011673152
1580421531.35625,26.2760357061111,45.7465476462958,7.11070420386045
1580421531.36024,24.2618448157473,42.4505989166094,6.19516289005878
1580421531.36424,24.1397726405737,38.9105058365758,5.7068741893645
1580421531.36823,25.7267109178301,35.3093766689553,5.27962157625689
1580421531.37222,28.9616235599296,32.0134279392689,4.73029678797593
1580421531.37622,33.1120775158311,28.9616235599296,4.30304417486832
1580421531.38021,37.3235675593194,25.6046387426566,3.75371938658736
1580421531.3842,41.0467689021132,21.5762569619287,3.32646677347975
1580421531.3882,43.6713206683451,16.8764782177461,2.7771419851988
1580421531.39219,46.0517280842296,11.6273746852826,2.16678110933094
1580421531.39618,48.1269550621805,6.43930724040592,1.67849240863666
1580421531.40018,49.7138933394367,1.37331197070262,1.25123979552905
1580421531.40417,50.3852903028915,-3.81475547417404,0.640878919661191
1580421531.40816,49.9580376897839,-9.12489509422448,0.213626306553806
1580421531.41216,48.7983520256348,-15.4726482032502,-0.396734569314049
1580421531.41615,47.94384679942,-22.3697261005568,-1.31227588311594
1580421531.42015,48.3710994125277,-29.0226596475165,-2.7771419851988
1580421531.42416,50.9956511787591,-35.3704127565425,-5.21858548867021
1580421531.42816,55.8175020981153,-42.1454184786755,-8.6366063935302
1580421531.43215,62.9587243457695,-49.5918211642634,-12.6039520866711
1580421531.43614,71.3817044327461,-58.7472343022812,-16.4492256046387
1580421531.44014,79.0112153810942,-68.8792248416876,-20.4165712977797
1580421531.44413,83.2227054245823,-79.316395819028,-24.322880903334
1580421531.44812,82.9785610742351,-88.8380254825665,-28.1071183337147
1580421531.45212,79.5605401693751,-97.3830777447167,-31.4030670634013
1580421531.45611,74.006256198978,-105.012588693065,-34.637979705501
1580421531.4601,66.0715648126957,-112.214847028305,-37.9339284351875
1580421531.4641,55.4512855725948,-119.966430151827,-41.5960936903946
1580421531.46809,41.5350576028075,-127.534905012589,-45.5024032959489
1580421531.47209,24.8111696040282,-134.065766384375,-50.019073777371
1580421531.47608,8.5755703059433,-142.732890821698,-55.146105134661
1580421531.48007,-2.96025024795904,-154.207675288014,-60.3952086671245
1580421531.48407,-8.69764248111687,-165.072098878462,-66.4988174258031
1580421531.48806,-10.1014724956131,-171.908140688182,-73.3958953231097
1580421531.49205,-7.66002899214163,-175.326161593042,-80.6591897459373
1580421531.49605,-1.8616006713969,-177.8286411841,-87.861448081178
1580421531.50004,5.58480201419093,-180.025940337224,-94.2702372777906
1580421531.50403,15.4116121156633,-182.040131227588,-99.5193408102541
1580421531.50802,28.7174792095825,-183.199816891737,-102.327000839246
1580421531.51201,46.4179446097503,-183.13878080415,-102.021820401312
1580421531.51601,68.8181887541009,-183.13878080415,-98.725871671626
1580421531.52,93.8429846646832,-184.176394293126,-92.133974212253
1580421531.524,117.83016708629,-186.312657358663,-82.8564888990616
1580421531.52799,136.507209887846,-187.167162584878,-71.5037766079195
1580421531.53198,148.165102616922,-183.321889066911,-58.9913786526283
1580421531.53598,151.216906996262,-176.852063782712,-45.9906919966431
1580421531.53997,144.319829098955,-171.969176775769,-32.6848249027239
1580421531.54396,127.718013275349,-169.771877622645,-19.501029983978
1580421531.54796,104.951552605478,-170.931563286793,-6.68345159075307
1580421531.55195,80.0488288700694,-172.945754177157,5.03547722590974
1580421531.55594,55.5123216601814,-175.814450293736,15.228503852903
1580421531.55994,33.4172579537651,-180.025940337224,23.2852674143587
1580421531.56393,15.5336842908368,-184.48157473106,28.6564431219958
1580421531.56792,3.99786373693451,-188.876173037308,31.7692835889218
1580421531.57192,-0.823987182421661,-192.355230029755,32.3796444647896
1580421531.57591,-0.885023270008332,-193.514915693904,30.1213092240787
1580421531.57991,0.762951094834762,-192.172121766995,25.4215304798961
1580421531.58392,1.80056458381023,-188.876173037308,19.6841382467383
1580421531.58792,1.19020370794237,-184.84779125658,14.8012512397954
1580421531.59191,-1.19020370794237,-181.734950789654,11.2001220721752
1580421531.5959,-5.34065766384379,-180.575265125505,8.94178683146401
1580421531.5999,-10.5897611963073,-180.697337300679,7.41588464179449
1580421531.60389,-15.228503852903,-180.331120775158,6.56137941557949
1580421531.60788,-17.2426947432668,-179.110399023423,6.31723506523235
1580421531.61188,-15.4726482032502,-177.64553292134,6.5003433279926
1580421531.61587,-10.5287251087204,-175.75341420615,7.11070420386045
1580421531.61986,-3.93682764934761,-174.22751201648,7.84313725490188
1580421531.62386,1.67849240863666,-172.274357213703,8.81971465629044
1580421531.62785,5.03547722590974,-169.832913710231,9.79629205767901
1580421531.63184,6.25619897764545,-166.536964980545,10.8949416342411
1580421531.63584,5.7068741893645,-163.057907988098,11.9935912108033
1580421531.63983,4.60822461280236,-159.639887083238,12.6039520866711
1580421531.64383,4.05889982452118,-156.771190966659,12.6039520866711
1580421531.64782,4.42511635004189,-154.573891813535,12.2377355611504
1580421531.65181,6.01205462729831,-152.925917448692,11.2001220721752
1580421531.65581,8.14831769283592,-152.132448310063,9.24696726939806
1580421531.6598,10.3456168459602,-151.766231784542,6.62241550316617
1580421531.66379,11.8715190356297,-151.400015259022,3.69268329900046
1580421531.66778,12.4818799114976,-151.033798733501,0.823987182421661
1580421531.67177,12.0546272983902,-150.423437857633,-1.67849240863666
1580421531.67577,10.955977721828,-149.813076981765,-3.75371938658736
1580421531.67976,8.94178683146401,-149.080643930724,-5.34065766384379
1580421531.68375,6.43930724040592,-148.165102616922,-5.7068741893645
1580421531.68775,3.02128633554594,-147.127489127947,-5.88998245212474
1580421531.69174,-1.55642023346309,-145.845731288624,-5.46272983901736
1580421531.69574,-7.35484855420759,-144.380865186542,-4.7913328755626
1580421531.69973,-14.5571068894483,-142.610818646525,-4.30304417486832
1580421531.70372,-22.9800869764247,-140.4135194934,-3.63164721141379
1580421531.70772,-32.8068970778975,-137.422751201648,-3.50957503624022
1580421531.71171,-43.1219958800641,-133.943694209201,-3.44853894865332
1580421531.7157,-53.6812390325781,-129.427023727779,-3.81475547417404
1580421531.7197,-64.1184100099183,-123.689631494621,-4.24200808728165
1580421531.72369,-74.4335088120852,-117.097734035248,-4.66926070038903
1580421531.72768,-84.1992828259708,-109.712367437247,-4.91340505073617
1580421531.73168,-93.6598764019225,-101.960784313726,-5.15754940108332
1580421531.73567,-103.120469977875,-94.0260929274434,-5.27962157625689
1580421531.73966,-113.191424429694,-86.2745098039215,-5.34065766384379
1580421531.74365,-123.811703669795,-78.6449988555732,-5.46272983901736
1580421531.74764,-134.737163347829,-71.3817044327459,-5.58480201419093
1580421531.75164,-145.784695201037,-64.8508430609597,-5.58480201419093
1580421531.75563,-156.527046616312,-59.0524147402152,-5.58480201419093
1580421531.75963,-166.04867627985,-53.6202029449912,-5.46272983901736
1580421531.76362,-173.617151140612,-48.1269550621805,-5.27962157625689
1580421531.76761,-178.744182497902,-42.328526741436,-5.40169375143046
1580421531.77161,-180.758373388266,-36.1028458075839,-5.46272983901736
1580421531.7756,-179.53765163653,-29.4499122606239,-5.40169375143046
1580421531.77959,-175.020981155108,-22.7969787136644,-5.40169375143046
1580421531.78359,-167.452506294347,-16.3881895170518,-4.91340505073617
1580421531.78758,-157.564660105287,-10.4676890211338,-3.93682764934761
1580421531.79157,-145.601586938277,-4.60822461280236,-2.59403372243833
1580421531.79557,-131.50225070573,0.885023270008332,-0.70191500724809
1580421531.79956,-115.877012283513,5.21858548867021,1.67849240863666
1580421531.80356,-98.420691233692,8.75867856870377,4.48615243762879
1580421531.80755,-79.6215762569618,11.810482948043,7.29381246662092
1580421531.81154,-59.8458838788433,15.228503852903,9.85732814526591
1580421531.81553,-38.9715419241627,19.9893186846723,12.0546272983902
1580421531.81953,-17.6089112687876,26.5812161440451,14.1908903639276
1580421531.82355,3.87579156176093,33.6614023041122,16.5712977798123
1580421531.82754,24.9942778667887,40.4364080262453,18.8296330205233
1580421531.83153,45.2582589456015,45.1361867704279,21.1490043488211
1580421531.83553,64.7898069733733,46.8451972228579,23.9566643778132
1580421531.83952,83.1616693369956,45.6855115587089,26.8863965819789
1580421531.84351,99.8245212481879,43.0609597924772,30.3044174868389
1580421531.84751,114.473182269016,40.2532997634851,34.027618829633
1580421531.8515,128.08422980087,37.384603646906,37.8728923476003
1580421531.85549,141.084916456855,34.6990157930875,42.0233463035017
1580421531.85949,154.695963988708,33.1120775158311,46.2958724345767
1580421531.86348,167.696650644693,31.464103150988,49.8970016021972
1580421531.86748,177.401388570992,30.2433813992523,52.9488059815362
1580421531.87147,179.72075989929,30.5485618371861,54.1084916456853
1580421531.87546,169.527733272297,32.6848249027237,53.4370946822305
1580421531.87946,144.441901274128,36.2859540703439,51.1787594415196
1580421531.88345,106.904707408255,40.0701915007246,48.3710994125277
1580421531.88744,63.9963378347452,43.0609597924772,45.929655909056
1580421531.89144,23.4073395895323,44.0985732814524,44.7089341573203
1580421531.89543,-10.1625085831997,42.3895628290225,44.4647898069732
1580421531.89942,-35.3704127565425,37.6897840848401,45.0141145952543
1580421531.90341,-52.6436255436026,31.0978866254673,45.7465476462958
1580421531.9074,-64.0573739223316,25.1773861295489,45.8075837338824
1580421531.9114,-69.916838330663,22.1255817502097,44.8920424200808
1580421531.91539,-70.3440909437704,21.8814373998625,42.511635004196
1580421531.91939,-66.6819256885633,22.613870450904,39.2156862745096
1580421531.92338,-59.6627756160831,21.210040436408,34.9431601434346
1580421531.92737,-51.2397955291067,15.9609369039445,30.1213092240787
1580421531.93137,-42.4505989166096,7.84313725490188,25.2384222171358
1580421531.93536,-33.1120775158313,-1.73952849622333,20.355535210193
1580421531.93935,-23.0411230640116,-11.3832303349354,15.4116121156633
1580421531.94335,-13.2753490501259,-20.7217517357137,10.955977721828
1580421531.94734,-4.42511635004189,-29.2057679102768,7.04966811627378
1580421531.95133,3.32646677347975,-36.7742427710384,3.63164721141379
1580421531.95533,9.97940032043948,-42.2064545662624,0.946059357595232
1580421531.95932,15.5947203784237,-46.7841611352712,-1.19020370794237
1580421531.96331,21.210040436408,-49.1035324635691,-2.41092545967808
1580421531.96731,28.1681544213016,-47.2114137483788,-3.44853894865332
1580421531.9713,38.6053253986418,-42.877851529717,-4.11993591210808
1580421531.97529,53.1319142442967,-37.3235675593196,-3.99786373693451
1580421531.97929,68.6350804913409,-26.9474326695658,-2.16678110933094
1580421531.98334,75.2880140383004,-9.79629205767901,2.28885328450451
1580421531.98733,62.8366521705962,10.2845807583733,10.1625085831997
1580421531.99132,32.9289692530708,30.4264896620125,21.3931486991683
1580421531.99532,-2.10574502174404,47.3334859235522,34.7600518806744
1580421531.99931,-28.1681544213016,57.0992599374376,48.3710994125277
1580421532.0033,-37.5677119096667,57.1602960250248,59.90691996643
1580421532.0073,-35.9197375448234,50.6904707408253,66.55985351339
1580421532.01129,-32.5017166399634,43.4271763179979,66.8650339513238
1580421532.01529,-32.1355001144427,39.3377584496832,60.5172808422976
1580421532.01928,-34.4548714427406,38.9105058365758,48.9814602883953
1580421532.02327,-36.4080262455177,41.5960936903944,36.8963149462118
1580421532.02727,-35.8587014572367,46.9672693980315,30.2433813992523
1580421532.03126,-34.2107270923934,53.4981307698176,31.1589227130539
1580421532.03525,-35.3093766689556,57.0992599374376,36.7742427710382
1580421532.03925,-41.9623102159153,54.77988860914,42.511635004196
1580421532.04324,-53.0708781567103,48.8593881132219,45.3192950331882
1580421532.04723,-66.193636987869,41.2298771648736,43.9765011062789
1580421532.05123,-79.4995040817882,31.9523918516823,38.1780727855344
1580421532.05522,-92.0119020370794,23.0411230640116,28.4122987716487
1580421532.05921,-101.289387350271,18.7685969329366,15.3505760280766
1580421532.0632,-103.852903028916,21.6372930495154,0.885023270008332
1580421532.06719,-95.4299229419396,29.9992370489051,-12.9091325246052
1580421532.07119,-72.6024261844816,40.5584802014189,-23.9566643778132
1580421532.07518,-36.041809719997,50.0190737773705,-31.4030670634013
1580421532.07918,7.29381246662092,56.7330434119172,-34.8821240558482
1580421532.08317,46.7231250476843,61.4328221560995,-34.7600518806746
1580421532.08716,72.297245746548,66.1326009002823,-31.8913557640956
1580421532.09116,80.7812619211109,72.5413900968952,-27.4967574578468
1580421532.09515,77.7294575417718,81.9409475852599,-22.3697261005568
1580421532.09914,71.8699931334404,93.4157320515756,-17.792019531548
1580421532.10314,70.6492713817047,105.073624780652,-12.8480964370183
1580421532.10713,76.0204470893418,114.778362706951,-6.5003433279926
1580421532.11112,83.9551384756237,120.881971465629,1.9226367589838
1580421532.11512,86.6407263294423,122.224765392538,12.6039520866711
1580421532.11911,78.7060349431604,119.356069275959,24.322880903334
1580421532.1231,60.7003891050581,114.473182269016,35.5535210193025
1580421532.1271,39.2767223620965,109.956511787595,44.2816815442129
1580421532.13109,19.9282825970854,106.965743495842,49.4697489890896
1580421532.13508,6.01205462729831,105.745021744106,51.4229037918667
1580421532.13908,-2.59403372243833,105.745021744106,51.36186770428
1580421532.14307,-7.29381246662092,105.928130006866,50.2632181277177
1580421532.14706,-10.8339055466545,105.806057831693,48.3710994125277
1580421532.15105,-15.228503852903,105.439841306172,45.9906919966429
1580421532.15505,-21.3931486991683,105.134660868238,43.8544289311053
1580421532.15904,-27.191577019913,105.195696955825,42.0843823910886
1580421532.16303,-31.0978866254673,106.477454795148,40.7415884641794
1580421532.16703,-31.7082475013353,108.674753948272,39.093614099336
1580421532.17102,-29.2668039978637,112.275883115892,36.9573510337987
1580421532.17501,-24.628061341268,116.731517509728,34.1496910048065
1580421532.17901,-18.8296330205233,121.126115815976,30.5485618371861
1580421532.183,-13.0312046997788,125.093461509117,26.5201800564582
1580421532.187,-8.08728160524902,127.962157625696,22.5528343633173
1580421532.19099,-4.42511635004189,129.915312428473,18.5854886701761
1580421532.19498,-2.04470893415737,130.708781567102,15.1064316777295
1580421532.19897,-0.0305180437933359,131.136034180209,12.359807736324
1580421532.20297,1.80056458381023,131.258106355383,10.4676890211338
1580421532.20696,4.30304417486832,131.380178530556,9.4911116197452
1580421532.21096,6.86655985351331,131.624322880903,9.4300755321583
1580421532.21495,9.67421988250544,131.990539406424,10.2235446707866
1580421532.21894,11.7494468604561,132.661936369879,11.5663385976959
1580421532.22296,13.7636377508202,133.577477683681,13.0922407873654
1580421532.22695,15.228503852903,134.431982909895,14.8012512397954
1580421532.23095,17.486839093614,135.408560311284,16.4492256046387
1580421532.23494,19.9893186846723,136.62928206302,17.9751277943083
1580421532.23893,22.5528343633173,137.605859464408,19.1348134584573
1580421532.24293,24.4449530785075,138.399328603036,20.1113908598459
1580421532.24692,25.0553139543754,139.314869916838,20.1724269474325
1580421532.25092,24.8722056916151,139.803158617533,16.632333867399
1580421532.25491,24.1397726405737,140.23041123064,9.85732814526591
1580421532.2589,26.4591439688716,140.474555580987,-17.0595864805066
1580421532.2629,28.1681544213016,137.239642938888,-13.519493400473
1580421532.26689,23.4073395895323,151.644159609369,6.68345159075307
1580421532.27088,18.2192721446554,150.545510032807,14.923323414969
1580421532.27488,14.9843595025559,141.573205157549,19.195849546044
1580421532.27887,13.3974212252995,141.878385595483,21.5152208743418
1580421532.28286,12.664988174258,144.075684748608,22.7359426260775
1580421532.28686,12.4208438239109,143.770504310673,23.5904478522925
1580421532.29085,12.4818799114976,143.343251697566,23.3463035019454
1580421532.29484,13.2753490501259,142.610818646525,22.064545662623
1580421532.29884,15.0453955901426,140.535591668574,19.9282825970854
1580421532.30283,17.3037308308537,138.277256427863,17.6699473563745
1580421532.30682,19.8672465094987,136.079957274739,15.5336842908368
1580421532.31081,22.5528343633173,134.554055085069,13.5805294880597
1580421532.31481,25.3604943923094,134.126802471962,11.8715190356297
1580421532.3188,28.7785152971694,134.309910734722,10.5897611963073
1580421532.32279,32.6237888151368,134.859235523003,9.85732814526591
1580421532.32679,35.8587014572365,136.079957274739,9.97940032043948
1580421532.33078,37.2625314717325,137.422751201648,10.8339055466545
1580421532.33477,35.8587014572365,138.155184252689,12.5429159990845
1580421532.33877,31.1589227130539,138.460364690623,14.8012512397954
1580421532.34276,24.4449530785075,137.850003814755,17.486839093614
1580421532.34675,17.486839093614,136.018921187152,20.8438239108873
1580421532.35075,11.7494468604561,132.967116807813,24.628061341268
1580421532.35474,7.04966811627378,128.999771114672,28.5343709468223
1580421532.35873,2.59403372243833,124.544136720836,31.8913557640954
1580421532.36273,-2.59403372243833,120.149538414588,34.2107270923932
1580421532.36672,-7.59899290455473,117.036697947662,35.3704127565422
1580421532.37071,-11.4442664225223,114.778362706951,35.5535210193025
1580421532.37471,-13.2753490501259,112.520027466239,35.0041962310215
1580421532.3787,-12.4208438239109,109.407186999314,34.2717631799801
1580421532.38269,-9.36903944457163,105.683985656519,33.0510414282444
1580421532.38668,-3.99786373693451,101.350423437858,31.2809948882275
1580421532.39068,3.81475547417404,96.9558251316093,28.5343709468223
1580421532.39467,13.6415655756466,91.9508659494927,24.628061341268
1580421532.39866,22.9800869764247,86.2134737163351,19.3789578088044
1580421532.40266,28.8395513847561,80.2929732204166,13.8246738384069
1580421532.40665,29.755092698558,74.0672922865647,8.20935378042259
1580421532.41065,26.5201800564582,68.0857557030595,3.75371938658736
1580421532.41464,21.1490043488211,62.4704356450748,0.640878919661191
1580421532.41863,15.5336842908368,56.7330434119172,-0.885023270008332
1580421532.42262,11.1390859845883,50.6294346532386,-1.31227588311594
1580421532.42662,7.84313725490188,45.0141145952543,-0.823987182421661
1580421532.43061,6.37827115281902,40.5584802014189,0.152590218966907
1580421532.43461,7.17174029144735,36.9573510337987,1.43434805828952
1580421532.4386,10.4676890211338,33.7834744792858,2.53299763485165
1580421532.44259,15.5336842908368,30.1823453116654,3.20439459830618
1580421532.44659,21.3931486991683,26.3981078812847,3.32646677347975
1580421532.45058,27.0084687571525,21.9424734874494,2.89921416037237
1580421532.45457,31.9523918516823,16.5102616922254,1.9226367589838
1580421532.45857,36.2249179827572,10.2845807583733,0.51880674448762
1580421532.46258,40.6805523765925,3.69268329900046,-1.31227588311594
1580421532.46658,45.3192950331882,-3.32646677347975,-3.38750286106665
1580421532.47057,48.9204242008086,-11.1390859845883,-5.6458381017776
1580421532.47457,50.5683985656519,-19.5620660715647,-8.14831769283592
1580421532.47856,50.6294346532386,-28.1071183337147,-10.7728694590676
1580421532.48255,49.9580376897839,-36.7742427710384,-13.7636377508202
1580421532.48655,49.5307850766762,-45.1972228580148,-17.1206225680933
1580421532.49054,50.7515068284119,-53.6812390325781,-20.2334630350194
1580421532.49453,54.7188525215533,-62.5314717326619,-23.5294117647059
1580421532.49853,60.2731364919505,-73.1517509727626,-27.0695048447394
1580421532.50252,63.9353017471581,-85.7251850156404,-30.8537422751201
1580421532.50651,64.301518272679,-99.1531242847334,-35.0041962310218
1580421532.51051,62.1042191195543,-110.81101701381,-39.1546501869232
1580421532.5145,58.9913786526281,-118.928816662852,-43.4271763179981
1580421532.51849,55.6343938353548,-123.994811932555,-47.6386663614862
1580421532.52249,52.5215533684291,-129.97634851606,-51.6060120546274
1580421532.52648,48.9814602883953,-139.620050354772,-55.6343938353552
1580421532.53047,43.7933928435186,-150.179293507286,-59.7848477912567
1580421532.53447,37.0794232089722,-159.334706645304,-64.4235904478523
1580421532.53846,30.2433813992523,-167.696650644694,-69.4895857175554
1580421532.54245,24.8111696040282,-175.631342030976,-74.9828336003661
1580421532.54644,21.4541847867551,-184.969863431754,-80.9643701838711
1580421532.55044,19.8672465094987,-193.514915693904,-86.8238345922025
1580421532.55443,18.7075608453497,-198.764019226368,-91.5846494239718
1580421532.55842,16.937514305333,-199.069199664302,-94.5143816281377
1580421532.56242,15.1064316777295,-197.909514000153,-95.2468146791791
1580421532.56641,15.3505760280766,-198.214694438087,-93.2936598764018
1580421532.5704,19.6231021591516,-199.557488364996,-89.570458533608
1580421532.5744,30.1823453116654,-199.130235751888,-84.3823910887311
1580421532.57839,47.4555580987258,-196.932936598764,-77.9736018921187
1580421532.58238,69.3675135423823,-191.31761654078,-70.2830548561838
1580421532.58638,92.5612268253608,-182.894636453803,-61.4938582436866
1580421532.59037,113.984893568322,-176.974135957885,-51.9111924925612
1580421532.59436,127.046616311894,-174.715800717174,-41.5350576028077
1580421532.59836,126.37521934844,-173.311970702678,-29.8771648737315
1580421532.60235,112.153810940719,-171.969176775769,-17.486839093614
1580421532.60635,88.7159533073932,-173.617151140612,-6.13412680247188
1580421532.61034,62.4704356450748,-178.866254673075,3.50957503624022
1580421532.61433,37.6897840848401,-186.37369344625,11.1390859845883
1580421532.61833,17.486839093614,-194.186312657359,16.4492256046387
1580421532.62234,2.53299763485165,-201.022354467079,20.2944991226061
1580421532.62634,-9.30800335698473,-207.370107576104,22.919050888838
1580421532.63033,-20.1724269474325,-213.473716334783,23.9566643778132
1580421532.63433,-30.9758144502937,-216.037232013428,22.7359426260775
1580421532.63832,-40.7415884641796,-213.53475242237,19.1348134584573
1580421532.64231,-46.6620889600977,-207.858396276799,13.8857099259938
1580421532.64631,-46.8451972228581,-201.022354467079,8.02624551766235
1580421532.6503,-40.5584802014191,-194.73563744564,3.38750286106665
1580421532.65429,-28.7174792095825,-189.79171435111,0.51880674448762
1580421532.65829,-13.0922407873654,-184.908827344167,-0.213626306553806
1580421532.66228,4.48615243762879,-179.659723811704,0.274662394140478
1580421532.66627,21.9424734874494,-174.105439841306,1.80056458381023
1580421532.67027,36.6521705958646,-167.940794995041,3.75371938658736
1580421532.67426,46.784161135271,-162.142366674296,5.76791027695117
1580421532.67825,52.1553368429081,-157.259479667353,7.53795681696806
1580421532.68225,54.2305638208591,-153.047989623865,8.88075074387734
1580421532.68624,55.329213397421,-149.263752193484,9.55214770733187
1580421532.69023,56.8551155870905,-146.028839551385,9.55214770733187
1580421532.69423,59.2965590905619,-143.099107347219,8.94178683146401
1580421532.69822,62.4704356450748,-140.535591668574,7.84313725490188
1580421532.70221,65.2170595864809,-138.582436865797,6.5003433279926
1580421532.7062,67.3533226520181,-136.934462500954,4.8523689631495
1580421532.7102,68.5130083161671,-135.469596398871,3.02128633554594
1580421532.71419,68.6961165789276,-133.821622034028,1.25123979552905
1580421532.71818,68.1467917906466,-132.295719844358,-0.51880674448762
1580421532.72218,66.8650339513238,-130.830853742275,-1.80056458381023
1580421532.72617,64.4846265354395,-129.060807202258,-2.22781719691761
1580421532.73016,61.0055695429919,-127.290760662242,-2.34988937209118
1580421532.73416,56.0006103608757,-125.459678034638,-1.61745632104976
1580421532.73815,49.1645685511558,-123.750667582208,-0.823987182421661
1580421532.74214,40.5584802014189,-122.163729304952,0.152590218966907
1580421532.74614,29.8771648737315,-120.515754940108,1.0681315327688
1580421532.75013,17.2426947432668,-119.233997100786,1.9226367589838
1580421532.75412,2.7161058976119,-118.074311436637,2.41092545967808
1580421532.75812,-13.8246738384069,-116.426337071794,2.47196154726475
1580421532.76211,-31.8303196765089,-113.923857480735,2.28885328450451
1580421532.7661,-50.7515068284124,-110.444800488289,1.9226367589838
1580421532.7701,-69.7947661554895,-105.745021744106,1.31227588311594
1580421532.77409,-88.4718089570458,-100.007629510948,0.640878919661191
1580421532.77809,-106.721599145495,-93.2936598764018,0.091554131380235
1580421532.78207,-124.238956282902,-86.0303654535744,-0.213626306553806
1580421532.78607,-141.268024719615,-78.5229266803997,-0.579842832074519
1580421532.79006,-157.625696192874,-71.320668345159,-0.823987182421661
1580421532.79405,-173.189898527505,-64.9118791485466,-1.49538414587619
1580421532.79805,-187.106126497292,-60.1510643167774,-3.20439459830618
1580421532.80204,-199.496452277409,-56.6109712367438,-5.15754940108332
1580421532.80604,-210.29983978027,-53.8033112077517,-7.11070420386045
1580421532.81003,-219.394216830701,-51.6670481422141,-9.00282291905091
1580421532.81402,-226.779583428702,-49.9580376897841,-10.8339055466545
1580421532.81801,-231.845578698405,-49.0424963759824,-12.2987716487373
1580421532.82201,-233.310444800488,-48.3710994125277,-12.7260242618447
1580421532.826,-229.831387808042,-47.3334859235524,-11.6273746852826
1580421532.83,-220.859082932784,-44.892042420081,-9.4911116197452
1580421532.83399,-206.027313649195,-39.8870832379646,-6.86655985351331
1580421532.83798,-185.519188220035,-30.8537422751201,-3.69268329900046
1580421532.84198,-158.175020981155,-17.792019531548,-0.0305180437933359
1580421532.84597,-122.224765392538,0.51880674448762,3.75371938658736
1580421532.84996,-77.1190966659037,22.1866178377966,8.27038986800949
1580421532.85396,-25.2384222171358,42.5726710917829,13.4584573128861
1580421532.85795,28.2902265964751,59.0524147402148,19.9893186846723
1580421532.86197,77.3022049286642,70.0389105058366,27.9850461585411
1580421532.86596,118.562600137331,75.4100862134737,37.2014953841458
1580421532.86996,151.827267872129,77.1190966659037,47.5165941863124
1580421532.87395,178.744182497902,77.3022049286642,58.0758373388262
1580421532.87794,201.937895780881,79.1943236438547,68.2688639658199
1580421532.88194,223.361562523842,83.4668497749294,76.8139162279699
1580421532.88593,243.503471427482,88.3497367818723,83.5278858625165
1580421532.88992,259.433890287632,90.4859998474099,88.5328450446327
1580421532.89392,266.086823834592,87.861448081178,91.0353246356908
1580421532.89791,256.198977645533,81.7578393224994,90.6691081101703
1580421532.9019,217.746242465858,71.6868848706799,87.7393759060046
1580421532.9059,142.671854734112,55.4512855725948,82.9785610742351
1580421532.90989,45.075150682841,32.8679331654839,78.2177462424661
1580421532.91388,-45.1361867704281,10.2845807583733,75.0438696879532
1580421532.91788,-108.064393072404,-5.88998245212474,73.3348592355233
1580421532.92187,-139.436942092012,-15.0453955901426,72.1141374837875
1580421532.92586,-144.319829098955,-20.7217517357137,70.771343556878
1580421532.92986,-132.234683756771,-24.3839169909209,69.7947661554895
1580421532.93385,-114.106965743496,-23.3463035019454,68.1467917906466
1580421532.93784,-97.1389333943696,-14.8012512397954,64.6677347981995
1580421532.94183,-82.1240558480201,-1.0070954451819,58.6861982146943
1580421532.94583,-67.4753948271916,12.2377355611504,50.4463263904781
1580421532.94982,-52.2163729304953,18.8296330205233,40.8636606393529
1580421532.95381,-36.4080262455177,14.2519264515145,30.4875257495994
1580421532.95781,-22.5528343633173,0.70191500724809,19.3789578088044
1580421532.9618,-12.2377355611504,-15.1064316777295,8.08728160524902
1580421532.96579,-4.7913328755626,-30.9758144502937,-3.14335851071951
1580421532.96979,0.335698481727377,-46.9062333104448,-14.2519264515145
1580421532.97378,3.20439459830618,-62.1042191195545,-25.4215304798961
1580421532.97777,3.02128633554594,-74.0062561989776,-35.9197375448234
1580421532.98177,-1.98367284657047,-77.6684214541847,-43.8544289311055
1580421532.98576,-13.1532768749523,-67.2922865644312,-47.7607385366598
1580421532.98975,-30.8537422751201,-43.0609597924774,-46.4789806973374
1580421532.99375,-52.6436255436026,-13.8246738384069,-39.3377584496834
1580421532.99774,-75.6542305638209,13.7636377508202,-25.4215304798961
1580421533.00174,-97.6882581826505,35.6755931944761,-5.46272983901736
1580421533.00573,-116.731517509728,48.0048828870067,17.3647669184404
1580421533.00972,-130.037384603647,48.6152437628748,38.6663614862287
1580421533.01372,-133.821622034028,40.4974441138322,54.2305638208591
1580421533.01771,-124.238956282902,29.5109483482108,62.0431830319676
1580421533.02173,-101.777676050965,21.5762569619287,62.4704356450748
1580421533.02572,-69.3064774547952,21.9424734874494,58.0758373388262
1580421533.02971,-35.4314488441291,31.0368505378804,52.5215533684291
1580421533.03371,-10.8949416342411,43.9154650186922,51.1177233539329
1580421533.0377,-4.48615243762879,53.2539864194705,57.4044403753719
1580421533.0417,-17.1206225680933,57.3434042877848,66.3157091630428
1580421533.04569,-37.8728923476006,57.0992599374376,69.9778744182499
1580421533.04968,-56.6109712367438,53.9253833829248,68.0857557030595
1580421533.05368,-73.0907148851759,50.3242542153048,62.2873273823147
1580421533.05767,-87.5562676432439,45.6244754711222,52.4605172808419
1580421533.06166,-101.716639963378,38.239108873121,38.1780727855344
1580421533.06566,-117.769130998703,32.2575722896161,20.6607156481268
1580421533.06965,-133.821622034028,32.2575722896161,3.14335851071951
1580421533.07364,-144.197756923781,37.6897840848401,-10.2235446707866
1580421533.07764,-141.93942168307,44.7699702449072,-17.1816586556802
1580421533.08163,-124.483100633249,52.0332646677348,-17.5478751812009
1580421533.08562,-95.7961394674603,59.6017395284962,-12.7260242618447
1580421533.08962,-62.0431830319676,67.1091783016709,-3.69268329900046
1580421533.09361,-29.2668039978637,75.7763027389947,7.35484855420759
1580421533.0976,-0.579842832074519,87.678339818418,17.792019531548
1580421533.10159,24.4449530785075,103.669794766156,24.0177004654001
1580421533.10559,50.0190737773705,122.163729304952,24.2008087281604
1580421533.10958,82.6123445487146,140.596627756161,18.2192721446554
1580421533.11357,125.825894560159,158.297093156329,8.08728160524902
1580421533.11757,176.668955519951,173.311970702678,-2.65506981002522
1580421533.12156,221.774624246586,182.284275577935,-10.650797283894
1580421533.12555,240.207522697795,179.415579461356,-11.810482948043
1580421533.12955,216.342412451362,162.996871900511,-4.48615243762879
1580421533.13354,155.794613565271,141.878385595483,9.61318379491877
1580421533.13753,81.5136949721523,125.154497596704,23.6514839398794
1580421533.14153,19.195849546044,115.632867933165,30.9758144502937
1580421533.14552,-17.5478751812009,111.055161364156,31.5861753261615
1580421533.14951,-33.9055466544596,108.979934386206,30.5485618371861
1580421533.15351,-41.4129854276341,105.439841306172,30.9758144502937
1580421533.1575,-48.0659189745938,99.5193408102541,32.2575722896161
1580421533.16149,-57.0382238498512,93.4767681391622,33.7834744792858
1580421533.16549,-67.4753948271916,90.1197833218894,35.3704127565422
1580421533.16948,-76.0814831769283,90.3028915846494,37.6897840848401
1580421533.17348,-79.6215762569618,93.4767681391622,40.802624551766
1580421533.17747,-76.8139162279697,98.5427634088655,43.9765011062789
1580421533.18146,-68.5740444037538,104.585336079957,46.4789806973372
1580421533.18545,-56.5499351491569,110.627908751049,47.7607385366596
1580421533.18944,-42.3895628290227,116.060120546273,47.5165941863124
1580421533.19344,-27.191577019913,120.637827115282,46.1127641718165
1580421533.19743,-12.2987716487373,124.361028458076,43.8544289311053
1580421533.20142,1.8616006713969,127.718013275349,40.9857328145265
1580421533.20542,14.068818188754,130.525673304341,37.4456397344929
1580421533.20941,24.7501335164416,133.21126115816,33.3562218661782
1580421533.2134,34.6379797055008,135.408560311284,28.5954070344089
1580421533.2174,43.8544289311053,136.995498588541,23.5294117647059
1580421533.22139,53.5591668574043,138.52140077821,14.7402151522087
1580421533.22539,63.3859769588771,138.643472953383,8.75867856870377
1580421533.22938,73.0907148851761,139.742122529946,3.75371938658736
1580421533.23337,84.1992828259708,141.634241245136,-17.5478751812009
1580421533.23737,93.2326237888151,137.666895551995,-22.4307621881437
1580421533.24136,93.5378042267494,148.653391317616,0.885023270008332
1580421533.24535,95.0637064164189,150.545510032807,9.97940032043948
1580421533.24935,96.5896086060884,144.441901274128,16.0219729915311
1580421533.25334,98.7869077592127,145.906767376211,19.6231021591516
1580421533.25733,100.556954299229,149.446860456245,22.6749065384909
1580421533.26135,101.350423437858,152.01037613489,26.7032883192187
1580421533.26535,101.045242999924,154.207675288014,30.7316700999465
1580421533.26934,99.7634851606012,156.466010528725,34.7600518806744
1580421533.27333,97.9324025329979,155.489433127336,37.3235675593194
1580421533.27733,94.7585259784851,153.658350499733,38.239108873121
1580421533.28132,89.3873502708479,152.071412222476,37.2014953841458
1580421533.28531,81.5136949721523,150.48447394522,34.5159075303272
1580421533.28931,71.3206683451594,147.676813916228,30.2433813992523
1580421533.2933,59.1744869153886,143.6484321355,25.2994583047225
1580421533.29729,45.3192950331882,138.887617303731,20.4165712977797
1580421533.30129,31.7692835889218,133.39436942092,16.2661173418783
1580421533.30528,19.6231021591516,127.718013275349,13.0312046997788
1580421533.30927,10.0404364080262,122.529945830472,10.7118333714809
1580421533.31327,2.96025024795904,117.708094911116,9.30800335698473
1580421533.31726,-2.41092545967808,113.252460517281,7.96520943007545
1580421533.32125,-7.35484855420759,109.224078736553,6.80552376592664
1580421533.32525,-12.7260242618447,105.745021744106,5.52376592660403
1580421533.32924,-18.4023804074159,103.059433890288,4.42511635004189
1580421533.33324,-23.6514839398794,100.862134737164,3.63164721141379
1580421533.33723,-27.0084687571525,99.2141603723203,3.14335851071951
1580421533.34122,-27.4967574578468,97.8713664454108,2.96025024795904
1580421533.34521,-25.2384222171358,96.8337529564355,3.32646677347975
1580421533.3492,-21.2710765239947,96.0402838178074,4.11993591210808
1580421533.3532,-16.2661173418783,95.6740672922865,5.15754940108332
1580421533.35719,-11.9325551232166,96.5896086060884,6.43930724040592
1580421533.36118,-8.27038986800949,98.3596551461051,8.02624551766235
1580421533.36518,-6.01205462729831,100.495918211643,9.85732814526591
1580421533.36917,-5.27962157625689,102.082856488899,11.8715190356297
1580421533.37316,-6.5003433279926,103.120469977875,13.8246738384069
1580421533.37716,-8.75867856870377,103.364614328222,15.777828641184
1580421533.38115,-11.3221942473488,102.754253452354,17.6089112687876
1580421533.38514,-13.8246738384069,101.716639963378,19.3789578088044
1580421533.38914,-15.3505760280766,100.617990386816,21.2710765239947
1580421533.39313,-15.9609369039445,99.7024490730146,23.3463035019454
1580421533.39713,-15.4726482032502,98.3596551461051,25.5436026550697
1580421533.40112,-14.4960708018616,96.7727168688489,27.8629739833675
1580421533.40511,-13.0922407873654,95.1247425040056,30.0602731364918
1580421533.40911,-11.3832303349354,93.7819485770965,32.0744640268558
1580421533.4131,-8.51453421835663,92.6222629129475,33.9055466544594
1580421533.41709,-4.11993591210808,91.0963607232779,35.0652323186082
1580421533.42108,2.28885328450451,88.8380254825665,35.6755931944761
1580421533.42507,11.2611581597619,85.7862211032275,35.3093766689553
1580421533.42907,23.2852674143587,82.3071641107808,33.8445105668725
1580421533.43306,36.8963149462118,79.4995040817885,30.9147783627068
1580421533.43705,49.8970016021972,76.9970244907304,26.7032883192187
1580421533.44105,60.5783169298847,74.1283283741514,21.3931486991683
1580421533.44504,67.9026474402995,70.4661631189442,15.777828641184
1580421533.44904,71.7479209582666,65.7053482871752,10.1625085831997
1580421533.45303,72.846570534829,59.6627756160829,5.46272983901736
1580421533.45702,71.9920653086137,52.6436255436024,1.98367284657047
1580421533.46102,69.6726939803161,45.3803311207751,-0.274662394140478
1580421533.46501,66.3157091630428,38.3611810482946,-1.25123979552905
1580421533.469,62.1042191195543,31.8303196765087,-1.49538414587619
1580421533.473,56.6720073243305,25.3604943923094,-1.12916762035547
1580421533.47699,50.9956511787591,19.3179217212175,-0.335698481727377
1580421533.48098,45.4413672083617,14.373998626688,0.579842832074519
1580421533.48498,40.8636606393529,10.3456168459602,1.49538414587619
1580421533.48897,37.5066758220796,5.76791027695117,2.28885328450451
1580421533.49296,35.6755931944761,0.0305180437933359,2.83817807278547
1580421533.49696,34.6990157930875,-6.68345159075307,2.83817807278547
1580421533.50098,33.6003662165253,-14.0077821011673,2.28885328450451
1580421533.50497,31.464103150988,-22.0035095750361,1.0681315327688
1580421533.50896,29.6330205233844,-30.7316700999465,-0.396734569314049
1580421533.51296,30.1823453116654,-41.5350576028077,-2.34988937209118
1580421533.51695,34.5159075303272,-54.4136720836195,-4.48615243762879
1580421533.52094,40.6805523765925,-68.0247196154726,-7.35484855420759
1580421533.52494,45.6244754711222,-80.8422980086975,-11.0170138094147
1580421533.52893,46.9672693980315,-92.8053711757075,-15.7167925535973
1580421533.53292,46.5400167849239,-104.036011291676,-20.4165712977797
1580421533.53692,46.0517280842296,-116.609445334554,-25.2384222171358
1580421533.54091,44.8920424200808,-129.915312428473,-30.7927061875332
1580421533.5449,42.3895628290225,-140.352483405814,-37.6897840848403
1580421533.5489,39.8260471503775,-146.456092164492,-45.5024032959489
1580421533.55289,41.7792019531546,-149.507896543832,-53.6812390325781
1580421533.55689,48.3100633249405,-152.803845273518,-61.6769665064469
1580421533.56088,52.1553368429081,-157.747768368048,-69.1844052796216
1580421533.56487,49.042496375982,-164.278629739834,-76.0204470893416
1580421533.56887,39.7039749752039,-172.640573739223,-81.9409475852597
1580421533.57286,30.3654535744258,-181.795986877241,-86.8238345922025
1580421533.57685,27.4967574578468,-189.852750438697,-90.3028915846494
1580421533.58084,31.0978866254673,-195.162890058747,-92.4391546501868
1580421533.58483,38.8494697489889,-197.787441824979,-93.3546959639887
1580421533.58883,48.7983520256348,-198.1536583505,-93.2936598764018
1580421533.59282,60.2731364919505,-197.848477912566,-92.5001907377737
1580421533.59681,73.7010757610437,-196.62775616083,-90.5470359349965
1580421533.60081,89.5094224460213,-195.10185397116,-87.5562676432439
1580421533.6048,105.86709391928,-193.698023956664,-83.5278858625161
1580421533.60879,121.309224078736,-190.829327840085,-78.2177462424659
1580421533.61279,135.408560311284,-186.129549095903,-71.8699931334402
1580421533.61678,148.104066529335,-180.086976424811,-64.2404821850919
1580421533.62078,158.480201419089,-174.593728542,-54.5967803463798
1580421533.62477,163.424124513619,-169.832913710231,-42.2064545662624
1580421533.62876,160.616464484626,-165.987640192264,-26.8863965819789
1580421533.63276,149.507896543832,-163.546196688792,-9.30800335698473
1580421533.63675,130.464637216754,-164.644846265355,9.24696726939806
1580421533.64074,104.34119172961,-169.161516746777,26.4591439688716
1580421533.64474,73.5790035858704,-175.997558556497,40.0701915007246
1580421533.64873,41.9623102159151,-184.603646906233,48.6152437628748
1580421533.65272,13.5805294880597,-193.514915693904,50.9956511787591
1580421533.65672,-9.12489509422448,-201.815823605707,46.8451972228579
1580421533.66074,-25.9098191805904,-207.614251926452,37.9339284351872
1580421533.66473,-37.6287479972534,-210.849164568551,26.337071793698
1580421533.66872,-43.9154650186924,-212.436102845807,14.8622873273823
1580421533.67272,-44.037537193866,-212.130922407874,5.6458381017776
1580421533.67671,-38.4222171358817,-209.140154116121,-0.274662394140478
1580421533.6807,-29.4499122606239,-204.013122758831,-3.02128633554594
1580421533.6847,-19.1348134584573,-198.275730525673,-3.02128633554594
1580421533.68869,-8.94178683146401,-192.965590905623,-1.19020370794237
1580421533.69268,0.274662394140478,-188.815136949722,1.55642023346309
1580421533.69668,7.90417334248878,-185.946440833143,4.66926070038903
1580421533.70067,12.8480964370183,-184.054322117952,7.66002899214163
1580421533.70466,14.6791790646218,-182.467383840696,9.79629205767901
1580421533.70866,13.5805294880597,-180.880445563439,11.2001220721752
1580421533.71265,11.0170138094147,-178.927290760662,11.6273746852826
1580421533.71665,8.45349813076973,-176.668955519951,11.3832303349354
1580421533.72064,7.23277637903402,-174.166475928893,10.8339055466545
1580421533.72463,8.39246204318306,-171.786068513008,10.1625085831997
1580421533.72862,11.3221942473488,-169.710841535058,9.30800335698473
1580421533.73262,16.0219729915311,-167.513542381933,8.27038986800949
1580421533.73661,22.1255817502097,-164.950026703288,6.92759594110021
1580421533.7406,29.3888761730373,-162.08133058671,5.46272983901736
1580421533.74459,36.9573510337987,-158.907454032197,3.63164721141379
1580421533.74859,44.0985732814524,-156.038757915617,1.80056458381023
1580421533.75258,50.0801098649576,-152.986953536278,0.152590218966907
1580421533.75657,54.0474555580986,-149.874113069352,-1.61745632104976
1580421533.76057,55.6954299229419,-147.005416952773,-2.7771419851988
1580421533.76456,54.2305638208591,-144.380865186542,-3.32646677347975
1580421533.76855,49.4697489890896,-142.244602121004,-3.75371938658736
1580421533.77255,41.2298771648736,-140.4135194934,-3.87579156176093
1580421533.77654,29.8161287861446,-138.70450904097,-3.26543068589308
1580421533.78053,15.3505760280766,-136.873426413367,-2.83817807278547
1580421533.78453,-0.823987182421661,-135.28648813611,-2.53299763485165
1580421533.78852,-18.2803082322423,-133.333333333333,-2.22781719691761
1580421533.79252,-36.4690623331046,-131.013962005035,-2.47196154726475
1580421533.79651,-54.291599908446,-127.901121538109,-2.53299763485165
1580421533.8005,-71.5037766079195,-123.872739757382,-2.7161058976119
1580421533.8045,-87.861448081178,-119.050888838025,-2.83817807278547
1580421533.80849,-102.876325627527,-113.557640955215,-2.89921416037237
1580421533.81248,-116.975661860075,-107.698176546883,-2.89921416037237
1580421533.81648,-130.342565041581,-101.167315175097,-2.96025024795904
1580421533.82046,-143.526359960327,-94.2092011902039,-2.83817807278547
1580421533.82446,-156.649118791486,-86.7017624170289,-2.89921416037237
1580421533.82845,-169.344625009537,-78.8891432059204,-3.32646677347975
1580421533.83244,-181.002517738613,-71.2596322575723,-4.05889982452118
1580421533.83644,-191.256580453193,-64.3625543602654,-5.03547722590974
1580421533.84043,-199.557488364996,-57.8316929884795,-6.01205462729831
1580421533.84443,-205.539024948501,-51.9111924925612,-7.17174029144735
1580421533.84842,-208.712901503014,-46.2958724345769,-8.33142595559616
1580421533.85241,-209.323262378882,-41.0467689021134,-9.30800335698473
1580421533.85641,-207.125963225757,-36.1638818951706,-10.1014724956131
1580421533.8604,-202.426184481575,-31.5861753261618,-10.1014724956131
1580421533.86439,-194.9187457084,-27.1305409323261,-9.4300755321583
1580421533.86839,-184.420538643473,-22.613870450904,-7.47692072938116
1580421533.87238,-170.80949111162,-17.6699473563745,-4.54718852521546
1580421533.87637,-154.451819638361,-12.7870603494316,-0.70191500724809
1580421533.88037,-136.263065537499,-7.72106507972831,4.36408026245522
1580421533.88436,-116.914625772488,-2.7771419851988,10.2845807583733
1580421533.88835,-96.8337529564355,1.19020370794237,16.0219729915311
1580421533.89235,-77.0580605783168,4.73029678797593,20.5996795605402
1580421533.89634,-58.9913786526283,9.4911116197452,24.6890974288547
1580421533.90036,-43.4271763179981,16.3271534294652,28.5954070344089
1580421533.90435,-30.3044174868389,24.8722056916151,31.5861753261615
1580421533.90835,-17.4258030060273,34.4548714427403,33.7224383916989
1580421533.91234,-0.579842832074519,44.220645456626,34.2107270923932
1580421533.91633,23.5904478522925,53.07087815671,33.9055466544594
1580421533.92033,56.3057907988095,60.2121004043638,33.9665827420461
1580421533.92432,95.4909590295265,64.4846265354395,35.1873044937818
1580421533.92831,136.690318150606,66.8650339513238,37.7508201724268
1580421533.93231,175.448233768215,68.3299000534066,41.4740215152208
1580421533.9363,209.140154116121,69.428549629969,44.7089341573203
1580421533.94029,237.399862668803,69.9168383306633,47.089341573205
1580421533.94429,259.983215075913,67.170214389258,48.9814602883953
1580421533.94828,272.495613031205,60.2731364919505,51.4229037918667
1580421533.95228,262.424658579385,48.6762798504615,54.9629968719005
1580421533.95627,215.487907225147,33.2341496910046,57.8316929884791
1580421533.96026,133.699549858854,19.9893186846723,58.2589456015867
1580421533.96426,42.9999237048903,18.1582360570687,56.6720073243305
1580421533.96825,-29.2057679102768,29.9992370489051,54.4747081712062
1580421533.97224,-77.7294575417716,43.6713206683451,51.4229037918667
1580421533.97624,-109.346150911727,45.0141145952543,47.2724498359653
1580421533.98022,-130.525673304341,32.0134279392689,43.366140230411
1580421533.98422,-143.221179522393,13.519493400473,40.6195162890058
1580421533.98821,-147.493705653467,-0.823987182421661,38.9105058365758
1580421533.9922,-142.366674296178,-7.11070420386045,36.7742427710382
1580421533.9962,-129.915312428473,-5.76791027695117,33.0510414282444
1580421534.00019,-114.045929655909,1.25123979552905,28.1071183337147
1580421534.00418,-98.4817273212789,10.7118333714809,22.5528343633173
1580421534.00818,-83.6499580376897,17.486839093614,17.1206225680933
1580421534.01217,-69.062333104448,18.4023804074159,12.7870603494316
1580421534.01617,-54.6578164339667,12.6039520866711,9.4911116197452
1580421534.02016,-41.5960936903946,0.640878919661191,7.29381246662092
1580421534.02415,-31.2809948882277,-13.6415655756466,5.09651331349664
1580421534.02815,-25.482566567483,-28.2902265964751,2.96025024795904
1580421534.03214,-23.5904478522925,-44.2206454566262,0.885023270008332
1580421534.03613,-20.050354772259,-56.7330434119174,0.640878919661191
1580421534.04013,-6.43930724040592,-63.5080491340505,2.65506981002522
1580421534.04412,21.4541847867551,-68.3299000534066,5.6458381017776
1580421534.04811,56.9161516746776,-66.7429617761502,8.51453421835663
1580421534.05211,83.9551384756237,-55.9395742732891,9.67421988250544
1580421534.0561,90.0587472343022,-38.1780727855346,9.30800335698473
1580421534.06012,68.0247196154728,-4.18097199969475,9.85732814526591
1580421534.06411,34.3938353551537,44.7089341573203,13.8857099259938
1580421534.06811,17.486839093614,91.8287937743194,22.4917982757304
1580421534.0721,26.4591439688716,116.975661860075,35.9807736324101
1580421534.07609,48.493171587701,111.116197451744,54.0474555580986
1580421534.08009,60.0289921416033,80.0488288700694,78.5839627679866
1580421534.08408,41.5960936903944,39.2156862745096,107.087815671016
1580421534.08807,-13.0312046997788,9.12489509422448,129.060807202258
1580421534.09207,-88.8990615701532,-2.83817807278547,131.746395056077
1580421534.09606,-157.198443579767,-1.0070954451819,109.28511482414
1580421534.10005,-188.937209124895,10.2235446707866,70.8934157320518
1580421534.10405,-172.640573739223,22.613870450904,37.6897840848401
1580421534.10804,-124.727244983597,31.0978866254673,25.4215304798961
1580421534.11204,-83.8330663004501,25.6656748302432,29.4499122606239
1580421534.11603,-68.757152666514,15.5336842908368,35.6755931944761
1580421534.12002,-69.5506218051423,6.86655985351331,35.6145571068894
1580421534.12401,-78.8891432059204,0.335698481727377,26.5201800564582
1580421534.12801,-99.7024490730146,-3.99786373693451,8.5755703059433
1580421534.132,-128.206301976043,-6.86655985351331,-14.1298542763409
1580421534.136,-155.001144426642,-7.41588464179449,-37.201495384146
1580421534.13998,-169.954985885405,-4.36408026245522,-56.9161516746776
1580421534.14398,-166.659037155718,0.396734569314049,-71.3817044327459
1580421534.14797,-142.000457770657,2.83817807278547,-79.6215762569618
1580421534.15196,-100.55695429923,3.14335851071951,-81.3305867093918
1580421534.15596,-52.5215533684291,4.24200808728165,-76.3866636148623
1580421534.15995,-9.67421988250544,9.73525597009234,-65.0949874113069
1580421534.16394,18.7075608453497,23.2852674143587,-49.3476768139162
1580421534.16794,33.6614023041122,45.3803311207751,-33.1731136034182
1580421534.17193,44.7089341573203,71.9310292210271,-19.3179217212175
1580421534.17593,65.461203936828,98.9089799343865,-8.51453421835663
1580421534.17992,103.303578240635,126.253147173266,0.335698481727377
1580421534.18391,153.71938658732,151.094834821088,8.27038986800949
1580421534.18791,195.223926146334,164.644846265354,17.486839093614
1580421534.1919,198.397802700847,158.236057068742,30.6706340123596
1580421534.19589,155.245288776989,136.079957274739,47.5776302738993
1580421534.19989,90.730144197757,112.275883115892,63.0807965209433
1580421534.20388,34.5159075303272,97.016861219196,71.9310292210271
1580421534.20787,1.0681315327688,91.3405050736251,74.006256198978
1580421534.21187,-13.5805294880597,92.2560463874265,71.2596322575723
1580421534.21586,-20.1113908598459,93.1715877012284,65.7663843747619
1580421534.21985,-23.4073395895323,90.4249637598232,59.2355230029752
1580421534.22384,-27.3746852826732,85.7251850156408,52.7656977187762
1580421534.22783,-32.3796444647899,82.3071641107808,48.0048828870067
1580421534.23183,-35.8587014572367,82.3071641107808,45.7465476462958
1580421534.23582,-34.9431601434349,85.969329365988,46.1738002594032
1580421534.23982,-29.0226596475165,92.439154650187,48.1879911497672
1580421534.24381,-18.4023804074159,100.373846036469,50.3852903028915
1580421534.2478,-5.21858548867021,109.346150911726,52.0943007553215
1580421534.2518,8.6366063935302,118.074311436637,52.5825894560157
1580421534.25579,21.8814373998625,125.459678034638,51.5449759670405
1580421534.25978,33.5393301289387,130.891889829862,48.8593881132219
1580421534.26378,42.8778515297167,134.493018997482,45.1972228580146
1580421534.26777,49.7749294270234,136.263065537499,40.9246967269396
1580421534.27176,54.8409246967267,136.995498588541,36.530098420691
1580421534.27576,58.747234302281,137.056534676127,32.5017166399632
1580421534.27975,62.3483634699014,136.81239032578,28.9616235599296
1580421534.28374,66.4988174258033,136.62928206302,26.2149996185244
1580421534.28774,70.588235294118,136.263065537499,24.1397726405737
1580421534.29173,73.8231479362175,136.202029449912,22.8580148012511
1580421534.29572,76.0204470893418,136.140993362325,22.3697261005568
1580421534.29974,77.0580605783171,136.446173800259,22.3086900129701
1580421534.30374,77.424277103838,137.422751201648,20.7827878233004
1580421534.30773,78.5839627679866,137.727931639582,13.8857099259938
1580421534.31172,80.9643701838713,138.704509040971,5.09651331349664
1580421534.31572,86.6407263294423,137.544823376822,-17.3647669184404
1580421534.31971,85.0537880521861,140.840772106508,5.46272983901736
1580421534.3237,80.476081483177,151.216906996262,20.6607156481268
1580421534.3277,77.3022049286642,143.221179522393,24.4449530785075
1580421534.33169,74.0672922865647,137.117570763714,27.3746852826732
1580421534.33569,71.137560082399,138.094148165103,28.1681544213016
1580421534.33968,68.2688639658199,138.033112077516,27.9850461585411
1580421534.34367,65.7053482871752,137.666895551995,26.7032883192187
1580421534.34766,63.14183260853,137.788967727169,25.3604943923094
1580421534.35166,60.5172808422976,138.033112077516,23.8956282902266
1580421534.35565,57.7096208133057,137.666895551995,21.9424734874494
1580421534.35965,54.7188525215533,137.239642938888,19.7451743343252
1580421534.36364,51.3008316166934,137.117570763714,17.1816586556802
1580421534.36763,48.0048828870067,137.239642938888,14.4960708018616
1580421534.37163,44.8310063324939,136.81239032578,11.9325551232166
1580421534.37562,41.657129777981,135.530632486458,9.4300755321583
1580421534.37961,38.3001449607079,133.699549858854,6.86655985351331
1580421534.3836,34.8210879682611,131.441214618143,4.66926070038903
1580421534.38759,31.0368505378804,129.121843289845,2.89921416037237
1580421534.39159,26.5201800564582,127.168688487068,1.49538414587619
1580421534.39558,21.6983291371023,125.581750209812,0.640878919661191
1580421534.39957,16.083009079118,124.361028458076,0.396734569314049
1580421534.40357,10.1014724956131,123.262378881514,0.640878919661191
1580421534.40756,3.50957503624022,122.224765392538,1.73952849622333
1580421534.41156,-3.14335851071951,121.187151903563,3.44853894865332
1580421534.41555,-9.00282291905091,120.027466239414,5.58480201419093
1580421534.41954,-13.0922407873654,118.928816662852,8.08728160524902
1580421534.42354,-14.6181429770352,117.83016708629,10.7728694590676
1580421534.42753,-13.8246738384069,117.097734035248,13.7026016632333
1580421534.43152,-11.3221942473488,116.792553597315,16.9985503929197
1580421534.43552,-8.14831769283592,116.365300984207,20.4776073853666
1580421534.43951,-5.27962157625689,115.388723582818,24.0787365529868
1580421534.4435,-3.50957503624022,114.59525444419,27.0695048447394
1580421534.4475,-2.53299763485165,113.984893568322,29.3888761730373
1580421534.45149,-1.8616006713969,113.252460517281,30.6706340123596
1580421534.45548,-0.885023270008332,112.031738765545,31.0978866254673
1580421534.45947,0.457770656900948,110.017547875181,30.4875257495994
1580421534.46347,2.28885328450451,107.392996108949,28.900587472343
1580421534.46746,5.34065766384379,104.097047379263,26.337071793698
1580421534.47145,9.85732814526591,100.434882124056,23.1021591515982
1580421534.47545,16.2661173418783,96.2844281681546,19.4399938963911
1580421534.47944,24.5059891660944,91.6456855115589,15.228503852903
1580421534.48343,33.9055466544594,86.4576180666822,11.2611581597619
1580421534.48743,43.4882124055846,80.9643701838713,7.53795681696806
1580421534.49142,52.0943007553215,75.3490501258871,4.36408026245522
1580421534.49541,59.0524147402148,69.7337300679028,2.22781719691761
1580421534.49941,64.1794460975052,64.9729152361338,1.0070954451819
1580421534.5034,67.9026474402995,61.0055695429919,0.274662394140478
1580421534.50739,70.588235294118,57.7096208133057,0.51880674448762
1580421534.51139,72.0531013962009,55.0240329594872,1.0070954451819
1580421534.51538,72.7244983596552,52.3994811932553,1.9226367589838
1580421534.51937,72.297245746548,49.5307850766762,2.89921416037237
1580421534.52337,70.9544518196385,46.4789806973372,3.93682764934761
1580421534.52736,68.2688639658199,43.2440680552374,5.03547722590974
1580421534.53135,64.7898069733733,38.6663614862287,5.95101853971164
1580421534.53535,60.5783169298847,33.173113603418,6.68345159075307
1580421534.5394,55.8785381857019,27.4967574578468,7.11070420386045
1580421534.54339,50.5683985656519,21.9424734874494,7.29381246662092
1580421534.54738,45.1361867704279,16.5102616922254,7.04966811627378
1580421534.55138,39.8260471503775,11.1390859845883,6.43930724040592
1580421534.55537,35.5535210193025,6.25619897764545,5.76791027695117
1580421534.55937,33.0510414282444,1.73952849622333,4.8523689631495
1580421534.56336,32.1965362020294,-2.7771419851988,3.99786373693451
1580421534.56735,32.9289692530708,-6.98863202868688,2.96025024795904
1580421534.57135,35.2483405813687,-11.3832303349354,1.8616006713969
1580421534.57534,39.7039749752039,-15.8388647287709,0.579842832074519
1580421534.57933,45.8686198214693,-21.1490043488211,-1.19020370794237
1580421534.58333,51.8501564049743,-27.191577019913,-3.50957503624022
1580421534.58732,56.1226825360491,-33.1120775158313,-6.5003433279926
1580421534.59131,57.7096208133057,-38.7884336614025,-9.4911116197452
1580421534.59531,56.8551155870905,-45.2582589456017,-11.8715190356297
1580421534.5993,55.6343938353548,-53.2539864194705,-13.5805294880597
1580421534.60329,54.1695277332719,-63.0197604333562,-14.4960708018616
1580421534.60729,51.7891203173876,-73.2127870603495,-15.0453955901426
1580421534.61128,47.8828107118331,-81.8188754100861,-15.777828641184
1580421534.61527,42.9999237048903,-87.7393759060044,-17.2426947432668
1580421534.61926,37.6287479972532,-93.5988403143358,-19.3179217212175
1580421534.62326,33.4172579537651,-100.679026474403,-21.8814373998625
1580421534.62725,30.4264896620125,-106.660563057908,-25.1773861295489
1580421534.63124,26.9474326695658,-111.238269626917,-29.5109483482108
1580421534.63524,23.5904478522925,-115.510795757992,-34.3938353551539
1580421534.63923,21.1490043488211,-119.53917753872,-39.8260471503777
1580421534.64322,21.759365224689,-123.933775844968,-45.746547646296
1580421534.64722,26.7643244068054,-129.854276340887,-51.4839398794538
1580421534.65121,36.0418097199968,-136.751354238193,-56.6109712367438
1580421534.6552,47.5776302738993,-143.038071259632,-61.1276417181659
1580421534.6592,60.2731364919505,-150.423437857633,-65.0339513237202
1580421534.66319,74.4335088120852,-158.66330968185,-67.4753948271916
1580421534.66718,89.0821698329137,-166.903181506065,-68.2688639658197
1580421534.67118,102.143892576486,-175.570305943389,-67.8416113527123
1580421534.67517,111.970702677958,-183.627069504845,-66.6819256885633
1580421534.67916,117.524986648356,-189.181353475242,-64.9729152361333
1580421534.68316,119.356069275959,-190.646219577325,-62.4093995574883
1580421534.68715,118.196383611811,-189.425497825589,-58.503089951934
1580421534.69115,116.243228809034,-186.495765621424,-52.6436255436026
1580421534.69514,115.388723582818,-181.490806439307,-44.892042420081
1580421534.69916,116.670481422141,-174.166475928893,-35.187304493782
1580421534.70315,120.149538414588,-165.743495841917,-23.3463035019454
1580421534.70714,124.177920195315,-157.991912718395,-9.79629205767901
1580421534.71114,126.192111085679,-152.37659266041,4.48615243762879
1580421534.71513,123.323414969101,-150.789654383154,17.6089112687876
1580421534.71913,113.191424429694,-153.597314412146,28.2902265964751
1580421534.72312,94.3923094529641,-158.907454032197,36.1028458075837
1580421534.72711,69.1233691920352,-164.522774090181,40.4974441138322
1580421534.7311,41.2298771648736,-168.795300221256,41.4129854276339
1580421534.7351,14.4960708018616,-171.236743724727,39.8260471503775
1580421534.73909,-9.36903944457163,-172.152285038529,36.1028458075837
1580421534.74309,-29.8161287861446,-172.152285038529,30.5485618371861
1580421534.74708,-47.0283054856184,-172.152285038529,24.1397726405737
1580421534.75107,-61.6769665064469,-172.51850156405,17.6699473563745
1580421534.75507,-74.3724727244983,-172.945754177157,11.505302510109
1580421534.75906,-84.9317158770123,-172.945754177157,6.07309071488521
1580421534.76305,-92.5612268253603,-172.152285038529,1.43434805828952
1580421534.76705,-96.2844281681546,-170.931563286793,-2.34988937209118
1580421534.77104,-96.4675364309148,-169.588769359884,-5.09651331349664
1580421534.77503,-93.9650568398567,-168.001831082628,-6.86655985351331
1580421534.77902,-91.0353246356908,-166.536964980545,-8.02624551766235
