Timestamp_seconds,Accel_X_g,Accel_Y_g,Accel_Z_g
1580421547.5913,-0.96559090562295,0.034424353398947,-0.270756084534982
1580421547.5953,-0.961684596017395,0.0407721065079727,-0.282475013351645
1580421547.59929,-0.950942244602121,0.044678416113527,-0.283939879453728
1580421547.60328,-0.951430533302815,0.0490730144197755,-0.292729076066225
1580421547.60728,-0.94850080109865,0.0520027466239412,-0.292240787365531
1580421547.61127,-0.949965667200733,0.0563973449301898,-0.289799343862059
1580421547.61526,-0.952895399404898,0.0573739223315783,-0.287357900358588
1580421547.61926,-0.952407110704204,0.0632333867399097,-0.286381322957199
1580421547.62325,-0.954360265506981,0.0642099641412983,-0.285893034256505
1580421547.62725,-0.950453955901427,0.0646982528419926,-0.282963302052339
1580421547.63124,-0.948012512397955,0.0588387884336612,-0.282475013351645
1580421547.63523,-0.952407110704204,0.0515144579232469,-0.279545281147479
1580421547.63925,-0.954848554207675,0.0461432822156098,-0.271732661936371
1580421547.64324,-0.963637750820173,0.0397955291065841,-0.263920042725262
1580421547.64724,-0.972915236133364,0.0354009308003356,-0.253665980010682
1580421547.65123,-0.977309834439613,0.0354009308003356,-0.249759670405126
1580421547.65523,-0.981704432745861,0.0407721065079727,-0.251224536507211
1580421547.65922,-0.993911650263218,0.0456549935149155,-0.262943465323874
1580421547.66321,-0.99977111467155,0.0549324788281069,-0.276127260242619
1580421547.66721,-1.00172426947433,0.0646982528419926,-0.293217364766919
1580421547.6712,-1.00514229037919,0.0729991607537954,-0.312260624093996
1580421547.67519,-1.0129549095903,0.0861829556725411,-0.327885862516213
1580421547.67919,-1.01832608529793,0.0983901731898982,-0.338139925230793
1580421547.68318,-1.02320897230488,0.103761348897535,-0.342534523537042
1580421547.68717,-1.02223239490349,0.112062256809338,-0.341069657434959
1580421547.69117,-1.01588464179446,0.11450370031281,-0.327885862516213
1580421547.69516,-1.0041657129778,0.114015411612115,-0.311284046692608
1580421547.69915,-0.994399938963912,0.113527122911421,-0.294682230869002
1580421547.70315,-0.990493629358358,0.109132524605172,-0.275638971541925
1580421547.70714,-0.981216144045167,0.099855039291981,-0.264408331425956
1580421547.71113,-0.975356679636835,0.0837415121690697,-0.251224536507211
1580421547.71513,-0.965102616922255,0.0681162737468526,-0.250247959105822
1580421547.71912,-0.957778286411841,0.0510261692225527,-0.242923628595406
1580421547.72311,-0.953871976806287,0.0334477759975584,-0.255130846112765
1580421547.7271,-0.947035934996567,0.0202639810788128,-0.261478599221791
1580421547.7311,-0.943617914091707,0.00903334096284425,-0.272220950637065
1580421547.73509,-0.94166475928893,0.00219729915312428,-0.286869611657893
1580421547.73908,-0.94508278019379,-0.0046387426565957,-0.299076829175251
1580421547.74308,-0.943617914091707,-0.00317387655451284,-0.304448004882888
1580421547.74707,-0.945571068894484,-0.00122072175173571,-0.320073243305105
1580421547.75106,-0.949477378500038,0.00366216525520713,-0.314702067597468
1580421547.75506,-0.955825131609064,0.0104982070649271,-0.320073243305105
1580421547.75905,-0.958266575112535,0.0192874036774242,-0.317143511100939
1580421547.76304,-0.964126039520867,0.0266117341878385,-0.315190356298162
1580421547.76704,-0.966079194323644,0.0368657969024184,-0.314213778896773
1580421547.77103,-0.964126039520867,0.0476081483176927,-0.316166933699551
1580421547.77502,-0.967055771725033,0.0568856336308841,-0.324467841611353
1580421547.77902,-0.962661173418784,0.0642099641412983,-0.32983901731899
1580421547.78301,-0.961684596017395,0.0744640268558783,-0.34009308003357
1580421547.78701,-0.95533684290837,0.0813000686655982,-0.353276874952316
1580421547.791,-0.951430533302815,0.080811779964904,-0.36060120546273
1580421547.79499,-0.944594491493095,0.080811779964904,-0.369878690775922
1580421547.79898,-0.93824673838407,0.0793469138628211,-0.368902113374533
1580421547.80297,-0.931898985275044,0.0720225833524069,-0.36060120546273
1580421547.80697,-0.927504386968796,0.073975738155184,-0.34692912184329
1580421547.81096,-0.922133211261158,0.0666514076447697,-0.323979552910659
1580421547.81495,-0.922133211261158,0.0573739223315783,-0.314213778896773
1580421547.81895,-0.920180056458381,0.0495613031204698,-0.297611963073168
1580421547.82294,-0.916762035553521,0.0427252613107498,-0.289311055161365
1580421547.82693,-0.91090257114519,0.0349126420996413,-0.290775921263448
1580421547.83093,-0.902113374532693,0.0266117341878385,-0.289799343862059
1580421547.83492,-0.89723048752575,0.0144045166704814,-0.280033569848174
1580421547.83891,-0.892835889219501,0.00952162966353853,-0.285404745555811
1580421547.84291,-0.898207064927139,0.00170901045242999,-0.287846189059282
1580421547.8469,-0.90064850843061,-0.00170901045242999,-0.281986724650951
1580421547.8509,-0.909437705043107,-0.00512703135728998,-0.281986724650951
1580421547.85489,-0.918226901655604,-0.00512703135728998,-0.282475013351645
1580421547.85888,-0.928480964370184,-0.00268558785381856,-0.286381322957199
1580421547.86288,-0.93824673838407,-0.00317387655451284,-0.288334477759976
1580421547.86687,-0.946059357595178,0.000244144350347142,-0.291264209964142
1580421547.87086,-0.95191882200351,-0.00366216525520713,-0.297123674372473
1580421547.87486,-0.955825131609064,-0.00366216525520713,-0.299565117875945
1580421547.87888,-0.95875486381323,-0.00317387655451284,-0.307866025787748
1580421547.88287,-0.956313420309758,-0.000732433051041426,-0.314702067597468
1580421547.88686,-0.95533684290837,0.00170901045242999,-0.327885862516213
1580421547.89086,-0.952895399404898,0.00366216525520713,-0.333745326924545
1580421547.89485,-0.95191882200351,0.0114747844663157,-0.335210193026628
1580421547.89884,-0.948012512397955,0.0173342488746471,-0.335698481727322
1580421547.90284,-0.947035934996567,0.0231937132829785,-0.34009308003357
1580421547.90683,-0.946547646295873,0.0354009308003356,-0.34351110093843
1580421547.91082,-0.946547646295873,0.0427252613107498,-0.349858854047456
1580421547.91482,-0.943129625391013,0.0510261692225527,-0.351812008850233
1580421547.91881,-0.943129625391013,0.0588387884336612,-0.357671473258565
1580421547.9228,-0.940199893186847,0.0661631189440754,-0.352300297550928
1580421547.9268,-0.943129625391013,0.0734874494544897,-0.345952544441902
1580421547.93079,-0.946547646295873,0.0744640268558783,-0.339604791332876
1580421547.93478,-0.95191882200351,0.0778820477607383,-0.333745326924545
1580421547.93878,-0.953871976806287,0.0822766460669868,-0.320073243305105
1580421547.94277,-0.957289997711147,0.0769054703593497,-0.305912870984971
1580421547.94676,-0.959243152513924,0.0729991607537954,-0.294682230869002
1580421547.95076,-0.964126039520867,0.0695811398489354,-0.281986724650951
1580421547.95475,-0.96217288471809,0.0646982528419926,-0.274662394140536
1580421547.95874,-0.961684596017395,0.0593270771343555,-0.276615548943314
1580421547.96273,-0.96217288471809,0.0559090562294955,-0.278568703746091
1580421547.96673,-0.960708018616007,0.0520027466239412,-0.281498435950256
1580421547.97072,-0.959731441214618,0.0520027466239412,-0.284916456855116
1580421547.97471,-0.963149462119478,0.0490730144197755,-0.284916456855116
1580421547.97871,-0.962661173418784,0.0485847257190812,-0.291264209964142
1580421547.9827,-0.964614328221561,0.0495613031204698,-0.296635385671779
1580421547.98669,-0.967544060425727,0.0490730144197755,-0.284916456855116
1580421547.99069,-0.967055771725033,0.048096437018387,-0.284916456855116
1580421547.99468,-0.97242694743267,0.048096437018387,-0.282475013351645
1580421547.99867,-0.974868390936141,0.0471198596169984,-0.281498435950256
1580421548.00267,-0.974868390936141,0.0432135500114441,-0.280521858548868
1580421548.00666,-0.978774700541695,0.0397955291065841,-0.282475013351645
1580421548.01066,-0.973891813534753,0.0349126420996413,-0.279545281147479
1580421548.01465,-0.973891813534753,0.034424353398947,-0.280521858548868
1580421548.01864,-0.976333257038224,0.0314946211947813,-0.273197528038454
1580421548.02264,-0.975356679636835,0.0295414663920042,-0.270267795834288
1580421548.02663,-0.976333257038224,0.0271000228885327,-0.274662394140536
1580421548.03062,-0.97584496833753,0.024170290684367,-0.281498435950256
1580421548.03462,-0.97584496833753,0.0173342488746471,-0.283451590753033
1580421548.03864,-0.978774700541695,0.0158693827725642,-0.284428168154422
1580421548.04263,-0.978774700541695,0.0158693827725642,-0.292240787365531
1580421548.04662,-0.978774700541695,0.0114747844663157,-0.299076829175251
1580421548.05061,-0.978286411841001,0.00708018616006711,-0.298588540474556
1580421548.05461,-0.973891813534753,0.00170901045242999,-0.307377737087053
1580421548.0586,-0.972915236133364,-0.000732433051041426,-0.308842603189136
1580421548.0626,-0.973891813534753,-0.0046387426565957,-0.310307469291219
1580421548.06659,-0.969985503929198,-0.0046387426565957,-0.313237201495385
1580421548.07058,-0.968520637827115,-0.00512703135728998,-0.311284046692608
1580421548.07458,-0.966079194323644,-0.00659189745937283,-0.316655222400245
1580421548.07857,-0.963637750820173,0.000244144350347142,-0.315678644998856
1580421548.08256,-0.961684596017395,0.000732433051041426,-0.314213778896773
1580421548.08656,-0.959731441214618,0.00219729915312428,-0.305912870984971
1580421548.09055,-0.957778286411841,0.00659189745937283,-0.302494850080111
1580421548.09454,-0.952895399404898,0.0139162279697871,-0.296147096971085
1580421548.09854,-0.950453955901427,0.0144045166704814,-0.289311055161365
1580421548.10253,-0.95191882200351,0.0187991149767299,-0.286869611657893
1580421548.10652,-0.949477378500038,0.0261234454871442,-0.287846189059282
1580421548.11052,-0.952895399404898,0.0285648889906156,-0.291264209964142
1580421548.11451,-0.952407110704204,0.031006332494087,-0.290775921263448
1580421548.1185,-0.95191882200351,0.0397955291065841,-0.295170519569696
1580421548.12249,-0.95191882200351,0.0417486839093613,-0.298100251773862
1580421548.12649,-0.949477378500038,0.0490730144197755,-0.303959716182193
1580421548.13048,-0.945571068894484,0.0529793240253298,-0.312260624093996
1580421548.13447,-0.943617914091707,0.0495613031204698,-0.320073243305105
1580421548.13847,-0.945571068894484,0.0539559014267184,-0.326909285114825
1580421548.14246,-0.944594491493095,0.0573739223315783,-0.335698481727322
1580421548.14645,-0.947035934996567,0.0612802319371326,-0.337651636530099
1580421548.15045,-0.947035934996567,0.0578622110322726,-0.342046234836348
1580421548.15444,-0.945571068894484,0.0554207675288012,-0.343999389639125
1580421548.15843,-0.947035934996567,0.0485847257190812,-0.345952544441902
1580421548.16243,-0.943129625391013,0.0456549935149155,-0.347417410543985
1580421548.16642,-0.93824673838407,0.0407721065079727,-0.346440833142596
1580421548.17041,-0.937758449683376,0.0358892195010299,-0.344975967040513
1580421548.17441,-0.93824673838407,0.027588311589227,-0.338139925230793
1580421548.1784,-0.936781872281987,0.0187991149767299,-0.329350728618296
1580421548.1824,-0.936781872281987,0.0158693827725642,-0.318608377203022
1580421548.18639,-0.937758449683376,0.00659189745937283,-0.306401159685665
1580421548.19038,-0.94166475928893,0.00268558785381856,-0.305912870984971
1580421548.19438,-0.940688181887541,-0.00659189745937283,-0.301029983978028
1580421548.19836,-0.943129625391013,-0.00659189745937283,-0.294682230869002
1580421548.20236,-0.942153047989624,-0.00805676356145568,-0.293217364766919
1580421548.20635,-0.947524223697261,-0.00952162966353853,-0.294682230869002
1580421548.21034,-0.949965667200733,-0.0139162279697871,-0.289799343862059
1580421548.21434,-0.952895399404898,-0.0134279392690928,-0.292240787365531
1580421548.21833,-0.955825131609064,-0.0144045166704814,-0.294682230869002
1580421548.22232,-0.960219729915313,-0.0129396505683985,-0.288334477759976
1580421548.22632,-0.960219729915313,-0.0129396505683985,-0.285404745555811
1580421548.23031,-0.964614328221561,-0.0100099183642328,-0.286869611657893
1580421548.2343,-0.963637750820173,-0.00268558785381856,-0.289311055161365
1580421548.2383,-0.966567483024338,0.00610360875867855,-0.291264209964142
1580421548.24229,-0.96559090562295,0.00610360875867855,-0.292240787365531
1580421548.24629,-0.966567483024338,0.00952162966353853,-0.291264209964142
1580421548.25028,-0.966079194323644,0.0134279392690928,-0.300053406576639
1580421548.25427,-0.96217288471809,0.0168459601739528,-0.309330891889831
1580421548.25827,-0.959731441214618,0.0222171358815899,-0.320073243305105
1580421548.26226,-0.956801709010453,0.0300297550926985,-0.322514686808576
1580421548.26625,-0.957778286411841,0.037842374303807,-0.327397573815519
1580421548.27025,-0.956313420309758,0.0432135500114441,-0.334233615625239
1580421548.27424,-0.95875486381323,0.0427252613107498,-0.336186770428016
1580421548.27826,-0.95875486381323,0.0466315709163041,-0.338628213931488
1580421548.28225,-0.957289997711147,0.048096437018387,-0.336186770428016
1580421548.28625,-0.960708018616007,0.0485847257190812,-0.32642099641413
1580421548.29024,-0.959243152513924,0.0495613031204698,-0.31958495460441
1580421548.29423,-0.954848554207675,0.0427252613107498,-0.310307469291219
1580421548.29823,-0.954848554207675,0.0422369726100555,-0.301029983978028
1580421548.30222,-0.956313420309758,0.0397955291065841,-0.296635385671779
1580421548.30621,-0.958266575112535,0.034424353398947,-0.292240787365531
1580421548.31021,-0.959243152513924,0.034424353398947,-0.293705653467613
1580421548.3142,-0.96217288471809,0.0314946211947813,-0.289799343862059
1580421548.31819,-0.963149462119478,0.0319829098954756,-0.295658808270391
1580421548.32219,-0.966079194323644,0.0319829098954756,-0.296635385671779
1580421548.32618,-0.96559090562295,0.0324711985961699,-0.299565117875945
1580421548.33017,-0.965102616922255,0.0324711985961699,-0.299565117875945
1580421548.33417,-0.963637750820173,0.0295414663920042,-0.299076829175251
1580421548.33816,-0.95875486381323,0.0319829098954756,-0.300053406576639
1580421548.34215,-0.955825131609064,0.0324711985961699,-0.300053406576639
1580421548.34615,-0.952895399404898,0.0319829098954756,-0.299565117875945
1580421548.35014,-0.953383688105593,0.0246585793850613,-0.303959716182193
1580421548.35414,-0.947524223697261,0.0280766002899213,-0.306889448386359
1580421548.35812,-0.947524223697261,0.0231937132829785,-0.308354314488442
1580421548.36212,-0.943617914091707,0.024170290684367,-0.312260624093996
1580421548.36611,-0.943129625391013,0.0227054245822842,-0.32300297550927
1580421548.3701,-0.942641336690318,0.0236820019836728,-0.322026398107882
1580421548.3741,-0.942153047989624,0.0222171358815899,-0.324956130312048
1580421548.37809,-0.942641336690318,0.0187991149767299,-0.327885862516213
1580421548.38208,-0.943129625391013,0.0202639810788128,-0.328862439917602
1580421548.38608,-0.944594491493095,0.0197756923781185,-0.331792172121768
1580421548.39007,-0.94508278019379,0.0212405584802013,-0.329350728618296
1580421548.39406,-0.947035934996567,0.0183108262760356,-0.326909285114825
1580421548.39806,-0.948012512397955,0.0173342488746471,-0.327397573815519
1580421548.40205,-0.94850080109865,0.0163576714732585,-0.318120088502328
1580421548.40605,-0.949477378500038,0.0187991149767299,-0.317631799801633
1580421548.41004,-0.947035934996567,0.0178225375753414,-0.311284046692608
1580421548.41403,-0.950942244602121,0.0207522697795071,-0.311772335393302
1580421548.41803,-0.954360265506981,0.0197756923781185,-0.309330891889831
1580421548.42202,-0.953383688105593,0.0256351567864499,-0.308354314488442
1580421548.42601,-0.953383688105593,0.0266117341878385,-0.308354314488442
1580421548.43001,-0.951430533302815,0.0300297550926985,-0.309330891889831
1580421548.434,-0.953383688105593,0.034424353398947,-0.313237201495385
1580421548.43799,-0.952895399404898,0.0397955291065841,-0.320073243305105
1580421548.44198,-0.949477378500038,0.0437018387121384,-0.327885862516213
1580421548.44597,-0.949965667200733,0.0461432822156098,-0.327885862516213
1580421548.44997,-0.950453955901427,0.0505378805218584,-0.328374151216908
1580421548.45396,-0.953383688105593,0.0549324788281069,-0.332280460822462
1580421548.45795,-0.955825131609064,0.0568856336308841,-0.324467841611353
1580421548.46195,-0.953871976806287,0.0607919432364383,-0.32642099641413
1580421548.46594,-0.950942244602121,0.0632333867399097,-0.327397573815519
1580421548.46994,-0.949965667200733,0.0642099641412983,-0.328862439917602
1580421548.47393,-0.953871976806287,0.0646982528419926,-0.327397573815519
1580421548.47792,-0.952407110704204,0.0632333867399097,-0.322026398107882
1580421548.48192,-0.955825131609064,0.0607919432364383,-0.326909285114825
1580421548.48591,-0.95875486381323,0.0573739223315783,-0.320561532005799
1580421548.4899,-0.957289997711147,0.0549324788281069,-0.31958495460441
1580421548.4939,-0.954848554207675,0.0500495918211641,-0.315678644998856
1580421548.49789,-0.947035934996567,0.044678416113527,-0.314213778896773
1580421548.50188,-0.94166475928893,0.0422369726100555,-0.309819180590525
1580421548.50588,-0.936781872281987,0.0397955291065841,-0.305912870984971
1580421548.50987,-0.93141069657435,0.0339360646982527,-0.310307469291219
1580421548.51386,-0.928969253070878,0.0305180437933927,-0.307866025787748
1580421548.51788,-0.925551232166018,0.0231937132829785,-0.303959716182193
1580421548.52188,-0.923598077363241,0.0202639810788128,-0.308842603189136
1580421548.52587,-0.919203479056993,0.0134279392690928,-0.312748912794691
1580421548.52986,-0.919203479056993,0.00854505226214997,-0.322514686808576
1580421548.53386,-0.916762035553521,0.0046387426565957,-0.325932707713436
1580421548.53785,-0.913344014648661,0.0046387426565957,-0.322514686808576
1580421548.54184,-0.913344014648661,0.00122072175173571,-0.323979552910659
1580421548.54584,-0.914808880750744,0.00512703135728998,-0.320561532005799
1580421548.54983,-0.917250324254216,0.00610360875867855,-0.322026398107882
1580421548.55382,-0.92115663385977,0.00805676356145568,-0.321538109407188
1580421548.55782,-0.920180056458381,0.0109864957656214,-0.32300297550927
1580421548.56181,-0.922133211261158,0.0104982070649271,-0.32300297550927
1580421548.5658,-0.919691767757687,0.0173342488746471,-0.31958495460441
1580421548.5698,-0.922133211261158,0.0251468680857556,-0.316655222400245
1580421548.57379,-0.927504386968796,0.0280766002899213,-0.311284046692608
1580421548.57779,-0.932387273975738,0.0363775082017241,-0.306889448386359
1580421548.58178,-0.937758449683376,0.044678416113527,-0.303471427481499
1580421548.58577,-0.947035934996567,0.0515144579232469,-0.300053406576639
1580421548.58977,-0.95533684290837,0.0573739223315783,-0.294193942168308
1580421548.59376,-0.968032349126421,0.0627450980392155,-0.287846189059282
1580421548.59775,-0.976821545738918,0.0690928511482412,-0.294682230869002
1580421548.60174,-0.988540474555581,0.0734874494544897,-0.293705653467613
1580421548.60573,-0.994399938963912,0.0793469138628211,-0.294682230869002
1580421548.60973,-0.997817959868772,0.0813000686655982,-0.296635385671779
1580421548.61372,-1.00172426947433,0.0778820477607383,-0.302494850080111
1580421548.61771,-1.00611886778058,0.0822766460669868,-0.305912870984971
1580421548.62171,-1.00856031128405,0.0813000686655982,-0.315190356298162
1580421548.6257,-1.0129549095903,0.0817883573662925,-0.318608377203022
1580421548.6297,-1.00953688868544,0.0847180895704582,-0.325444419012742
1580421548.63369,-1.01149004348821,0.0837415121690697,-0.33325703822385
1580421548.63768,-1.00758373388266,0.0891126878767068,-0.338139925230793
1580421548.64168,-1.00611886778058,0.0822766460669868,-0.340581368734265
1580421548.64567,-1.00172426947433,0.0803234912642097,-0.337651636530099
1580421548.64966,-0.997329671168078,0.0798352025635154,-0.332280460822462
1580421548.65366,-0.991958495460441,0.0783703364614325,-0.328862439917602
1580421548.65765,-0.988052185854887,0.0744640268558783,-0.314213778896773
1580421548.66164,-0.983657587548638,0.0656748302433812,-0.302983138780805
1580421548.66564,-0.978774700541695,0.0568856336308841,-0.292240787365531
1580421548.66963,-0.974868390936141,0.0432135500114441,-0.270267795834288
1580421548.67362,-0.974868390936141,0.0290531776913099,-0.261478599221791
1580421548.67764,-0.970962081330587,0.0158693827725642,-0.245365072098878
1580421548.68164,-0.967544060425727,0.00268558785381856,-0.239017318989852
1580421548.68563,-0.963637750820173,-0.00708018616006711,-0.234622720683603
1580421548.68962,-0.964614328221561,-0.0178225375753414,-0.230228122377355
1580421548.69362,-0.963637750820173,-0.0261234454871442,-0.230716411078049
1580421548.69761,-0.965102616922255,-0.034424353398947,-0.233646143282215
1580421548.7016,-0.966079194323644,-0.0285648889906156,-0.237552452887769
1580421548.7056,-0.967544060425727,-0.0300297550926985,-0.246341649500266
1580421548.70959,-0.968032349126421,-0.0285648889906156,-0.250247959105822
1580421548.71358,-0.964614328221561,-0.0227054245822842,-0.258060578316931
1580421548.71758,-0.96217288471809,-0.0178225375753414,-0.268802929732205
1580421548.72157,-0.961684596017395,-0.01196307316701,-0.270267795834288
1580421548.72556,-0.959243152513924,-0.00219729915312428,-0.282475013351645
1580421548.72956,-0.958266575112535,0.00561532005798426,-0.283939879453728
1580421548.73355,-0.958266575112535,0.01196307316701,-0.287846189059282
1580421548.73755,-0.953383688105593,0.0227054245822842,-0.290775921263448
1580421548.74154,-0.95191882200351,0.0295414663920042,-0.296635385671779
1580421548.74553,-0.948012512397955,0.0422369726100555,-0.296147096971085
1580421548.74953,-0.953871976806287,0.0515144579232469,-0.299076829175251
1580421548.75352,-0.95533684290837,0.0617685206378269,-0.298588540474556
1580421548.75751,-0.95875486381323,0.0710460059510183,-0.293705653467613
1580421548.7615,-0.95875486381323,0.0793469138628211,-0.292240787365531
1580421548.76549,-0.95875486381323,0.0778820477607383,-0.284428168154422
1580421548.76949,-0.956801709010453,0.0813000686655982,-0.282963302052339
1580421548.77348,-0.95533684290837,0.0803234912642097,-0.280033569848174
1580421548.77747,-0.954360265506981,0.0798352025635154,-0.275638971541925
1580421548.78147,-0.955825131609064,0.0827649347676811,-0.271732661936371
1580421548.78546,-0.954848554207675,0.0788586251621268,-0.271244373235676
1580421548.78945,-0.956801709010453,0.0759288929579611,-0.265384908827345
1580421548.79345,-0.961196307316701,0.0769054703593497,-0.268802929732205
1580421548.79744,-0.959731441214618,0.0734874494544897,-0.275150682841231
1580421548.80144,-0.959731441214618,0.0710460059510183,-0.281498435950256
1580421548.80543,-0.959731441214618,0.0646982528419926,-0.284916456855116
1580421548.80942,-0.963149462119478,0.0607919432364383,-0.287846189059282
1580421548.81342,-0.962661173418784,0.0524910353246355,-0.293217364766919
1580421548.81741,-0.963149462119478,0.0451667048142212,-0.292240787365531
1580421548.8214,-0.962661173418784,0.044678416113527,-0.301029983978028
1580421548.8254,-0.959731441214618,0.0417486839093613,-0.306889448386359
1580421548.82939,-0.962661173418784,0.0368657969024184,-0.305424582284276
1580421548.83338,-0.964126039520867,0.0339360646982527,-0.308842603189136
1580421548.83737,-0.963637750820173,0.0329594872968642,-0.310307469291219
1580421548.84136,-0.959243152513924,0.0266117341878385,-0.307377737087053
1580421548.84536,-0.958266575112535,0.0256351567864499,-0.302494850080111
1580421548.84935,-0.95533684290837,0.0251468680857556,-0.295658808270391
1580421548.85334,-0.957778286411841,0.0197756923781185,-0.285893034256505
1580421548.85734,-0.954360265506981,0.0173342488746471,-0.283939879453728
1580421548.86133,-0.954360265506981,0.0153810940718699,-0.272220950637065
1580421548.86533,-0.952407110704204,0.0104982070649271,-0.266361486228734
1580421548.86932,-0.94850080109865,0.00708018616006711,-0.261966887922485
1580421548.87331,-0.944106202792401,0.00512703135728998,-0.264896620126651
1580421548.87731,-0.933852140077821,0.00219729915312428,-0.264408331425956
1580421548.8813,-0.929945830472267,-0.000732433051041426,-0.271732661936371
1580421548.88529,-0.927504386968796,-0.00170901045242999,-0.277592126344702
1580421548.88929,-0.926039520866713,-0.00366216525520713,-0.281986724650951
1580421548.89328,-0.927016098268101,-0.00317387655451284,-0.283939879453728
1580421548.89727,-0.927016098268101,0.00122072175173571,-0.285893034256505
1580421548.90127,-0.929457541771573,0.00415045395590141,-0.293705653467613
1580421548.90526,-0.929457541771573,0.00903334096284425,-0.296147096971085
1580421548.90926,-0.933363851377127,0.0124513618677042,-0.298100251773862
1580421548.91325,-0.939223315785458,0.0129396505683985,-0.295658808270391
1580421548.91727,-0.940688181887541,0.0168459601739528,-0.292240787365531
1580421548.92126,-0.940688181887541,0.0261234454871442,-0.295170519569696
1580421548.92525,-0.942153047989624,0.0295414663920042,-0.289799343862059
1580421548.92925,-0.942153047989624,0.037842374303807,-0.295658808270391
1580421548.93324,-0.943617914091707,0.044678416113527,-0.292729076066225
1580421548.93723,-0.945571068894484,0.0495613031204698,-0.296635385671779
1580421548.94123,-0.948012512397955,0.0563973449301898,-0.298588540474556
1580421548.94522,-0.948989089799344,0.0642099641412983,-0.293705653467613
1580421548.94921,-0.949965667200733,0.0681162737468526,-0.296147096971085
1580421548.95321,-0.947524223697261,0.0759288929579611,-0.301518272678722
1580421548.9572,-0.944594491493095,0.0827649347676811,-0.300053406576639
1580421548.96119,-0.94166475928893,0.0896009765774011,-0.302494850080111
1580421548.96519,-0.93824673838407,0.0920424200808725,-0.304448004882888
1580421548.96918,-0.935317006179904,0.0910658426794839,-0.302006561379416
1580421548.97318,-0.929945830472267,0.0871595330739297,-0.293705653467613
1580421548.97717,-0.93482871747921,0.0793469138628211,-0.289799343862059
1580421548.98116,-0.936781872281987,0.0690928511482412,-0.281986724650951
1580421548.98516,-0.935805294880598,0.0583504997329669,-0.271732661936371
1580421548.98915,-0.938735027084764,0.0441901274128327,-0.264896620126651
1580421548.99314,-0.944106202792401,0.0305180437933927,-0.258548867017625
1580421548.99713,-0.950942244602121,0.0207522697795071,-0.258060578316931
1580421549.00112,-0.95533684290837,0.00610360875867855,-0.250736247806516
1580421549.00512,-0.963149462119478,-0.00268558785381856,-0.250736247806516
1580421549.00911,-0.96900892652781,-0.00708018616006711,-0.251224536507211
1580421549.0131,-0.977798123140307,-0.0100099183642328,-0.246341649500266
1580421549.0171,-0.987075608453498,-0.00903334096284425,-0.248783093003738
1580421549.02109,-0.990493629358358,-0.00268558785381856,-0.249271381704432
1580421549.02509,-0.994399938963912,0.000732433051041426,-0.260990310521096
1580421549.02908,-0.994399938963912,0.00268558785381856,-0.257572289616236
1580421549.03307,-0.993423361562524,0.0148928053711757,-0.252201113908599
1580421549.03707,-0.99293507286183,0.024170290684367,-0.257572289616236
1580421549.04106,-0.989028763256275,0.0290531776913099,-0.259037155718319
1580421549.04505,-0.988540474555581,0.0358892195010299,-0.252689402609294
1580421549.04905,-0.988540474555581,0.0397955291065841,-0.252201113908599
1580421549.05304,-0.984145876249332,0.044678416113527,-0.24682993820096
1580421549.05703,-0.984634164950027,0.0510261692225527,-0.239505607690546
1580421549.06103,-0.98609903105211,0.0573739223315783,-0.230228122377355
1580421549.06502,-0.985610742351415,0.060303654535744,-0.227298390173189
1580421549.06901,-0.981216144045167,0.0612802319371326,-0.231204699778743
1580421549.07301,-0.978286411841001,0.067139696345464,-0.234134431982909
1580421549.07699,-0.977309834439613,0.0651865415426869,-0.236087586785686
1580421549.08099,-0.972915236133364,0.0617685206378269,-0.240482185091935
1580421549.08498,-0.970473792629893,0.0646982528419926,-0.235599298084992
1580421549.08898,-0.967544060425727,0.0598153658350498,-0.237064164187075
1580421549.09297,-0.967055771725033,0.0583504997329669,-0.235599298084992
1580421549.09696,-0.964614328221561,0.060303654535744,-0.23657587548638
1580421549.10096,-0.963149462119478,0.0607919432364383,-0.238040741588463
1580421549.10495,-0.961684596017395,0.0588387884336612,-0.23999389639124
1580421549.10894,-0.965102616922255,0.0588387884336612,-0.245853360799572
1580421549.11294,-0.973403524834058,0.0593270771343555,-0.256107423514154
1580421549.11693,-0.973891813534753,0.0612802319371326,-0.254642557412071
1580421549.12092,-0.980727855344472,0.0651865415426869,-0.257084000915542
1580421549.12492,-0.981704432745861,0.063721675440604,-0.260990310521096
1580421549.12891,-0.982192721446555,0.0646982528419926,-0.261966887922485
1580421549.13291,-0.984634164950027,0.0622568093385212,-0.266849774929428
1580421549.1369,-0.985610742351415,0.063721675440604,-0.264896620126651
1580421549.14089,-0.986587319752804,0.0646982528419926,-0.267826352330816
1580421549.14488,-0.987075608453498,0.0632333867399097,-0.261966887922485
1580421549.14888,-0.988052185854887,0.0617685206378269,-0.266361486228734
1580421549.15287,-0.987563897154192,0.0544441901274126,-0.257084000915542
1580421549.15689,-0.985610742351415,0.0451667048142212,-0.246341649500266
1580421549.16088,-0.988052185854887,0.0368657969024184,-0.238529030289158
1580421549.16488,-0.989028763256275,0.0251468680857556,-0.224856946669718
1580421549.16887,-0.98951705195697,0.0168459601739528,-0.218997482261386
1580421549.17286,-0.990981918059052,0.00708018616006711,-0.213626306553749
1580421549.17686,-0.997329671168078,0.000732433051041426,-0.203860532539863
1580421549.18085,-1.00172426947433,-0.000732433051041426,-0.208255130846112
1580421549.18484,-0.99977111467155,-0.00366216525520713,-0.202883955138475
1580421549.18884,-1.00514229037919,-0.00219729915312428,-0.199954222934309
1580421549.19283,-1.0036774242771,-0.0114747844663157,-0.199954222934309
1580421549.19683,-1.00465400167849,-0.01196307316701,-0.196536202029449
1580421549.20082,-1.00123598077363,-0.0134279392690928,-0.189211871519035
1580421549.20481,-0.999282825970855,-0.0139162279697871,-0.188235294117646
1580421549.20881,-0.994888227664607,-0.0100099183642328,-0.181399252307926
1580421549.2128,-0.989028763256275,-0.0075684748607614,-0.176516365300984
1580421549.21679,-0.986587319752804,-0.00415045395590141,-0.174074921797512
1580421549.22079,-0.985122453650721,-0.00122072175173571,-0.177004654001678
1580421549.22478,-0.990981918059052,-0.000732433051041426,-0.168215457389181
1580421549.22877,-0.989028763256275,-0.000244144350347142,-0.166750591287098
1580421549.23277,-0.991470206759747,-0.00219729915312428,-0.159914549477378
1580421549.23675,-0.99635309376669,-0.00317387655451284,-0.152590218966964
1580421549.24075,-0.998794537270161,-0.00659189745937283,-0.152590218966964
1580421549.24474,-1.00318913557641,-0.0134279392690928,-0.146730754558632
1580421549.24874,-1.00904859998474,-0.0173342488746471,-0.145754177157244
1580421549.25273,-1.01393148699168,-0.0207522697795071,-0.142824444953078
1580421549.25672,-1.01734950789654,-0.024170290684367,-0.134523537041275
1580421549.26072,-1.02027924010071,-0.027588311589227,-0.132570382238498
1580421549.26471,-1.0212558175021,-0.031006332494087,-0.118898298619058
1580421549.2687,-1.02809185931182,-0.027588311589227,-0.117433432516975
1580421549.2727,-1.03053330281529,-0.0300297550926985,-0.114015411612115
1580421549.27669,-1.03346303501946,-0.0280766002899213,-0.109620813305867
1580421549.28068,-1.03688105592432,-0.0266117341878385,-0.107179369802395
1580421549.28468,-1.03297474631876,-0.0305180437933927,-0.106691081101701
1580421549.28867,-1.02760357061112,-0.0373540856031127,-0.102296482795452
1580421549.29266,-1.01881437399863,-0.0397955291065841,-0.0930189974822611
1580421549.29666,-1.01441977569238,-0.0461432822156098,-0.0803234912642097
1580421549.30065,-1.0124666208896,-0.0466315709163041,-0.073975738155184
1580421549.30464,-1.01637293049516,-0.0471198596169984,-0.0607919432364383
1580421549.30864,-1.01832608529793,-0.0417486839093613,-0.048096437018387
1580421549.31263,-1.02369726100557,-0.0397955291065841,-0.0290531776913099
1580421549.31665,-1.03102159151598,-0.0422369726100555,-0.0139162279697871
1580421549.32064,-1.03883421072709,-0.0495613031204698,0.0046387426565957
1580421549.32464,-1.04811169604028,-0.0573739223315783,0.0295414663920042
1580421549.32863,-1.05006485084306,-0.0715342946517126,0.0393072404058898
1580421549.33262,-1.05934233615625,-0.0861829556725411,0.0598153658350498
1580421549.33662,-1.07447928587777,-0.096437018387121,0.0813000686655982
1580421549.34061,-1.09303425650416,-0.109620813305867,0.102296482795452
1580421549.3446,-1.11793698023957,-0.11450370031281,0.12475776302739
1580421549.3486,-1.13405050736248,-0.11792172121767,0.151613641565575
1580421549.35259,-1.14821087968261,-0.11792172121767,0.171145189593346
1580421549.35659,-1.15455863279164,-0.110109102006561,0.193606469825284
1580421549.36058,-1.15309376668955,-0.107179369802395,0.209231708247501
1580421549.36457,-1.15651178759441,-0.100343327992675,0.218997482261386
1580421549.36857,-1.17360189211871,-0.0935072861829553,0.229739833676661
1580421549.37256,-1.19996948195621,-0.0817883573662925,0.247318226901655
1580421549.37655,-1.23268482490272,-0.0764171816586554,0.260013733119706
1580421549.38055,-1.25856412603952,-0.0690928511482412,0.278568703746089
1580421549.38454,-1.2776073853666,-0.0539559014267184,0.290287632562752
1580421549.38853,-1.29372091248951,-0.0476081483176927,0.299565117875943
1580421549.39253,-1.29909208819715,-0.0397955291065841,0.312260624093994
1580421549.39651,-1.30983443961242,-0.031006332494087,0.32202639810788
1580421549.40051,-1.32643625543603,-0.0158693827725642,0.337163347829403
1580421549.4045,-1.35231555657282,-0.000244144350347142,0.361089494163423
1580421549.40849,-1.38161287861448,0.0168459601739528,0.389410238803691
1580421549.41249,-1.40016784924086,0.0324711985961699,0.412359807736323
1580421549.41648,-1.40749217975128,0.044678416113527,0.411871519035628
1580421549.42048,-1.4060273136492,0.0456549935149155,0.375249866483557
1580421549.42447,-1.41823453116655,0.0476081483176927,0.340581368734263
1580421549.42846,-1.44509040970474,0.0588387884336612,0.286869611657892
1580421549.43246,-1.45534447241932,0.0852063782711525,0.212649729152361
1580421549.43645,-1.45143816281376,0.11792172121767,0.123292896925307
1580421549.44044,-1.44460212100404,0.151613641565575,0.0515144579232469
1580421549.44444,-1.44655527580682,0.172121766994735,-0.0246585793850613
1580421549.44843,-1.43678950179294,0.168703746089875,-0.158937972075989
1580421549.45242,-1.41676966506447,0.138918135347524,-0.312748912794691
1580421549.45642,-1.37331197070268,0.0852063782711525,-0.440680552376593
1580421549.46041,-1.32350652323186,0.0173342488746471,-0.509040970473793
1580421549.4644,-1.25905241474022,-0.0578622110322726,-0.520271610589761
1580421549.4684,-1.17848477912566,-0.128664072632944,-0.512458991378653
1580421549.47239,-1.07106126497291,-0.197024490730143,-0.506599526970321
1580421549.47638,-0.946059357595178,-0.283939879453728,-0.478278782330053
1580421549.48037,-0.901136797131304,-0.348882276646068,-0.416266117341879
1580421549.48437,-0.876234073395896,-0.38110933089189,-0.338139925230793
1580421549.48836,-0.860120546272984,-0.407965209430076,-0.260013733119708
1580421549.49235,-0.855725947966736,-0.416754406042573,-0.186282139314869
1580421549.49635,-0.86305027847715,-0.408941786831464,-0.113038834210727
1580421549.50034,-0.867444876783399,-0.389410238803693,-0.0529793240253298
1580421549.50433,-0.891859311818113,-0.365484092469673,-0.0046387426565957
1580421549.50833,-0.915785458152133,-0.337651636530099,0.0329594872968642
1580421549.51232,-0.938735027084764,-0.315678644998856,0.063721675440604
1580421549.51631,-0.96217288471809,-0.293217364766919,0.0759288929579611
1580421549.52031,-0.98268101014725,-0.271244373235676,0.0710460059510183
1580421549.5243,-0.997329671168078,-0.247806515602349,0.0607919432364383
1580421549.5283,-1.01197833218891,-0.223392080567635,0.0563973449301898
1580421549.53229,-1.0129549095903,-0.203372243839169,0.0593270771343555
1580421549.53628,-1.0129549095903,-0.182375829709315,0.0622568093385212
1580421549.54027,-0.995864805065995,-0.149172198062104,0.0720225833524069
1580421549.54427,-0.980727855344472,-0.105226214999618,0.0817883573662925
1580421549.54826,-0.965102616922255,-0.0593270771343555,0.0871595330739297
1580421549.55226,-0.948012512397955,-0.0144045166704814,0.0969253070878153
1580421549.55627,-0.935317006179904,0.024170290684367,0.0954604409857325
1580421549.56027,-0.925062943465324,0.060303654535744,0.0920424200808725
1580421549.56426,-0.91773861295491,0.0881361104753182,0.0847180895704582
1580421549.56825,-0.914808880750744,0.11108567940795,0.0837415121690697
1580421549.57225,-0.90406652933547,0.115968566414892,0.0939955748836496
1580421549.57624,-0.89723048752575,0.122804608224612,0.103273060196841
1580421549.58024,-0.889417868314641,0.12133974212253,0.101808194094758
1580421549.58423,-0.88014038300145,0.125246051728084,0.0959487296864268
1580421549.58822,-0.865491721980622,0.126710917830167,0.0813000686655982
1580421549.59222,-0.85279621576257,0.123292896925307,0.0578622110322726
1580421549.59621,-0.837659266041047,0.120363164721141,0.0383306630045013
1580421549.6002,-0.823498893720913,0.119874876020447,0.0363775082017241
1580421549.6042,-0.812756542305639,0.118410009918364,0.0290531776913099
1580421549.60819,-0.805432211795225,0.110597390707255,0.0305180437933927
1580421549.61218,-0.792248416876479,0.0974135957885096,0.034424353398947
1580421549.61618,-0.77759975585565,0.0749523155565726,0.0397955291065841
1580421549.62017,-0.764415960936905,0.0476081483176927,0.0544441901274126
1580421549.62416,-0.752208743419548,0.0153810940718699,0.0686045624475469
1580421549.62816,-0.7390249485008,-0.0217288471808956,0.0886243991760125
1580421549.63215,-0.735118638895246,-0.0549324788281069,0.109620813305867
1580421549.63614,-0.733165484092469,-0.0856946669718468,0.141359578850995
1580421549.64013,-0.729747463187609,-0.116456855115587,0.167727168688486
1580421549.64413,-0.730235751888303,-0.141847867551689,0.194094758525978
1580421549.64812,-0.738536659800106,-0.163332570382238,0.215579461356526
1580421549.65211,-0.745372701609826,-0.184328984512092,0.243900205996795
1580421549.65611,-0.753185320820936,-0.204348821240558,0.263431754024566
1580421549.6601,-0.761974517433433,-0.225345235370412,0.292240787365529
1580421549.66409,-0.768322270542459,-0.240970473792629,0.321538109407186
1580421549.66809,-0.768810559243153,-0.260013733119708,0.343999389639123
1580421549.67208,-0.770275425345236,-0.282963302052339,0.365484092469671
1580421549.67607,-0.76392767223621,-0.304448004882888,0.379644464789806
1580421549.68007,-0.758068207827879,-0.325932707713436,0.403570611123826
1580421549.68406,-0.747814145113297,-0.348882276646068,0.415777828641183
1580421549.68805,-0.736583504997329,-0.369390402075227,0.432867933165483
1580421549.69205,-0.725841153582055,-0.38794537270161,0.444586861982145
1580421549.69604,-0.712169069962615,-0.403570611123827,0.458258945601585
1580421549.70003,-0.698496986343175,-0.418219272144656,0.463141832608528
1580421549.70403,-0.693125810635538,-0.428473334859236,0.477302204928662
1580421549.70802,-0.68433661402304,-0.433844510566873,0.488044556343937
1580421549.71201,-0.684824902723735,-0.42896162355993,0.502204928664074
1580421549.71603,-0.686289768825818,-0.42554360265507,0.51538872358282
1580421549.72003,-0.695078965438315,-0.420172426947433,0.527107652399483
1580421549.72402,-0.707286182955672,-0.413336385137713,0.537361715114063
1580421549.72801,-0.719981689173723,-0.407476920729382,0.551522087434197
1580421549.73201,-0.733165484092469,-0.399176012817579,0.560799572747388
1580421549.736,-0.750743877317465,-0.39136339360647,0.571541924162663
1580421549.74,-0.761974517433433,-0.385992217898833,0.577401388570994
1580421549.74399,-0.781994354161899,-0.371343556878005,0.578866254673077
1580421549.74798,-0.799084458686199,-0.362554360265507,0.571541924162663
1580421549.75197,-0.816662851911193,-0.354253452353705,0.558358129243917
1580421549.75597,-0.827893492027162,-0.347417410543985,0.535408560311286
1580421549.75996,-0.835217822537576,-0.343022812237736,0.502204928664074
1580421549.76396,-0.843518730449379,-0.333745326924545,0.483161669336994
1580421549.76795,-0.850354772259099,-0.319096665903716,0.470466163118942
1580421549.77194,-0.858167391470207,-0.299565117875945,0.471442740520331
1580421549.77594,-0.864026855878539,-0.275638971541925,0.477302204928662
1580421549.77993,-0.870862897688259,-0.251224536507211,0.498786907759211
1580421549.78392,-0.886488136110476,-0.229251544975966,0.516365300984209
1580421549.78792,-0.906507972838941,-0.208743419546806,0.533455405508509
1580421549.79191,-0.924086366063936,-0.192141603723201,0.543221179522394
1580421549.79593,-0.93824673838407,-0.180422674906538,0.562752727550166
1580421549.79992,-0.949477378500038,-0.166750591287098,0.576424811169606
1580421549.80392,-0.954360265506981,-0.161379415579461,0.588632028686963
1580421549.80791,-0.966079194323644,-0.154543373769741,0.610605020218205
1580421549.8119,-0.978286411841001,-0.149172198062104,0.631113145647365
1580421549.8159,-0.98268101014725,-0.147219043259327,0.643320363164722
1580421549.81989,-0.981704432745861,-0.151125352864881,0.64869153887236
1580421549.82388,-0.974868390936141,-0.150148775463492,0.660898756389717
1580421549.82788,-0.967544060425727,-0.146730754558632,0.665293354695965
1580421549.83187,-0.953871976806287,-0.136476691844052,0.676523994811934
1580421549.83586,-0.948012512397955,-0.120851453421835,0.686778057526514
1580421549.83986,-0.94166475928893,-0.110109102006561,0.683360036621654
1580421549.84385,-0.937758449683376,-0.0881361104753182,0.675547417410545
1580421549.84784,-0.932387273975738,-0.063721675440604,0.661875333791105
1580421549.85184,-0.926039520866713,-0.041260395208667,0.649668116273748
1580421549.85583,-0.92115663385977,-0.0212405584802013,0.637460898756391
1580421549.85982,-0.92457465476463,-0.00415045395590141,0.63160143434806
1580421549.86382,-0.924086366063936,0.00903334096284425,0.614999618524454
1580421549.86781,-0.920668345159076,0.0134279392690928,0.606210421911957
1580421549.8718,-0.918226901655604,0.0104982070649271,0.585702296482797
1580421549.87582,-0.909925993743801,0.000732433051041426,0.559334706645306
1580421549.87982,-0.895277332722973,-0.0109864957656214,0.548104066529337
1580421549.88381,-0.879652094300756,-0.0217288471808956,0.537361715114063
1580421549.8878,-0.861585412375067,-0.0280766002899213,0.536385137712674
1580421549.8918,-0.841077286945907,-0.0407721065079727,0.533943694209203
1580421549.89579,-0.812756542305639,-0.0573739223315783,0.52906080720226
1580421549.89979,-0.790783550774396,-0.070557717250324,0.51197070267796
1580421549.90378,-0.763439383535516,-0.0856946669718468,0.499275196459905
1580421549.90777,-0.754650186923019,-0.100343327992675,0.481696803234911
1580421549.91176,-0.765392538338293,-0.103273060196841,0.463630121309222
1580421549.91576,-0.782970931563288,-0.102296482795452,0.455817502098114
1580421549.91975,-0.801037613488976,-0.103273060196841,0.458258945601585
1580421549.92375,-0.824475471122302,-0.109620813305867,0.461188677805751
1580421549.92774,-0.861097123674373,-0.111573968108644,0.443610284580757
1580421549.93173,-0.913832303349356,-0.101319905394064,0.376226443884946
1580421549.93573,-0.952895399404898,-0.0876478217746239,0.280521858548866
1580421549.93972,-0.97242694743267,-0.0905775539787896,0.168703746089875
1580421549.94371,-0.976821545738918,-0.106202792401007,0.063721675440604
1580421549.94771,-0.963149462119478,-0.115480277714198,-0.0305180437933927
1580421549.9517,-0.950942244602121,-0.11450370031281,-0.102784771496147
1580421549.95569,-0.94508278019379,-0.0837415121690697,-0.118898298619058
1580421549.95968,-0.961196307316701,-0.0329594872968642,-0.0759288929579611
1580421549.96368,-0.977309834439613,0.0202639810788128,0.0222171358815899
1580421549.96767,-1.00074769207294,0.0559090562294955,0.156496528572518
1580421549.97166,-1.03199816891737,0.060303654535744,0.290287632562752
1580421549.97566,-1.07692072938125,0.0280766002899213,0.413824673838405
1580421549.97965,-1.12477302204929,-0.0197756923781185,0.500740062561992
1580421549.98364,-1.19313344014649,-0.0729991607537954,0.565682459754331
1580421549.98764,-1.25954070344091,-0.099855039291981,0.574959945067523
1580421549.99163,-1.3205767910277,-0.106691081101701,0.546639200427254
1580421549.99562,-1.35963988708324,-0.0920424200808725,0.484626535439077
1580421549.99962,-1.37672999160754,-0.0856946669718468,0.3972228580148
1580421550.00361,-1.36452277409018,-0.10424963759823,0.288822766460669
1580421550.0076,-1.32497138933394,-0.136964980544747,0.168215457389181
1580421550.0116,-1.26491187914855,-0.163332570382238,0.0417486839093613
1580421550.01559,-1.19801632715343,-0.176516365300984,-0.067139696345464
1580421550.01958,-1.13746852826734,-0.172610055695429,-0.156496528572518
1580421550.02358,-1.07350270847639,-0.144289311055161,-0.217532616159303
1580421550.02757,-1.00904859998474,-0.10424963759823,-0.248294804303043
1580421550.03156,-0.943129625391013,-0.0617685206378269,-0.256107423514154
1580421550.03555,-0.875745784695201,-0.0285648889906156,-0.281986724650951
1580421550.03955,-0.802502479591059,-0.0075684748607614,-0.313725490196079
1580421550.04354,-0.724376287479972,-0.0100099183642328,-0.354253452353705
1580421550.04753,-0.663340199893186,-0.0212405584802013,-0.383550774395362
1580421550.05153,-0.618417639429312,-0.0358892195010299,-0.40503547722591
1580421550.05552,-0.584725719081407,-0.0246585793850613,-0.415777828641184
1580421550.05951,-0.572030212863355,-0.00219729915312428,-0.414312962539102
1580421550.06351,-0.585214007782101,0.0363775082017241,-0.387457084000916
1580421550.0675,-0.630136568245975,0.0729991607537954,-0.342534523537042
1580421550.07149,-0.715587090867475,0.11792172121767,-0.269779507133594
1580421550.07549,-0.839612420843824,0.180422674906538,-0.193606469825284
1580421550.07948,-0.987075608453498,0.252689402609292,-0.128175783932249
1580421550.08347,-1.12233157854581,0.30835431448844,-0.10083161669337
1580421550.08747,-1.225848783093,0.330815594720377,-0.109620813305867
1580421550.09146,-1.28249027237354,0.313725490196077,-0.134523537041275
1580421550.09545,-1.29274433508812,0.273197528038452,-0.158937972075989
1580421550.09945,-1.27370107576104,0.231692988479438,-0.157473105973907
1580421550.10344,-1.22975509269856,0.198977645532921,-0.145754177157244
1580421550.10744,-1.18092622262913,0.186282139314869,-0.123292896925307
1580421550.11143,-1.13014419775692,0.182864118410009,-0.103761348897535
1580421550.11542,-1.08473334859235,0.189211871519035,-0.0915541313801782
1580421550.11941,-1.04957656214237,0.205325398641946,-0.0915541313801782
1580421550.1234,-1.01588464179446,0.213138017853055,-0.104737926298924
1580421550.1274,-0.980239566643778,0.219974059662775,-0.112550545510032
1580421550.13139,-0.94850080109865,0.228274967574578,-0.11792172121767
1580421550.13539,-0.923109788662547,0.229251544975966,-0.123781185626001
1580421550.13938,-0.90406652933547,0.225345235370412,-0.122804608224612
1580421550.14337,-0.89039444571603,0.210696574349583,-0.119386587319752
1580421550.14736,-0.88355840390631,0.194094758525978,-0.11108567940795
1580421550.15136,-0.89039444571603,0.168703746089875,-0.105714503700312
1580421550.15535,-0.896742198825056,0.143312733653772,-0.10424963759823
1580421550.15935,-0.904554818036164,0.118410009918364,-0.0993667505912867
1580421550.16334,-0.92115663385977,0.0979018844892039,-0.0969253070878153
1580421550.16733,-0.940199893186847,0.077393759060044,-0.0856946669718468
1580421550.17133,-0.962661173418784,0.0661631189440754,-0.0847180895704582
1580421550.17532,-0.980727855344472,0.0510261692225527,-0.0837415121690697
1580421550.17931,-1.00074769207294,0.0417486839093613,-0.080811779964904
1580421550.18331,-1.01881437399863,0.0490730144197755,-0.0788586251621268
1580421550.1873,-1.03590447852293,0.0651865415426869,-0.0725108720531011
1580421550.19129,-1.04322880903334,0.0813000686655982,-0.0686045624475469
1580421550.19531,-1.04615854123751,0.101319905394064,-0.073975738155184
1580421550.19931,-1.04420538643473,0.118898298619058,-0.0827649347676811
1580421550.2033,-1.03492790112154,0.135500114442664,-0.0905775539787896
1580421550.20729,-1.02369726100557,0.148683909361409,-0.106691081101701
1580421550.21129,-1.0036774242771,0.160402838178072,-0.113527122911421
1580421550.21528,-0.985122453650721,0.173098344396124,-0.131105516136415
1580421550.21927,-0.969497215228504,0.180910963607232,-0.148195620660715
1580421550.22327,-0.951430533302815,0.187258716716258,-0.151125352864881
1580421550.22726,-0.947524223697261,0.195071335927366,-0.157961394674601
1580421550.23125,-0.94508278019379,0.193606469825284,-0.167727168688486
1580421550.23525,-0.942641336690318,0.183840695811398,-0.172121766994735
1580421550.23924,-0.934340428778516,0.174563210498206,-0.161867704280155
1580421550.24323,-0.923109788662547,0.148683909361409,-0.152590218966964
1580421550.24723,-0.915297169451438,0.125734340428778,-0.142824444953078
1580421550.25122,-0.90406652933547,0.096437018387121,-0.135011825741969
1580421550.25521,-0.892835889219501,0.0632333867399097,-0.127199206530861
1580421550.25921,-0.888441290913253,0.0339360646982527,-0.122316319523918
1580421550.2632,-0.889906157015336,0.0144045166704814,-0.11108567940795
1580421550.26719,-0.885999847409781,-0.000244144350347142,-0.108644235904478
1580421550.27119,-0.892347600518807,-0.00903334096284425,-0.101808194094758
1580421550.27518,-0.90406652933547,0.00317387655451284,-0.0891126878767068
1580421550.27917,-0.871351186388953,-0.00268558785381856,-0.0749523155565726
1580421550.28316,-0.921644922560464,0.0437018387121384,-0.0725108720531011
1580421550.28716,-0.929945830472267,0.0676279850461583,-0.0622568093385212
1580421550.29115,-0.935805294880598,0.0871595330739297,-0.0622568093385212
1580421550.29514,-0.948989089799344,0.130128938735027,-0.0642099641412983
1580421550.29914,-0.908949416342413,0.123781185626001,-0.0632333867399097
1580421550.30313,-1.07399099717708,0.259525444419012,-0.0793469138628211
1580421550.30712,-1.06520180056458,0.179446097505149,-0.0881361104753182
1580421550.31112,-1.02223239490349,0.200442511635003,-0.0783703364614325
1580421550.31511,-1.02858014801251,0.224856946669718,-0.101808194094758
1580421550.3191,-1.02858014801251,0.249759670405126,-0.125246051728084
1580421550.3231,-1.01881437399863,0.27417410543984,-0.144289311055161
1580421550.32709,-1.00514229037919,0.298588540474555,-0.161867704280155
1580421550.33109,-0.989028763256275,0.319096665903714,-0.173098344396124
1580421550.33508,-0.978774700541695,0.327397573815517,-0.180910963607232
1580421550.33907,-0.964126039520867,0.329839017318989,-0.184817273212786
1580421550.34307,-0.967544060425727,0.305424582284274,-0.182864118410009
1580421550.34706,-0.979751277943084,0.275638971541923,-0.178957808804455
1580421550.35105,-1.00221255817502,0.231692988479438,-0.172121766994735
1580421550.35507,-1.03541618982223,0.187258716716258,-0.160891126878766
1580421550.35906,-1.06324864576181,0.142336156252384,-0.140871290150301
1580421550.36306,-1.08473334859235,0.0944838635843439,-0.112062256809338
1580421550.36705,-1.09840543221179,0.0490730144197755,-0.0695811398489354
1580421550.37105,-1.11842526894026,0.00317387655451284,-0.0207522697795071
1580421550.37504,-1.14381628137636,-0.0324711985961699,0.0349126420996413
1580421550.37903,-1.16237125200275,-0.0612802319371326,0.0783703364614325
1580421550.38303,-1.17116044861524,-0.0979018844892039,0.125246051728084
1580421550.38702,-1.17360189211871,-0.139894712748912,0.160402838178072
1580421550.39101,-1.17555504692149,-0.183352407110704,0.193606469825284
1580421550.39501,-1.17604333562219,-0.220950637064163,0.219974059662775
1580421550.399,-1.18825055313954,-0.251712825207905,0.24682993820096
1580421550.40299,-1.21217669947356,-0.273197528038454,0.270267795834286
1580421550.40699,-1.22829022659647,-0.277103837644008,0.286381322957197
1580421550.41098,-1.24391546501869,-0.276615548943314,0.293705653467612
1580421550.41497,-1.2517280842298,-0.268802929732205,0.295170519569695
1580421550.41897,-1.2600289921416,-0.255130846112765,0.286381322957197
1580421550.42296,-1.27858396276799,-0.233646143282215,0.282963302052337
1580421550.42695,-1.29567406729229,-0.210208285648889,0.278080415045395
1580421550.43095,-1.3034866865034,-0.186282139314869,0.276127260242617
1580421550.43494,-1.30934615091173,-0.163820859082932,0.265384908827343
1580421550.43893,-1.30885786221103,-0.145265888456549,0.24682993820096
1580421550.44292,-1.30543984130617,-0.118898298619058,0.214114595254443
1580421550.44692,-1.3034866865034,-0.0798352025635154,0.187747005416952
1580421550.45091,-1.30251010910201,-0.0407721065079727,0.150637064164187
1580421550.4549,-1.30104524299992,-0.00366216525520713,0.119386587319752
1580421550.4589,-1.29274433508812,0.0202639810788128,0.0783703364614325
1580421550.46289,-1.28249027237354,0.0329594872968642,0.0349126420996413
1580421550.46688,-1.28102540627146,0.0427252613107498,-0.00268558785381856
1580421550.47088,-1.28688487067979,0.0549324788281069,-0.0354009308003356
1580421550.47487,-1.30641641870756,0.0700694285496297,-0.0549324788281069
1580421550.47886,-1.33962005035477,0.0910658426794839,-0.0441901274128327
1580421550.48286,-1.37526512550546,0.125246051728084,-0.0163576714732585
1580421550.48685,-1.40456244754711,0.161379415579461,0.0285648889906156
1580421550.49084,-1.43483634699016,0.200442511635003,0.0764171816586554
1580421550.49484,-1.45973907072557,0.225833524071106,0.12475776302739
1580421550.49883,-1.47829404135195,0.235111009384298,0.165285725185015
1580421550.50283,-1.4914778362707,0.226321812771801,0.196536202029449
1580421550.50682,-1.48903639276722,0.205325398641946,0.216067750057221
1580421550.51081,-1.47975890745403,0.176028076600289,0.214114595254443
1580421550.5148,-1.4743877317464,0.155031662470435,0.215579461356526
1580421550.51879,-1.48171206225681,0.138429846646829,0.238529030289158
1580421550.52279,-1.49636072327764,0.119874876020447,0.273685816739146
1580421550.52678,-1.50417334248875,0.0993667505912867,0.310795757991912
1580421550.53077,-1.5080796520943,0.0666514076447697,0.335210193026626
1580421550.53477,-1.5080796520943,0.0358892195010299,0.341557946135651
1580421550.53876,-1.49782558937972,0.00561532005798426,0.366948958571754
1580421550.54275,-1.47878233005264,-0.034424353398947,0.435309376668954
1580421550.54675,-1.45925078202487,-0.0876478217746239,0.519783321889069
1580421550.55074,-1.44313725490196,-0.167238879987792,0.595468070496683
1580421550.55474,-1.41530479896239,-0.271244373235676,0.623300526436257
1580421550.55873,-1.36989394979782,-0.394293125810636,0.581795986877243
1580421550.56272,-1.31813534752422,-0.506599526970321,0.510017547875183
1580421550.56672,-1.26979476615549,-0.586678873884184,0.42456702525368
1580421550.57071,-1.24196231021591,-0.635996032654306,0.343511100938429
1580421550.5747,-1.23121995880064,-0.641855497062638,0.262455176623178
1580421550.5787,-1.24879835202563,-0.606210421911955,0.194094758525978
1580421550.58269,-1.27907225146868,-0.543709468223087,0.140383001449607
1580421550.58668,-1.32301823453117,-0.45288776989395,0.0905775539787896
1580421550.59068,-1.38210116731518,-0.347417410543985,0.0124513618677042
1580421550.5947,-1.45827420462348,-0.246341649500266,-0.116945143816281
1580421550.59869,-1.51833371480888,-0.161379415579461,-0.309330891889831
1580421550.60268,-1.55007248035401,-0.0891126878767068,-0.569588769359884
1580421550.60668,-1.5339589532311,-0.0300297550926985,-0.843030441748684
1580421550.61067,-1.49196612497139,0.0129396505683985,-1.08131532768749
1580421550.61466,-1.45241474021515,0.0612802319371326,-1.23756771190967
1580421550.61866,-1.42214084077211,0.122804608224612,-1.23219653620203
1580421550.62265,-1.40798046845197,0.206790264744029,-1.09303425650416
1580421550.62664,-1.42848859388113,0.306889448386357,-0.88697642481117
1580421550.63064,-1.47487602044709,0.390875104905774,-0.665781643396658
1580421550.63463,-1.52419317921721,0.462653543907834,-0.523689631494621
1580421550.63862,-1.57448691538872,0.506111238269629,-0.457282368200199
1580421550.64262,-1.62673380636301,0.530525673304343,-0.432867933165484
1580421550.64661,-1.69118791485466,0.519295033188374,-0.416266117341879
1580421550.6506,-1.76345464255741,0.456794079499502,-0.396734569314107
1580421550.6546,-1.82742046234836,0.332768749523154,-0.350835431448845
1580421550.65859,-1.8674601358053,0.155031662470435,-0.307866025787748
1580421550.66259,-1.87087815671016,-0.0563973449301898,-0.282475013351645
1580421550.66658,-1.85574120698863,-0.253177691309988,-0.264896620126651
1580421550.67057,-1.8240024414435,-0.401129167620356,-0.24682993820096
1580421550.67456,-1.76540779736019,-0.464118410009918,-0.228274967574578
1580421550.67855,-1.68630502784771,-0.451911192492561,-0.212161440451666
1580421550.68255,-1.59548332951858,-0.394293125810636,-0.204348821240558
1580421550.68654,-1.52321660181582,-0.317143511100939,-0.212649729152361
1580421550.69053,-1.45973907072557,-0.247318226901655,-0.239505607690546
1580421550.69453,-1.40065613794156,-0.199465934233615,-0.259037155718319
1580421550.69852,-1.35573357747768,-0.175051499198901,-0.281010147249562
1580421550.70251,-1.33083085374228,-0.161867704280155,-0.291752498664836
1580421550.70651,-1.31374074921798,-0.170168612191958,-0.296635385671779
1580421550.7105,-1.30543984130617,-0.186282139314869,-0.300541695277333
1580421550.71449,-1.29176775768673,-0.201907377737086,-0.314213778896773
1580421550.71849,-1.2693064774548,-0.213626306553749,-0.328862439917602
1580421550.72248,-1.24684519722286,-0.218509193560692,-0.353276874952316
1580421550.72648,-1.21510643167773,-0.202883955138475,-0.380132753490502
1580421550.73047,-1.18141451132982,-0.172121766994735,-0.404058899824522
1580421550.73446,-1.14381628137636,-0.132082093537804,-0.416754406042573
1580421550.73846,-1.11207751583123,-0.0813000686655982,-0.423590447852293
1580421550.74245,-1.07643244068055,-0.0168459601739528,-0.41528953994049
1580421550.74644,-1.04469367513542,0.0471198596169984,-0.398687724116884
1580421550.75044,-1.00807202258335,0.104737926298924,-0.379156176089113
1580421550.75442,-0.975356679636835,0.156984817273212,-0.358648050659953
1580421550.75842,-0.939223315785458,0.194094758525978,-0.340581368734265
1580421550.76241,-0.904554818036164,0.214602883955138,-0.322514686808576
1580421550.7664,-0.860608834973679,0.225345235370412,-0.312260624093996
1580421550.7704,-0.812756542305639,0.232181277180132,-0.309819180590525
1580421550.77439,-0.756115053025102,0.221438925764858,-0.315678644998856
1580421550.77839,-0.705821316853589,0.209719996948195,-0.323491264209965
1580421550.78238,-0.656015869382772,0.191653315022506,-0.339116502632182
1580421550.78637,-0.606698710612649,0.168703746089875,-0.352788586251622
1580421550.79037,-0.566170748455024,0.147707331960021,-0.379644464789807
1580421550.79436,-0.518806744487678,0.129640650034332,-0.400152590218967
1580421550.79835,-0.48023193713283,0.115968566414892,-0.428473334859236
1580421550.80235,-0.439703974975204,0.10766765850309,-0.462165255207141
1580421550.80634,-0.406012054627299,0.0979018844892039,-0.495857175555047
1580421550.81033,-0.367925535973145,0.0920424200808725,-0.526619363698787
1580421550.81433,-0.333745326924545,0.0842298008697639,-0.554940108339055
1580421550.81832,-0.300541695277333,0.0769054703593497,-0.580331120775158
1580421550.82231,-0.267338063630122,0.0686045624475469,-0.604257267109178
1580421550.82631,-0.235599298084992,0.0651865415426869,-0.617441062027924
1580421550.8303,-0.207766842145418,0.0656748302433812,-0.632089723048752
1580421550.83432,-0.178469520103761,0.0690928511482412,-0.634531166552224
1580421550.83831,-0.151125352864881,0.0778820477607383,-0.630624856946669
1580421550.84231,-0.130128938735027,0.0817883573662925,-0.614023041123064
1580421550.8463,-0.11792172121767,0.0949721522850382,-0.588143739986267
1580421550.85029,-0.0861829556725411,0.0939955748836496,-0.554940108339055
1580421550.85429,-0.0656748302433812,0.0549324788281069,-0.509040970473793
1580421550.85828,-0.0598153658350498,0.00219729915312428,-0.456794079499504
1580421550.86227,-0.0554207675288012,-0.0563973449301898,-0.393804837109942
1580421550.86627,-0.0578622110322726,-0.11108567940795,-0.320561532005799
1580421550.87026,-0.0710460059510183,-0.155519951171129,-0.251712825207905
1580421550.87425,-0.0886243991760125,-0.196047913328755,-0.170168612191958
1580421550.87825,-0.109620813305867,-0.218020904859998,-0.0837415121690697
1580421550.88224,-0.145754177157244,-0.218020904859998,0.00268558785381856
1580421550.88623,-0.183352407110704,-0.198489356832226,0.0900892652780954
1580421550.89023,-0.232181277180132,-0.178469520103761,0.168703746089875
1580421550.89422,-0.296635385671779,-0.164309147783626,0.24682993820096
1580421550.89822,-0.365484092469673,-0.158937972075989,0.314213778896772
1580421550.90221,-0.44263370717937,-0.168215457389181,0.36987869077592
1580421550.9062,-0.527595941100175,-0.186282139314869,0.433844510566871
1580421550.9102,-0.614511329823758,-0.202395666437781,0.506111238269629
1580421550.91418,-0.686289768825818,-0.221927214465552,0.605722133211263
1580421550.91818,-0.778088044556345,-0.238040741588463,0.734630350194553
1580421550.92217,-0.883070115205616,-0.242435339894712,0.89381246662089
1580421550.92616,-1.01149004348821,-0.257572289616236,1.0554360265507
1580421550.93016,-1.15407034409094,-0.284428168154422,1.19069199664301
1580421550.93415,-1.29323262378882,-0.329350728618296,1.25905241474021
1580421550.93814,-1.38503089951934,-0.404547188525216,1.26393530174716
1580421550.94214,-1.43727779049363,-0.481696803234913,1.25123979552911
1580421550.94613,-1.49831387808042,-0.51099412527657,1.29127946898604
1580421550.95013,-1.59548332951858,-0.464118410009918,1.35622186617838
1580421550.95412,-1.68972304875257,-0.373785000381476,1.34401464866102
1580421550.95811,-1.72048523689631,-0.281010147249562,1.22291905088884
1580421550.96211,-1.65749599450675,-0.206790264744029,1.02369726100557
1580421550.9661,-1.51979858091096,-0.176516365300984,0.790783550774396
1580421550.97009,-1.34645609216449,-0.181399252307926,0.57007705806058
1580421550.97409,-1.18385595483329,-0.208743419546806,0.385992217898831
1580421550.97808,-1.06080720225834,-0.245365072098878,0.27417410543984
1580421550.98207,-1.00611886778058,-0.283451590753033,0.247806515602349
1580421550.98607,-0.997329671168078,-0.309330891889831,0.288822766460669
1580421550.99006,-1.02174410620279,-0.320561532005799,0.371343556878003
1580421550.99408,-1.04518196383612,-0.323979552910659,0.47925535973144
1580421550.99807,-1.05201800564584,-0.311284046692608,0.58033112077516
1580421551.00207,-1.04371709773404,-0.301029983978028,0.666758220798048
1580421551.00606,-1.01881437399863,-0.278080415045396,0.750743877317465
1580421551.01005,-1.00318913557641,-0.231204699778743,0.907972838941024
1580421551.01405,-0.984634164950027,-0.170168612191958,1.0979171435111
1580421551.01804,-0.929945830472267,-0.101808194094758,1.17799649042496
1580421551.02203,-0.842053864347296,-0.0368657969024184,1.17262531471733
1580421551.02603,-0.76734569314107,0.0144045166704814,0.998794537270161
1580421551.03002,-0.700938429846646,0.0749523155565726,0.652597848477914
1580421551.03401,-0.699473563744563,0.174563210498206,0.207766842145418
1580421551.03801,-0.755138475623713,0.307377737087052,-0.344487678339819
1580421551.042,-0.793224994277868,0.399664301518271,-0.82545204852369
1580421551.04599,-0.839612420843824,0.437262531471731,-1.10572976272221
1580421551.04999,-0.927504386968796,0.47241931792172,-1.09547570000763
1580421551.05398,-1.02906843671321,0.565194171053637,-0.803479056992447
1580421551.05797,-1.13307392996109,0.759533073929962,-0.401129167620356
1580421551.06197,-1.28053711757076,1.00465400167849,-0.0456549935149155
1580421551.06596,-1.47145799954223,1.09742885481041,0.140383001449607
1580421551.06996,-1.68630502784771,0.855237659266042,0.176028076600289
1580421551.07394,-1.86111238269627,0.189211871519035,0.157473105973907
1580421551.07794,-1.93630884260319,-0.627695124742504,0.198977645532921
1580421551.08193,-1.89382772564279,-0.640390630960555,0.430914778362705
1580421551.08592,-2.08279545281147,-0.253665980010682,0.812756542305639
1580421551.08992,-2.32205691615168,0.131105516136415,1.1062180514229
1580421551.09391,-2.23514152742809,0.205813687342641,0.93824673838407
1580421551.0979,-1.91482413977264,-0.0046387426565957,0.37329671168078
1580421551.1019,-1.52614633401999,-0.261966887922485,-0.182864118410009
1580421551.10589,-1.15309376668955,-0.462653543907836,-0.484626535439078
1580421551.10988,-0.868909742885482,-0.549080643930724,-0.524177920195315
1580421551.11388,-0.688731212329289,-0.522224765392538,-0.486091401541161
1580421551.11787,-0.573006790264744,-0.433844510566873,-0.457282368200199
1580421551.12187,-0.485114824139773,-0.348882276646068,-0.464606698710613
1580421551.12586,-0.41870756084535,-0.284916456855116,-0.482673380636301
1580421551.12985,-0.379644464789807,-0.211673151750972,-0.487556267643244
1580421551.13385,-0.375738155184253,-0.121828030823224,-0.498298619058518
1580421551.13784,-0.394293125810636,-0.00708018616006711,-0.552986953536278
1580421551.14183,-0.426520180056459,0.11450370031281,-0.672129396505683
1580421551.14583,-0.458747234302281,0.232669565880826,-0.829846646829939
1580421551.14982,-0.511482413977264,0.336675059128709,-0.927504386968796
1580421551.15381,-0.608651865415426,0.439703974975203,-0.94166475928893
1580421551.1578,-0.755626764324408,0.554451819638363,-0.864026855878539
1580421551.16179,-0.939223315785458,0.688731212329291,-0.736583504997329
1580421551.16579,-1.15114061188678,0.846936751354239,-0.603768978408484
1580421551.16978,-1.35915159838254,1.02320897230488,-0.49390402075227
1580421551.17378,-1.49782558937972,1.13405050736248,-0.439703974975204
1580421551.17777,-1.52614633401999,1.07057297627222,-0.425055313954376
1580421551.18176,-1.47145799954223,0.853772793163959,-0.378179598687725
1580421551.18576,-1.41286335545892,0.594979781795988,-0.320561532005799
1580421551.18975,-1.36696421759365,0.405035477225908,-0.308354314488442
1580421551.19374,-1.34303807125963,0.30151827267872,-0.309330891889831
1580421551.19774,-1.32106507972839,0.265384908827343,-0.311284046692608
1580421551.20173,-1.27077134355688,0.239505607690546,-0.318120088502328
1580421551.20572,-1.19020370794232,0.198489356832226,-0.321538109407188
1580421551.20972,-1.10914778362707,0.164309147783626,-0.297611963073168
1580421551.21371,-1.02760357061112,0.150148775463492,-0.252201113908599
1580421551.2177,-0.960708018616007,0.132082093537804,-0.199954222934309
1580421551.2217,-0.909925993743801,0.0944838635843439,-0.162355992980849
1580421551.22569,-0.866956588082704,0.0261234454871442,-0.146242465857938
1580421551.22968,-0.824963759822996,-0.0700694285496297,-0.143801022354467
1580421551.2337,-0.788342107270925,-0.172610055695429,-0.145754177157244
1580421551.2377,-0.765392538338293,-0.261478599221791,-0.141847867551689
1580421551.24169,-0.766369115739682,-0.329350728618296,-0.126222629129472
1580421551.24568,-0.786877241168842,-0.37085526817731,-0.0974135957885096
1580421551.24968,-0.822522316319525,-0.38452735179675,-0.0612802319371326
1580421551.25367,-0.868909742885482,-0.366948958571756,-0.0349126420996413
1580421551.25766,-0.931898985275044,-0.316166933699551,-0.0124513618677042
1580421551.26166,-0.980727855344472,-0.243900205996795,-0.00122072175173571
1580421551.26565,-1.01734950789654,-0.162355992980849,-0.00659189745937283
1580421551.26964,-1.05055313954376,-0.0778820477607383,-0.0134279392690928
1580421551.27364,-1.06569008926528,0.00317387655451284,-0.0251468680857556
1580421551.27763,-1.07936217288472,0.077393759060044,-0.0227054245822842
1580421551.28163,-1.07740901808194,0.158937972075989,-0.0217288471808956
1580421551.28562,-1.06080720225834,0.226810101472495,-0.0139162279697871
1580421551.28961,-1.03883421072709,0.27417410543984,-0.0124513618677042
1580421551.29361,-1.01832608529793,0.310795757991912,-0.0173342488746471
1580421551.2976,-0.988052185854887,0.323979552910657,-0.0139162279697871
1580421551.30159,-0.955825131609064,0.330327306019683,-0.024170290684367
1580421551.30559,-0.875257495994507,0.275638971541923,-0.0314946211947813
1580421551.30958,-0.826916914625773,0.27417410543984,-0.0417486839093613
1580421551.31357,-0.601327534905012,0.235111009384298,-0.0339360646982527
1580421551.31756,-1.09303425650416,0.432379644464788,-0.140383001449607
1580421551.32155,-0.948012512397955,0.146730754558632,-0.0969253070878153
1580421551.32555,-0.793224994277868,0.0729991607537954,-0.0666514076447697
1580421551.32954,-0.777111467154956,0.0759288929579611,-0.0827649347676811
1580421551.33353,-0.800549324788282,0.0397955291065841,-0.0939955748836496
1580421551.33753,-0.809338521400779,0.0192874036774242,-0.0920424200808725
1580421551.34152,-0.815686274509805,-0.00561532005798426,-0.0832532234683754
1580421551.34552,-0.838147554741742,-0.0163576714732585,-0.0754406042572668
1580421551.34951,-0.861585412375067,-0.0129396505683985,-0.0700694285496297
1580421551.3535,-0.90064850843061,0.00659189745937283,-0.0695811398489354
1580421551.3575,-0.932875562676433,0.0266117341878385,-0.067139696345464
1580421551.36149,-0.969985503929198,0.0593270771343555,-0.0549324788281069
1580421551.36548,-1.00953688868544,0.0935072861829553,-0.0261234454871442
1580421551.36948,-1.04371709773404,0.136476691844052,0.00805676356145568
1580421551.37347,-1.06715495536736,0.179934386205844,0.041260395208667
1580421551.37746,-1.07936217288472,0.221438925764858,0.0622568093385212
1580421551.38146,-1.07936217288472,0.242923628595406,0.0759288929579611
1580421551.38545,-1.07643244068055,0.249271381704432,0.0920424200808725
1580421551.38944,-1.0720378423743,0.24682993820096,0.0993667505912867
1580421551.39343,-1.06861982146944,0.233646143282215,0.0949721522850382
1580421551.39743,-1.06080720225834,0.208743419546806,0.0754406042572668
1580421551.40142,-1.03981078812848,0.172121766994735,0.048096437018387
1580421551.40541,-1.01539635309377,0.127199206530861,0.024170290684367
1580421551.40941,-1.00221255817502,0.0769054703593497,0.0163576714732585
1580421551.4134,-1.00758373388266,0.0305180437933927,0.0236820019836728
1580421551.41739,-1.01539635309377,-0.0144045166704814,0.0437018387121384
1580421551.42139,-1.02613870450904,-0.0622568093385212,0.0803234912642097
1580421551.42538,-1.04615854123751,-0.110597390707255,0.129640650034332
1580421551.42937,-1.08278019378958,-0.150637064164187,0.182864118410009
1580421551.43337,-1.12965590905623,-0.184328984512092,0.238529030289158
1580421551.43736,-1.17750820172427,-0.217044327458609,0.293705653467612
1580421551.44135,-1.22194247348745,-0.229739833676661,0.353765163653009
1580421551.44535,-1.25661097123674,-0.232669565880826,0.411383230334934
1580421551.44934,-1.2859082932784,-0.225833524071106,0.444098573281451
1580421551.45334,-1.30397497520409,-0.213138017853055,0.42798504615854
1580421551.45733,-1.320088502327,-0.199954222934309,0.364507515068283
1580421551.46132,-1.33278400854505,-0.197512779430838,0.280521858548866
1580421551.46531,-1.3371786068513,-0.204837109941252,0.213626306553749
1580421551.46931,-1.33864347295338,-0.205813687342641,0.159426260776684
1580421551.47333,-1.34401464866102,-0.197024490730143,0.136476691844052
1580421551.47732,-1.34840924696727,-0.168215457389181,0.128175783932249
1580421551.48131,-1.34987411306935,-0.119874876020447,0.137453269245441
1580421551.48531,-1.34645609216449,-0.0700694285496297,0.162844281681544
1580421551.4893,-1.33669031815061,-0.0256351567864499,0.195071335927366
1580421551.49329,-1.32692454413672,0.00268558785381856,0.221438925764858
1580421551.49729,-1.31911192492561,0.0217288471808956,0.234134431982909
1580421551.50128,-1.32448310063325,0.0417486839093613,0.234134431982909
1580421551.50528,-1.33131914244297,0.0651865415426869,0.235599298084992
1580421551.50927,-1.34108491645686,0.096437018387121,0.247806515602349
1580421551.51326,-1.35182726787213,0.114991989013504,0.26392004272526
1580421551.51726,-1.35378042267491,0.117433432516975,0.269779507133592
1580421551.52125,-1.34499122606241,0.0974135957885096,0.268802929732203
1580421551.52524,-1.33473716334783,0.0744640268558783,0.2775921263447
1580421551.52924,-1.32497138933394,0.0554207675288012,0.294193942168306
1580421551.53323,-1.3205767910277,0.0490730144197755,0.336675059128709
1580421551.53722,-1.33278400854505,0.0549324788281069,0.398687724116883
1580421551.54122,-1.34303807125963,0.0500495918211641,0.439703974975203
1580421551.54521,-1.3542687113756,0.0402838178072784,0.453864347295337
1580421551.5492,-1.3718471046006,0.0266117341878385,0.437262531471731
1580421551.55319,-1.38991378652628,0.0158693827725642,0.410406652933546
1580421551.55718,-1.41628137636378,0.0144045166704814,0.416754406042571
1580421551.56118,-1.43630121309224,0.00659189745937283,0.45191119249256
1580421551.56517,-1.44557869840543,-0.00610360875867855,0.471442740520331
1580421551.56917,-1.45387960631724,-0.0324711985961699,0.47925535973144
1580421551.57316,-1.44460212100404,-0.0642099641412983,0.494880598153657
1580421551.57715,-1.41335164415961,-0.112062256809338,0.490485999847408
1580421551.58115,-1.35719844357977,-0.175539787899595,0.465583276112
1580421551.58514,-1.27614251926452,-0.250247959105822,0.447516594186311
1580421551.58913,-1.19850461585412,-0.315190356298162,0.450446326390477
1580421551.59313,-1.15455863279164,-0.351812008850233,0.483161669336994
1580421551.59712,-1.14137483787289,-0.363530937666896,0.490974288548102
1580421551.60111,-1.15651178759441,-0.351323720149539,0.463141832608528
1580421551.60511,-1.1916685740444,-0.307377737087053,0.40405889982452
1580421551.6091,-1.24049744411383,-0.232669565880826,0.334721904325932
1580421551.61309,-1.30104524299992,-0.138429846646829,0.2434119172961
1580421551.61709,-1.36989394979782,-0.0354009308003356,0.139894712748912
1580421551.62108,-1.43288319218738,0.0759288929579611,0.0144045166704814
1580421551.62507,-1.49050125886931,0.164309147783626,-0.147219043259327
1580421551.62907,-1.55739681086442,0.249271381704432,-0.351812008850233
1580421551.63309,-1.60622568093385,0.330327306019683,-0.613534752422369
1580421551.63708,-1.63259327077134,0.408941786831463,-0.870862897688259
1580421551.64107,-1.64284733348592,0.480720225833522,-1.05348287174792
1580421551.64507,-1.63356984817273,0.533943694209203,-1.15895323109789
1580421551.64906,-1.6106202792401,0.573983367666134,-1.16823071641108
1580421551.65305,-1.57253376058595,0.609628442816817,-1.0891279468986
1580421551.65705,-1.54274814984359,0.605233844510568,-0.925062943465324
1580421551.66104,-1.53981841763943,0.531502250705731,-0.727306019684137
1580421551.66504,-1.56667429617761,0.365484092469671,-0.552986953536278
1580421551.66903,-1.6194094758526,0.177004654001678,-0.431403067063401
1580421551.67302,-1.69509422446021,0.0373540856031127,-0.355230029755093
1580421551.67701,-1.79275196459907,-0.0397955291065841,-0.306889448386359
1580421551.68101,-1.8923628595407,-0.10424963759823,-0.272220950637065
1580421551.685,-1.96169985503929,-0.193606469825284,-0.240970473792629
1580421551.689,-1.99832150759136,-0.293705653467613,-0.199954222934309
1580421551.69299,-2.00418097199969,-0.384039063096056,-0.141847867551689
1580421551.69698,-1.99929808499275,-0.43237964446479,-0.0788586251621268
1580421551.70098,-1.97390707255665,-0.423590447852293,-0.0393072404058898
1580421551.70497,-1.93289082169833,-0.373296711680782,-0.0246585793850613
1580421551.70896,-1.8840619516289,-0.296147096971085,-0.034424353398947
1580421551.71295,-1.82644388494698,-0.220462348363469,-0.0661631189440754
1580421551.71694,-1.77175555046922,-0.159426260776684,-0.115480277714198
1580421551.72094,-1.71804379339284,-0.11792172121767,-0.169192034790569
1580421551.72493,-1.66726176852064,-0.11108567940795,-0.219485770962081
1580421551.72892,-1.61843289845121,-0.129640650034332,-0.250247959105822
1580421551.73292,-1.57546349279011,-0.161379415579461,-0.270267795834288
1580421551.73691,-1.52272831311513,-0.203372243839169,-0.277592126344702
1580421551.74091,-1.4568093385214,-0.249759670405126,-0.284428168154422
1580421551.7449,-1.37868314641032,-0.287846189059282,-0.301518272678722
1580421551.74889,-1.30104524299992,-0.312748912794691,-0.324467841611353
1580421551.75289,-1.22047760738537,-0.314702067597468,-0.346440833142596
1580421551.75688,-1.13844510566873,-0.306889448386359,-0.368902113374533
1580421551.76087,-1.07594415197986,-0.286869611657893,-0.386480506599527
1580421551.76487,-1.02858014801251,-0.245853360799572,-0.393316548409247
1580421551.76886,-1.00221255817502,-0.186770428015564,-0.391851682307164
1580421551.77285,-0.97926298924239,-0.120363164721141,-0.38794537270161
1580421551.77685,-0.961196307316701,-0.0539559014267184,-0.379156176089113
1580421551.78084,-0.949965667200733,0.0158693827725642,-0.376714732585642
1580421551.78483,-0.938735027084764,0.0759288929579611,-0.376714732585642
1580421551.78883,-0.928480964370184,0.135011825741969,-0.374761577782865
1580421551.79282,-0.913832303349356,0.189700160219729,-0.382085908293279
1580421551.79681,-0.884534981307699,0.228274967574578,-0.375249866483559
1580421551.8008,-0.836194399938964,0.249759670405126,-0.379156176089113
1580421551.8048,-0.781994354161899,0.256107423514152,-0.38110933089189
1580421551.80879,-0.723887998779277,0.255130846112763,-0.380132753490502
1580421551.81278,-0.658457312886243,0.242923628595406,-0.378179598687725
1580421551.81678,-0.590096894789044,0.221438925764858,-0.400640878919662
1580421551.82077,-0.514900434882124,0.193118181124589,-0.444586861982147
1580421551.82476,-0.442145418478676,0.167238879987792,-0.506599526970321
1580421551.82876,-0.371343556878005,0.140383001449607,-0.563729304951552
1580421551.83275,-0.300541695277333,0.128175783932249,-0.606210421911955
1580421551.83674,-0.230716411078049,0.122316319523918,-0.632089723048752
1580421551.84074,-0.163820859082932,0.131593804837109,-0.641367208361943
1580421551.84473,-0.11108567940795,0.151125352864881,-0.647714961470969
1580421551.84872,-0.073975738155184,0.172121766994735,-0.676035706111238
1580421551.85272,-0.034424353398947,0.187747005416952,-0.732677195391775
1580421551.85671,-0.00268558785381856,0.204348821240558,-0.820569161516747
1580421551.8607,0.0441901274128327,0.260013733119706,-0.950942244602121
1580421551.8647,0.135988403143358,0.324956130312046,-1.11110093842985
1580421551.86869,0.253177691309986,0.35962462806134,-1.27125963225757
1580421551.87271,0.329350728618294,0.275150682841229,-1.39186694132906
1580421551.8767,0.402594033722437,0.0373540856031127,-1.44411383230335
1580421551.8807,0.476813916227968,-0.184328984512092,-1.36940566109712
1580421551.88469,0.465094987411305,-0.300053406576639,-1.16188296330205
1580421551.88868,0.353765163653009,-0.315190356298162,-0.82545204852369
1580421551.89268,0.166262302586404,-0.251712825207905,-0.435309376668956
1580421551.89667,-0.067139696345464,-0.159426260776684,-0.11108567940795
1580421551.90067,-0.292240787365531,-0.0935072861829553,0.11450370031281
1580421551.90466,-0.475837338826581,-0.0710460059510183,0.258548867017623
1580421551.90865,-0.620370794232089,-0.070557717250324,0.371343556878003
1580421551.91265,-0.740978103303577,-0.0935072861829553,0.495368886854351
1580421551.91664,-0.841565575646602,-0.133058670939192,0.648203250171665
1580421551.92063,-0.934340428778516,-0.181887541008621,0.823010605020219
1580421551.92463,-1.0041657129778,-0.257084000915542,0.994888227664607
1580421551.92862,-1.0642252231632,-0.36060120546273,1.12086671244373
1580421551.93261,-1.10963607232776,-0.48706797894255,1.18825055313954
1580421551.93661,-1.13600366216525,-0.635996032654306,1.15504692149233
1580421551.9406,-1.12574959945067,-0.812756542305639,1.0295567254139
1580421551.94459,-1.04078736552987,-0.988540474555581,0.864515144579233
1580421551.94859,-0.948989089799344,-1.06764324406805,0.793224994277868
1580421551.95257,-0.927504386968796,-0.991470206759747,0.895765621423667
1580421551.95657,-1.05152971694514,-0.791760128175785,1.11110093842985
1580421551.96056,-1.26735332265202,-0.54517433432517,1.34694438086519
1580421551.96456,-1.49001297016861,-0.313237201495385,1.4905012588693
1580421551.96855,-1.63405813687343,-0.133546959639887,1.45192645151446
1580421551.97254,-1.63942931258106,0.0192874036774242,1.225848783093
1580421551.97654,-1.50222018768597,0.154055085069047,0.872327763790341
1580421551.98053,-1.30153353170062,0.231692988479438,0.478767071030745
1580421551.98452,-1.1237964446479,0.218997482261386,0.10424963759823
1580421551.98852,-0.98268101014725,0.152101930266269,-0.179934386205844
1580421551.99251,-0.868909742885482,0.0656748302433812,-0.35376516365301
1580421551.9965,-0.80494392309453,0.00952162966353853,-0.378667887388419
1580421552.0005,-0.785412375066759,-0.0207522697795071,-0.255130846112765
1580421552.00449,-0.805432211795225,-0.0251468680857556,-0.0227054245822842
1580421552.00848,-0.841565575646602,-0.0202639810788128,0.266849774929426
1580421552.01248,-0.875257495994507,-0.00854505226214997,0.531990539406426
1580421552.01647,-0.913344014648661,-0.0046387426565957,0.736583504997331
1580421552.02046,-0.940199893186847,-0.00366216525520713,0.850354772259099
1580421552.02446,-0.953383688105593,-0.0183108262760356,0.872816052491036
1580421552.02845,-0.965102616922255,-0.0437018387121384,0.844007019150073
1580421552.03247,-0.980727855344472,-0.070557717250324,0.772716868848708
1580421552.03646,-1.01490806439307,-0.0930189974822611,0.724864576180668
1580421552.04046,-1.08180361638819,-0.103273060196841,0.678965438315405
1580421552.04445,-1.15455863279164,-0.114015411612115,0.614023041123065
1580421552.04844,-1.22047760738537,-0.127199206530861,0.562752727550166
1580421552.05244,-1.2517280842298,-0.149660486762798,0.532967116807814
1580421552.05643,-1.27370107576104,-0.172121766994735,0.499763485160599
1580421552.06043,-1.3029983978027,-0.168703746089875,0.457282368200197
1580421552.06442,-1.32790112153811,-0.144777599755855,0.408941786831463
1580421552.06841,-1.3625696192874,-0.0876478217746239,0.370366979476614
1580421552.0724,-1.38649576562142,0.00561532005798426,0.331303883421072
1580421552.0764,-1.41725795376516,0.105714503700312,0.272709239337757
1580421552.08039,-1.49538414587625,0.204348821240558,0.203860532539863
1580421552.08439,-1.60573739223316,0.289799343862057,0.173586633096818
1580421552.08838,-1.67214465552758,0.349858854047454,0.209719996948195
1580421552.09237,-1.68386358434424,0.374273289082169,0.26392004272526
1580421552.09637,-1.69655909056229,0.391363393606468,0.298588540474555
1580421552.10036,-1.71755550469215,0.379644464789806,0.282963302052337
1580421552.10435,-1.74782940413519,0.331303883421072,0.244388494697489
1580421552.10835,-1.75710688944839,0.223880369268329,0.209719996948195
1580421552.11233,-1.7732204165713,0.0861829556725411,0.178957808804455
1580421552.11633,-1.77615014877546,-0.0656748302433812,0.160402838178072
1580421552.12032,-1.74099336232547,-0.244388494697489,0.156496528572518
1580421552.12432,-1.61745632104982,-0.452399481193256,0.147707331960021
1580421552.12831,-1.38991378652628,-0.652597848477912,0.0666514076447697
1580421552.1323,-1.10817120622568,-0.788342107270925,-0.10766765850309
1580421552.1363,-0.841565575646602,-0.842053864347296,-0.296635385671779
1580421552.14029,-0.615487907225146,-0.823987182421607,-0.437750820172427
1580421552.14428,-0.433356221866179,-0.737071793698023,-0.499275196459907
1580421552.14828,-0.327397573815519,-0.607186999313344,-0.497810330357824
1580421552.15227,-0.277592126344702,-0.448004882887007,-0.46314183260853
1580421552.15626,-0.256107423514154,-0.292729076066225,-0.449958037689784
1580421552.16026,-0.233646143282215,-0.176028076600289,-0.482185091935607
1580421552.16425,-0.201419089036392,-0.100343327992675,-0.571541924162661
1580421552.16824,-0.170168612191958,-0.0559090562294955,-0.698985275043869
1580421552.17224,-0.148195620660715,-0.0251468680857556,-0.822522316319525
1580421552.17623,-0.165774013885709,0.0197756923781185,-0.913344014648661
1580421552.18022,-0.244388494697489,0.0988784618905925,-0.944106202792401
1580421552.18422,-0.397711146715496,0.218997482261386,-0.91090257114519
1580421552.18821,-0.650644693675135,0.388921950102997,-0.789806973373008
1580421552.1922,-0.980727855344472,0.612069886320288,-0.619394216830701
1580421552.19619,-1.34059662775616,0.915297169451438,-0.45288776989395
1580421552.20019,-1.63991760128176,1.34889753566796,-0.362066071564813
1580421552.20418,-1.75906004425116,1.7727321278706,-0.40503547722591
1580421552.20817,-1.69802395666438,1.81423666742962,-0.499275196459907
1580421552.21217,-1.57302204928664,1.38161287861448,-0.444586861982147
1580421552.21616,-1.46315709163043,0.81177996490425,-0.281986724650951
1580421552.22015,-1.4055390249485,0.460700389105057,-0.164797436484321
1580421552.22415,-1.39870298313878,0.384039063096054,-0.0988784618905925
1580421552.22814,-1.35085069047074,0.381597619592583,-0.105714503700312
1580421552.23213,-1.23512626840619,0.368902113374531,-0.157961394674601
1580421552.23613,-1.10719462882429,0.371831845578697,-0.196536202029449
1580421552.24012,-1.0124666208896,0.3801327534905,-0.218997482261386
1580421552.24411,-0.953383688105593,0.396734569314106,-0.207278553444723
1580421552.24811,-0.911879148546578,0.398687724116883,-0.176516365300984
1580421552.2521,-0.882581826504921,0.374273289082169,-0.150637064164187
1580421552.2561,-0.853284504463264,0.309819180590523,-0.126222629129472
1580421552.26009,-0.832776379034105,0.220950637064163,-0.10766765850309
1580421552.26408,-0.817151140611887,0.11792172121767,-0.0974135957885096
1580421552.26808,-0.81861600671397,0.0168459601739528,-0.0920424200808725
1580421552.27209,-0.824475471122302,-0.0793469138628211,-0.0886243991760125
1580421552.27609,-0.83570611123827,-0.165774013885709,-0.0759288929579611
1580421552.28008,-0.846936751354239,-0.23999389639124,-0.0651865415426869
1580421552.28408,-0.862073701075762,-0.298588540474556,-0.0549324788281069
1580421552.28807,-0.88355840390631,-0.337163347829405,-0.0388189517051956
1580421552.29206,-0.913832303349356,-0.349858854047456,-0.0368657969024184
1580421552.29605,-0.950453955901427,-0.331303883421073,-0.0368657969024184
1580421552.30005,-0.980727855344472,-0.289799343862059,-0.0339360646982527
1580421552.30404,-0.997329671168078,-0.234622720683603,-0.0383306630045013
1580421552.30804,-1.00807202258335,-0.168703746089875,-0.0397955291065841
1580421552.31203,-1.00709544518196,-0.0993667505912867,-0.0397955291065841
1580421552.31602,-1.00660715648127,-0.0173342488746471,-0.0349126420996413
1580421552.32002,-0.983657587548638,0.0358892195010299,-0.027588311589227
1580421552.32401,-0.94508278019379,0.107179369802395,-0.0212405584802013
1580421552.328,-0.920668345159076,0.167727168688486,-0.0183108262760356
1580421552.332,-0.656504158083466,0.118898298619058,0.00317387655451284
1580421552.33599,-1.13795681696803,0.3801327534905,-0.0983901731898982
1580421552.33998,-0.99293507286183,0.115968566414892,-0.0520027466239412
1580421552.34398,-0.889906157015336,0.128175783932249,-0.034424353398947
1580421552.34797,-0.838147554741742,0.116945143816281,-0.0520027466239412
1580421552.35199,-0.853772793163959,0.118898298619058,-0.073975738155184
1580421552.35598,-0.846448462653544,0.113527122911421,-0.0793469138628211
1580421552.35998,-0.847913328755627,0.119874876020447,-0.0729991607537954
1580421552.36397,-0.857190814068819,0.136476691844052,-0.0793469138628211
1580421552.36796,-0.88014038300145,0.162844281681544,-0.0905775539787896
1580421552.37196,-0.889417868314641,0.174563210498206,-0.0900892652780954
1580421552.37595,-0.891859311818113,0.172610055695429,-0.104737926298924
1580421552.37994,-0.903089951934081,0.158937972075989,-0.112062256809338
1580421552.38394,-0.918715190356298,0.138429846646829,-0.108644235904478
1580421552.38793,-0.929945830472267,0.116456855115587,-0.0988784618905925
1580421552.39192,-0.931898985275044,0.0969253070878153,-0.0842298008697639
1580421552.39592,-0.939711604486153,0.0798352025635154,-0.0681162737468526
1580421552.39991,-0.950942244602121,0.0686045624475469,-0.0568856336308841
1580421552.4039,-0.965102616922255,0.0593270771343555,-0.0661631189440754
1580421552.4079,-0.97584496833753,0.0607919432364383,-0.0759288929579611
1580421552.41189,-0.991958495460441,0.0690928511482412,-0.0822766460669868
1580421552.41589,-1.00611886778058,0.0788586251621268,-0.0979018844892039
1580421552.41988,-1.0212558175021,0.0925307087815668,-0.112550545510032
1580421552.42387,-1.04078736552987,0.105226214999618,-0.125246051728084
1580421552.42787,-1.0471351186389,0.115968566414892,-0.128175783932249
1580421552.43185,-1.0471351186389,0.118898298619058,-0.122804608224612
1580421552.43585,-1.04029907682918,0.115480277714198,-0.100343327992675
1580421552.43984,-1.03102159151598,0.102784771496147,-0.0651865415426869
1580421552.44383,-1.03150988021668,0.0891126878767068,-0.0187991149767299
1580421552.44783,-1.03541618982223,0.0749523155565726,0.0144045166704814
1580421552.45182,-1.04176394293126,0.0529793240253298,0.0485847257190812
1580421552.45581,-1.04859998474098,0.0246585793850613,0.0783703364614325
1580421552.45981,-1.06471351186389,-0.0100099183642328,0.10083161669337
1580421552.4638,-1.09303425650416,-0.0451667048142212,0.122316319523918
1580421552.46779,-1.12135500114443,-0.0822766460669868,0.144777599755855
1580421552.47179,-1.14235141527428,-0.11450370031281,0.181887541008621
1580421552.47578,-1.15504692149233,-0.148683909361409,0.226810101472495
1580421552.47978,-1.15260547798886,-0.170168612191958,0.271732661936369
1580421552.48377,-1.14479285877775,-0.186282139314869,0.306889448386357
1580421552.48776,-1.15016403448539,-0.193118181124589,0.331792172121766
1580421552.49176,-1.15944151979858,-0.199954222934309,0.327885862516212
1580421552.49575,-1.17018387121385,-0.208743419546806,0.302006561379415
1580421552.49974,-1.17897306782635,-0.227786678873883,0.254642557412069
1580421552.50374,-1.18483253223468,-0.238040741588463,0.191165026321812
1580421552.50773,-1.1921568627451,-0.231692988479438,0.135988403143358
1580421552.51175,-1.19752803845273,-0.200930800335698,0.0939955748836496
1580421552.51574,-1.21022354467079,-0.142336156252384,0.0754406042572668
1580421552.51974,-1.2263370717937,-0.0725108720531011,0.0686045624475469
1580421552.52373,-1.24586861982147,0.00268558785381856,0.0715342946517126
1580421552.52772,-1.25856412603952,0.0676279850461583,0.0729991607537954
1580421552.53172,-1.26832990005341,0.117433432516975,0.0944838635843439
1580421552.53571,-1.2776073853666,0.145265888456549,0.110597390707255
1580421552.5397,-1.2771190966659,0.148195620660715,0.111573968108644
1580421552.5437,-1.27858396276799,0.133058670939192,0.106202792401007
1580421552.54769,-1.28102540627146,0.111573968108644,0.10083161669337
1580421552.55168,-1.28346684977493,0.0935072861829553,0.113038834210727
1580421552.55568,-1.28542000457771,0.0798352025635154,0.118410009918364
1580421552.55967,-1.2942092011902,0.0666514076447697,0.135011825741969
1580421552.56366,-1.29665064469368,0.0559090562294955,0.163820859082932
1580421552.56766,-1.30251010910201,0.0495613031204698,0.183840695811398
1580421552.57165,-1.32155336842908,0.0427252613107498,0.204837109941252
1580421552.57564,-1.34010833905547,0.0500495918211641,0.238529030289158
1580421552.57964,-1.37038223849851,0.0686045624475469,0.286381322957197
1580421552.58363,-1.40065613794156,0.0876478217746239,0.33911650263218
1580421552.58763,-1.43044174868391,0.0891126878767068,0.388921950102997
1580421552.59161,-1.45046158541238,0.0847180895704582,0.4143129625391
1580421552.59561,-1.46266880292973,0.0720225833524069,0.426520180056457
1580421552.5996,-1.46169222552834,0.070557717250324,0.419684138246737
1580421552.60359,-1.4572976272221,0.0690928511482412,0.4143129625391
1580421552.60759,-1.45339131761654,0.0520027466239412,0.426031891355763
1580421552.61158,-1.44216067750057,0.0144045166704814,0.435309376668954
1580421552.61557,-1.41237506675822,-0.0539559014267184,0.406988632028686
1580421552.61957,-1.36354619668879,-0.133546959639887,0.348882276646066
1580421552.62356,-1.30055695429923,-0.214114595254443,0.278568703746089
1580421552.62755,-1.25270466163119,-0.276127260242619,0.222903791866941
1580421552.63155,-1.21120012207217,-0.310795757991913,0.206301976043335
1580421552.63554,-1.17848477912566,-0.331303883421073,0.230228122377355
1580421552.63954,-1.16237125200275,-0.345464255741208,0.279056992446783
1580421552.64353,-1.17213702601663,-0.338628213931488,0.326909285114823
1580421552.64752,-1.21412985427634,-0.320073243305105,0.347905699244677
1580421552.65152,-1.27174792095827,-0.286869611657893,0.337651636530097
1580421552.65551,-1.33522545204852,-0.252201113908599,0.279545281147477
1580421552.6595,-1.40260929274434,-0.213138017853055,0.198489356832226
1580421552.6635,-1.47145799954223,-0.142824444953078,0.107179369802395
1580421552.66749,-1.56032654306859,-0.0422369726100555,-0.037842374303807
1580421552.67151,-1.65896086060883,0.0490730144197755,-0.226321812771801
1580421552.6755,-1.72732127870603,0.0861829556725411,-0.464606698710613
1580421552.67949,-1.73757534142061,0.0617685206378269,-0.724864576180666
1580421552.68349,-1.70095368886854,0.0163576714732585,-0.969497215228504
1580421552.68748,-1.6448004882887,-0.00952162966353853,-1.15260547798886
1580421552.69148,-1.59401846341649,0.0251468680857556,-1.26735332265202
1580421552.69547,-1.567650873579,0.142336156252384,-1.34059662775616
1580421552.69946,-1.5847409781033,0.333257038223849,-1.33962005035477
1580421552.70346,-1.62185091935607,0.582284275577937,-1.27223620965896
1580421552.70745,-1.63552300297551,0.823010605020219,-1.15504692149233
1580421552.71144,-1.61355001144427,0.995864805065995,-1.00807202258335
1580421552.71544,-1.56716258487831,1.05494773785,-0.874280918593119
1580421552.71943,-1.52761120012207,0.969985503929198,-0.747814145113297
1580421552.72342,-1.50759136339361,0.751720454718853,-0.639414053559166
1580421552.72742,-1.5080796520943,0.461188677805751,-0.571541924162661
1580421552.73141,-1.54567788204776,0.156008239871824,-0.531013962005035
1580421552.7354,-1.60671396963455,-0.119874876020447,-0.502204928664073
1580421552.7394,-1.66140230411231,-0.343022812237736,-0.476325627527276
1580421552.74339,-1.69460593575952,-0.489021133745327,-0.432867933165484
1580421552.74739,-1.69997711146715,-0.54175631342031,-0.368902113374533
1580421552.75137,-1.68435187304494,-0.510505836575875,-0.289799343862059
1580421552.75537,-1.65456626230259,-0.444586861982147,-0.215091172655832
1580421552.75936,-1.62331578545815,-0.386968795300222,-0.145265888456549
1580421552.76335,-1.58962386511025,-0.348882276646068,-0.0959487296864268
1580421552.76735,-1.5505607690547,-0.330815594720379,-0.0827649347676811
1580421552.77134,-1.51931029221027,-0.318120088502328,-0.0930189974822611
1580421552.77533,-1.48317692835889,-0.298588540474556,-0.116945143816281
1580421552.77933,-1.45143816281376,-0.280521858548868,-0.153078507667658
1580421552.78332,-1.4226291294728,-0.259037155718319,-0.173586633096818
1580421552.78731,-1.39772640573739,-0.227786678873883,-0.197512779430838
1580421552.79131,-1.36745250629435,-0.188723582818341,-0.217044327458609
1580421552.7953,-1.337666895552,-0.151125352864881,-0.23999389639124
1580421552.79929,-1.31081101701381,-0.11450370031281,-0.260502021820402
1580421552.80329,-1.28297856107424,-0.0861829556725411,-0.269779507133594
1580421552.80728,-1.25026321812772,-0.0686045624475469,-0.276615548943314
1580421552.81128,-1.21559472037842,-0.0627450980392155,-0.273197528038454
1580421552.81527,-1.17897306782635,-0.067139696345464,-0.269779507133594
1580421552.81926,-1.14674601358053,-0.0681162737468526,-0.258060578316931
1580421552.82326,-1.11158922713054,-0.0695811398489354,-0.246341649500266
1580421552.82725,-1.07643244068055,-0.0681162737468526,-0.239017318989852
1580421552.83124,-1.04518196383612,-0.0598153658350498,-0.240970473792629
1580421552.83523,-1.0041657129778,-0.0476081483176927,-0.237552452887769
1580421552.83922,-0.969497215228504,-0.027588311589227,-0.244388494697489
1580421552.84322,-0.927504386968796,-0.0046387426565957,-0.257572289616236
1580421552.84721,-0.881116960402839,0.0192874036774242,-0.266361486228734
1580421552.8512,-0.832776379034105,0.0363775082017241,-0.292729076066225
1580421552.8552,-0.777111467154956,0.0559090562294955,-0.316655222400245
1580421552.85919,-0.731700617990386,0.0695811398489354,-0.338139925230793
1580421552.86319,-0.68433661402304,0.0813000686655982,-0.369878690775922
1580421552.86718,-0.641855497062638,0.0842298008697639,-0.38794537270161
1580421552.87117,-0.600350957503624,0.0861829556725411,-0.399176012817579
1580421552.87517,-0.558358129243915,0.0822766460669868,-0.412848096437019
1580421552.87916,-0.521736476691844,0.0676279850461583,-0.413336385137713
1580421552.88315,-0.492439154650187,0.0490730144197755,-0.419195849546044
1580421552.88715,-0.461188677805753,0.031006332494087,-0.41870756084535
1580421552.89114,-0.434332799267567,0.00708018616006711,-0.416266117341879
1580421552.89513,-0.411383230334936,-0.0197756923781185,-0.403570611123827
1580421552.89913,-0.389898527504387,-0.0441901274128327,-0.39478141451133
1580421552.90312,-0.36401922636759,-0.0676279850461583,-0.388433661402305
1580421552.90711,-0.345952544441902,-0.0886243991760125,-0.373785000381476
1580421552.91113,-0.327885862516213,-0.11108567940795,-0.366948958571756
1580421552.91513,-0.310307469291219,-0.130617227435721,-0.359136339360647
1580421552.91912,-0.293217364766919,-0.148195620660715,-0.35034714274815
1580421552.92311,-0.269779507133594,-0.160402838178072,-0.342046234836348
1580421552.92711,-0.251224536507211,-0.169192034790569,-0.335210193026628
1580421552.9311,-0.237064164187075,-0.172610055695429,-0.33325703822385
1580421552.93509,-0.227298390173189,-0.176516365300984,-0.339604791332876
1580421552.93909,-0.223880369268329,-0.167238879987792,-0.34692912184329
1580421552.94308,-0.227786678873883,-0.151125352864881,-0.354741741054399
1580421552.94707,-0.231204699778743,-0.133058670939192,-0.370366979476616
1580421552.95107,-0.229739833676661,-0.11108567940795,-0.379644464789807
1580421552.95506,-0.238529030289158,-0.0822766460669868,-0.386480506599527
1580421552.95905,-0.249759670405126,-0.0529793240253298,-0.390875104905776
1580421552.96305,-0.261966887922485,-0.0158693827725642,-0.392828259708553
1580421552.96704,-0.272709239337759,0.0183108262760356,-0.384039063096056
1580421552.97104,-0.283451590753033,0.037842374303807,-0.366460669871062
1580421552.97503,-0.288334477759976,0.0432135500114441,-0.328862439917602
1580421552.97902,-0.288822766460671,0.0363775082017241,-0.301029983978028
1580421552.98302,-0.288334477759976,0.0134279392690928,-0.258548867017625
1580421552.98701,-0.300541695277333,-0.00903334096284425,-0.212161440451666
1580421552.991,-0.310795757991913,-0.0402838178072784,-0.152590218966964
1580421552.99499,-0.329350728618296,-0.0554207675288012,-0.0827649347676811
1580421552.99898,-0.372808422980087,-0.0646982528419926,0.00854505226214997
1580421553.00298,-0.433356221866179,-0.0593270771343555,0.106202792401007
1580421553.00697,-0.509529259174487,-0.0485847257190812,0.215091172655832
1580421553.01096,-0.605722133211261,-0.0349126420996413,0.326909285114823
1580421553.01496,-0.714122224765392,-0.0109864957656214,0.444098573281451
1580421553.01895,-0.826916914625773,0.00805676356145568,0.554940108339057
1580421553.02294,-0.92799267566949,0.00805676356145568,0.684824902723737
1580421553.02694,-1.02613870450904,-0.01196307316701,0.842053864347296
1580421553.03093,-1.12526131074998,-0.0500495918211641,1.04176394293126
1580421553.03493,-1.24684519722286,-0.0954604409857325,1.27907225146868
1580421553.03892,-1.37819485770962,-0.133546959639887,1.54177157244221
1580421553.04291,-1.5168688487068,-0.167727168688486,1.73318074311437
1580421553.04691,-1.64138246738384,-0.180910963607232,1.82204928664073
1580421553.0509,-1.70193026626993,-0.168703746089875,1.80935378042268
1580421553.05489,-1.6872816052491,-0.116945143816281,1.75075913633936
1580421553.05889,-1.64821850919356,-0.0217288471808956,1.67653925383383
1580421553.06288,-1.65114824139773,0.108155947203784,1.54079499504082
1580421553.06687,-1.65651941710536,0.235599298084992,1.36598764019226
1580421553.07086,-1.60378423743038,0.325932707713434,1.16383611810483
1580421553.07485,-1.49196612497139,0.379644464789806,0.942153047989624
1580421553.07885,-1.33376058594644,0.379644464789806,0.712657358663311
1580421553.08284,-1.15895323109789,0.327885862516212,0.512947280079349
1580421553.08683,-1.01441977569238,0.238529030289158,0.346440833142594
1580421553.09083,-0.878675516899367,0.122804608224612,0.226810101472495
1580421553.09482,-0.813244831006333,-0.00170901045242999,0.155031662470435
1580421553.09882,-0.782970931563288,-0.0925307087815668,0.155031662470435
1580421553.10281,-0.785412375066759,-0.151125352864881,0.191653315022506
1580421553.1068,-0.810315098802167,-0.168215457389181,0.24682993820096
1580421553.1108,-0.839612420843824,-0.150637064164187,0.309330891889829
1580421553.11479,-0.867444876783399,-0.122316319523918,0.379644464789806
1580421553.11878,-0.881116960402839,-0.077393759060044,0.442633707179368
1580421553.12278,-0.864515144579233,-0.0329594872968642,0.493904020752268
1580421553.12677,-0.805920500495919,0.0295414663920042,0.620859082932785
1580421553.13076,-0.74927901121538,0.0500495918211641,0.827405203326467
1580421553.13476,-0.729747463187609,0.0690928511482412,1.01734950789654
1580421553.13875,-0.798596169985505,0.119874876020447,1.1067063401236
1580421553.14275,-0.955825131609064,0.23315785458152,0.93141069657435
1580421553.14674,-1.09108110170138,0.361577782864117,0.504158083466852
1580421553.15076,-1.04371709773404,0.398199435416188,-0.158449683375295
1580421553.15475,-0.844495307850767,0.326909285114823,-0.89381246662089
1580421553.15874,-0.652109559777218,0.162355992980849,-1.30885786221103
1580421553.16274,-0.591073472190432,-0.0642099641412983,-1.35963988708324
1580421553.16673,-0.727794308384832,-0.226810101472495,-1.02027924010071
1580421553.17072,-0.995864805065995,-0.134523537041275,-0.45630579079881
1580421553.17472,-1.33571374074922,0.180422674906538,0.0949721522850382
1580421553.17871,-1.73757534142061,0.450934615091171,0.45874723430228
1580421553.1827,-2.15896849011978,0.484138246738382,0.595468070496683
1580421553.1867,-2.44559395742733,0.139406424048218,0.620859082932785
1580421553.19069,-2.36697947661555,-0.976821545738918,0.598886091401543
1580421553.19468,-1.97927824826429,-1.68532845044633,0.729259174486916
1580421553.19868,-1.92214847028306,-1.27174792095827,0.990005340657664
1580421553.20267,-2.04226749065385,-0.573006790264744,1.11256580453193
1580421553.20667,-1.93728542000458,-0.119874876020447,0.831799801632716
1580421553.21066,-1.64675364309148,-0.0280766002899213,0.254154268711375
1580421553.21465,-1.27125963225757,-0.0617685206378269,-0.283939879453728
1580421553.21865,-0.912367437247273,-0.102296482795452,-0.613534752422369
1580421553.22264,-0.648691538872358,-0.0778820477607383,-0.769787136644542
1580421553.22663,-0.516365300984207,-0.00366216525520713,-0.809826810101473
1580421553.23062,-0.458747234302281,0.10424963759823,-0.776623178454262
1580421553.23461,-0.424567025253682,0.170656900892652,-0.716075379568169
1580421553.23861,-0.41187151903563,0.174074921797512,-0.655039291981383
1580421553.2426,-0.388433661402305,0.159426260776684,-0.634531166552224
1580421553.24659,-0.356206607156482,0.160402838178072,-0.696543831540398
1580421553.25059,-0.34351110093843,0.191165026321812,-0.837659266041047
1580421553.25458,-0.366460669871062,0.221438925764858,-0.959731441214618
1580421553.25858,-0.448493171587701,0.231204699778743,-0.997329671168078
1580421553.26257,-0.591073472190432,0.248783093003738,-0.906019684138247
1580421553.26656,-0.782970931563288,0.305912870984969,-0.748790722514686
1580421553.27056,-1.03492790112154,0.4314030670634,-0.586678873884184
1580421553.27455,-1.31618219272145,0.642343785763334,-0.462653543907836
1580421553.27854,-1.55153734645609,0.888929579613947,-0.41528953994049
1580421553.28254,-1.64528877698939,1.02516212710765,-0.424078736552987
1580421553.28653,-1.60769054703593,0.926039520866713,-0.438727397573816
1580421553.29052,-1.52419317921721,0.700450141145954,-0.391851682307164
1580421553.29452,-1.46999313344015,0.524666208896011,-0.324467841611353
1580421553.29851,-1.44899671931029,0.448004882887005,-0.299565117875945
1580421553.3025,-1.44362554360266,0.397711146715494,-0.294193942168308
1580421553.3065,-1.40065613794156,0.324956130312046,-0.297123674372473
1580421553.31052,-1.31960021362631,0.261966887922483,-0.297123674372473
1580421553.31451,-1.23366140230411,0.245853360799572,-0.271732661936371
1580421553.3185,-1.16139467460136,0.265873197528038,-0.235111009384298
1580421553.3225,-1.10377660791943,0.284916456855115,-0.213138017853055
1580421553.32649,-1.05836575875486,0.268314641031509,-0.197512779430838
1580421553.33048,-1.01002517738613,0.206790264744029,-0.193118181124589
1580421553.33448,-0.957289997711147,0.112062256809338,-0.193118181124589
1580421553.33847,-0.916273746852827,-0.00366216525520713,-0.199954222934309
1580421553.34246,-0.882581826504921,-0.115480277714198,-0.186282139314869
1580421553.34646,-0.857190814068819,-0.212649729152361,-0.166262302586404
1580421553.35045,-0.852307927061876,-0.294193942168308,-0.137941557946135
1580421553.35444,-0.853772793163959,-0.343999389639125,-0.110597390707255
1580421553.35844,-0.871839475089647,-0.371831845578699,-0.0900892652780954
1580421553.36243,-0.891859311818113,-0.383062485694667,-0.0725108720531011
1580421553.36643,-0.914808880750744,-0.374761577782865,-0.0559090562294955
1580421553.37042,-0.935805294880598,-0.349370565346762,-0.0539559014267184
1580421553.37441,-0.952407110704204,-0.302006561379416,-0.0505378805218584
1580421553.37841,-0.976821545738918,-0.232669565880826,-0.0568856336308841
1580421553.3824,-1.01686121919585,-0.146242465857938,-0.0583504997329669
1580421553.38639,-1.03150988021668,-0.0588387884336612,-0.0612802319371326
1580421553.39038,-1.0378576333257,0.0271000228885327,-0.0563973449301898
1580421553.39437,-1.02906843671321,0.101808194094758,-0.0568856336308841
1580421553.39837,-1.03981078812848,0.181399252307926,-0.0534676127260241
1580421553.40236,-1.0300450141146,0.240482185091935,-0.0583504997329669
1580421553.40635,-1.00270084687572,0.262455176623178,-0.0563973449301898
1580421553.41035,-0.958266575112535,0.294193942168306,-0.0490730144197755
1580421553.41434,-0.910414282444496,0.276615548943312,-0.0549324788281069
1580421553.41833,-0.657480735484855,0.167238879987792,-0.024170290684367
1580421553.42233,-1.11207751583123,0.533943694209203,-0.099855039291981
1580421553.42632,-1.05934233615625,0.203372243839169,-0.0925307087815668
1580421553.43032,-0.903089951934081,0.156496528572518,-0.0236820019836728
1580421553.43431,-0.874769207293813,0.192141603723201,-0.0339360646982527
1580421553.4383,-0.887953002212559,0.176028076600289,-0.044678416113527
1580421553.4423,-0.877210650797284,0.162844281681544,-0.0319829098954756
1580421553.44629,-0.865980010681316,0.156496528572518,-0.0173342488746471
1580421553.45028,-0.853284504463264,0.140383001449607,-0.0100099183642328
1580421553.45428,-0.843030441748684,0.120363164721141,-0.00122072175173571
1580421553.45827,-0.831311512932022,0.0949721522850382,0.0075684748607614
1580421553.46226,-0.821545738918136,0.0725108720531011,0.0114747844663157
1580421553.46626,-0.818127718013276,0.0559090562294955,0.0134279392690928
1580421553.47024,-0.825940337224385,0.044678416113527,0.0075684748607614
1580421553.47424,-0.837659266041047,0.0437018387121384,-0.0144045166704814
1580421553.47823,-0.863538567177844,0.0529793240253298,-0.0334477759975584
1580421553.48223,-0.889417868314641,0.0695811398489354,-0.0573739223315783
1580421553.48622,-0.92457465476463,0.0949721522850382,-0.0803234912642097
1580421553.49021,-0.957289997711147,0.132082093537804,-0.0969253070878153
1580421553.49421,-0.982192721446555,0.160891126878766,-0.113527122911421
1580421553.4982,-0.997817959868772,0.184817273212786,-0.129640650034332
1580421553.50219,-0.999282825970855,0.204837109941252,-0.144289311055161
1580421553.50619,-0.98609903105211,0.218509193560692,-0.143801022354467
1580421553.51018,-0.974868390936141,0.226321812771801,-0.136476691844052
1580421553.51417,-0.960708018616007,0.230228122377355,-0.123781185626001
1580421553.51817,-0.950453955901427,0.232181277180132,-0.10083161669337
1580421553.52216,-0.946547646295873,0.229739833676661,-0.077393759060044
1580421553.52615,-0.948989089799344,0.215091172655832,-0.0510261692225527
1580421553.53015,-0.960219729915313,0.188235294117646,-0.0227054245822842
1580421553.53414,-0.974868390936141,0.148683909361409,0.000732433051041426
1580421553.53813,-0.987563897154192,0.0969253070878153,0.0192874036774242
1580421553.54213,-1.00465400167849,0.0383306630045013,0.0290531776913099
1580421553.54612,-1.02467383840696,-0.0144045166704814,0.0510261692225527
1580421553.55014,-1.0471351186389,-0.063721675440604,0.0915541313801782
1580421553.55413,-1.07154955367361,-0.105226214999618,0.143312733653772
1580421553.55813,-1.09645227740902,-0.125246051728084,0.205325398641946
1580421553.56212,-1.12086671244373,-0.138918135347524,0.272220950637063
1580421553.56611,-1.1408865491722,-0.138918135347524,0.340093080033569
1580421553.57011,-1.15553521019303,-0.126710917830167,0.38696879530022
1580421553.5741,-1.15895323109789,-0.102296482795452,0.421637293049514
1580421553.57809,-1.16774242771038,-0.0700694285496297,0.419195849546043
1580421553.58209,-1.17311360341802,-0.0441901274128327,0.393316548409246
1580421553.58608,-1.17164873731594,-0.0212405584802013,0.357671473258563
1580421553.59008,-1.17067215991455,-0.0129396505683985,0.302494850080109
1580421553.59407,-1.16725413900969,-0.0104982070649271,0.25024795910582
1580421553.59806,-1.16188296330205,-0.00854505226214997,0.198001068131532
1580421553.60206,-1.15992980849927,-0.00317387655451284,0.145265888456549
1580421553.60605,-1.16041809719997,0.0124513618677042,0.0944838635843439
1580421553.61004,-1.16530098420691,0.041260395208667,0.0505378805218584
1580421553.61404,-1.17750820172427,0.0720225833524069,0.0124513618677042
1580421553.61803,-1.18580910963607,0.103273060196841,-0.0222171358815899
1580421553.62202,-1.19459830624857,0.122316319523918,-0.0388189517051956
1580421553.62602,-1.19508659494926,0.132082093537804,-0.041260395208667
1580421553.63,-1.19801632715343,0.133058670939192,-0.034424353398947
1580421553.634,-1.19996948195621,0.134035248340581,-0.0197756923781185
1580421553.63799,-1.20143434805829,0.127687495231555,0.00366216525520713
1580421553.64198,-1.20827038986801,0.127687495231555,0.0251468680857556
1580421553.64598,-1.21217669947356,0.132570382238498,0.0524910353246355
1580421553.64997,-1.22438391699092,0.142336156252384,0.0837415121690697
1580421553.65397,-1.23561455710689,0.150637064164187,0.106202792401007
1580421553.65796,-1.243427176318,0.160402838178072,0.126710917830167
1580421553.66195,-1.24977492942702,0.161379415579461,0.150637064164187
1580421553.66595,-1.25123979552911,0.170656900892652,0.169192034790569
1580421553.66994,-1.25905241474022,0.179934386205844,0.180422674906538
1580421553.67393,-1.27125963225757,0.186282139314869,0.186770428015564
1580421553.67793,-1.29616235599298,0.195071335927366,0.182375829709315
1580421553.68192,-1.33131914244297,0.196536202029449,0.172610055695429
1580421553.68591,-1.36598764019226,0.200442511635003,0.150637064164187
1580421553.68991,-1.39967956054017,0.210208285648889,0.134035248340581
1580421553.6939,-1.42555886167697,0.215579461356526,0.133058670939192
1580421553.69789,-1.44118410009918,0.205325398641946,0.141359578850995
1580421553.70189,-1.43874265659571,0.175051499198901,0.162844281681544
1580421553.70588,-1.41921110856794,0.130617227435721,0.199954222934309
1580421553.7099,-1.39186694132906,0.0759288929579611,0.258548867017623
1580421553.71389,-1.36012817578393,0.00854505226214997,0.326909285114823
1580421553.71789,-1.32985427634089,-0.0642099641412983,0.391851682307163
1580421553.72188,-1.30592813000687,-0.140871290150301,0.423590447852291
1580421553.72587,-1.28297856107424,-0.221438925764858,0.418219272144654
1580421553.72987,-1.26100556954299,-0.291264209964142,0.369390402075226
1580421553.73386,-1.2429388876173,-0.338139925230793,0.316166933699549
1580421553.73785,-1.22975509269856,-0.369878690775922,0.268314641031509
1580421553.74185,-1.23561455710689,-0.390386816205082,0.229251544975966
1580421553.74584,-1.25954070344091,-0.407476920729382,0.185793850614175
1580421553.74984,-1.28053711757076,-0.409430075532159,0.140871290150301
1580421553.75383,-1.3205767910277,-0.391851682307164,0.0954604409857325
1580421553.75782,-1.37672999160754,-0.348882276646068,0.0788586251621268
1580421553.76181,-1.4397192339971,-0.294193942168308,0.0383306630045013
1580421553.76581,-1.48854810406653,-0.252201113908599,-0.0607919432364383
1580421553.7698,-1.5163805600061,-0.236087586785686,-0.181887541008621
1580421553.7738,-1.52761120012207,-0.252201113908599,-0.322026398107882
1580421553.77779,-1.51979858091096,-0.279056992446785,-0.482673380636301
1580421553.78178,-1.50270847638666,-0.292240787365531,-0.631601434348058
1580421553.78578,-1.49098954757,-0.265384908827345,-0.733165484092469
1580421553.78976,-1.47048142214084,-0.192141603723201,-0.78785381857023
1580421553.79376,-1.45290302891585,-0.063721675440604,-0.809826810101473
1580421553.79775,-1.46120393682765,0.099855039291981,-0.815686274509805
1580421553.80174,-1.48659494926375,0.277103837644006,-0.809826810101473
1580421553.80574,-1.50368505378805,0.431891355764094,-0.820080872816053
1580421553.80973,-1.51540398260471,0.548592355230031,-0.835217822537576
1580421553.81372,-1.51979858091096,0.604745555809874,-0.850354772259099
1580421553.81772,-1.52321660181582,0.594979781795988,-0.851331349660487
1580421553.82171,-1.51345082780194,0.524666208896011,-0.833264667734799
1580421553.82571,-1.49880216678111,0.402594033722437,-0.790295262073702
1580421553.8297,-1.47878233005264,0.25366598001068,-0.73560692759594
1580421553.83369,-1.46462195773251,0.0915541313801782,-0.67750057221332
1580421553.83769,-1.46022735942626,-0.0490730144197755,-0.613046463721675
1580421553.84168,-1.46608682383459,-0.150637064164187,-0.554940108339055
1580421553.84567,-1.48903639276722,-0.216067750057221,-0.489997711146716
1580421553.84967,-1.51296253910124,-0.249759670405126,-0.439703974975204
1580421553.85366,-1.52663462272068,-0.258548867017625,-0.390875104905776
1580421553.85765,-1.52028686961166,-0.249271381704432,-0.36060120546273
1580421553.86165,-1.49440756847486,-0.224856946669718,-0.343022812237736
1580421553.86564,-1.46999313344015,-0.183840695811398,-0.334721904325933
1580421553.86963,-1.44460212100404,-0.147219043259327,-0.325932707713436
1580421553.87362,-1.4226291294728,-0.101319905394064,-0.307377737087053
1580421553.87762,-1.40065613794156,-0.0632333867399097,-0.298100251773862
1580421553.88161,-1.38307774471656,-0.031006332494087,-0.290287632562753
1580421553.8856,-1.36696421759365,-0.00561532005798426,-0.283451590753033
1580421553.8896,-1.35036240177005,0.0173342488746471,-0.270756084534982
1580421553.89359,-1.3371786068513,0.0207522697795071,-0.254642557412071
1580421553.89758,-1.31813534752422,0.0173342488746471,-0.244388494697489
1580421553.90158,-1.30006866559854,0.00610360875867855,-0.225833524071106
1580421553.90557,-1.27174792095827,-0.0192874036774242,-0.213138017853055
1580421553.90956,-1.24049744411383,-0.0456549935149155,-0.203860532539863
1580421553.91356,-1.19801632715343,-0.0729991607537954,-0.205813687342641
1580421553.91755,-1.15602349889372,-0.0944838635843439,-0.204348821240558
1580421553.92154,-1.10817120622568,-0.113038834210727,-0.204837109941252
1580421553.92554,-1.06227206836042,-0.125734340428778,-0.197512779430838
1580421553.92953,-1.02272068360418,-0.136476691844052,-0.197512779430838
1580421553.93352,-0.981216144045167,-0.135011825741969,-0.198001068131532
1580421553.93752,-0.937758449683376,-0.128664072632944,-0.189211871519035
1580421553.94151,-0.938735027084764,-0.169192034790569,-0.194583047226672
1580421553.9455,-1.08033875028611,-0.315190356298162,-0.206790264744029
1580421553.94952,-1.04371709773404,-0.472419317921721,-0.214114595254443
1580421553.95352,-0.70142671854734,-0.242435339894712,-0.186770428015564
1580421553.95751,-0.421637293049516,-0.0544441901274126,-0.203860532539863
1580421553.9615,-0.434332799267567,0.01196307316701,-0.213138017853055
1580421553.9655,-0.567635614557107,0.0349126420996413,-0.214602883955138
1580421553.96949,-0.662851911192492,0.0495613031204698,-0.221927214465552
1580421553.97348,-0.687266346227206,0.0729991607537954,-0.255619134813459
1580421553.97748,-0.655527580682078,0.0871595330739297,-0.348882276646068
1580421553.98147,-0.601327534905012,0.0954604409857325,-0.469001297016861
1580421553.98546,-0.544686045624475,0.0954604409857325,-0.526131074998093
1580421553.98946,-0.505622949568933,0.0588387884336612,-0.427985046158541
1580421553.99345,-0.492927443350881,-0.00317387655451284,-0.214602883955138
1580421553.99745,-0.496345464255741,-0.044678416113527,-0.041260395208667
1580421554.00144,-0.494392309452964,-0.0476081483176927,-0.00610360875867855
1580421554.00543,-0.475837338826581,-0.0358892195010299,-0.105226214999618
1580421554.00943,-0.44263370717937,-0.0290531776913099,-0.256107423514154
1580421554.01342,-0.410406652933547,-0.0207522697795071,-0.388433661402305
1580421554.01741,-0.385503929198139,-0.0183108262760356,-0.476325627527276
1580421554.02141,-0.37427328908217,-0.0163576714732585,-0.51099412527657
1580421554.0254,-0.372320134279393,-0.0183108262760356,-0.509040970473793
1580421554.02939,-0.37427328908217,-0.0236820019836728,-0.49048599984741
1580421554.03338,-0.374761577782865,-0.0349126420996413,-0.464606698710613
1580421554.03737,-0.366948958571756,-0.0500495918211641,-0.444586861982147
1580421554.04137,-0.355230029755093,-0.0642099641412983,-0.424078736552987
1580421554.04536,-0.349858854047456,-0.0695811398489354,-0.416754406042573
1580421554.04936,-0.339116502632182,-0.0715342946517126,-0.407476920729382
1580421554.05335,-0.332768749523156,-0.0734874494544897,-0.400640878919662
1580421554.05734,-0.325932707713436,-0.0690928511482412,-0.400640878919662
1580421554.06134,-0.324467841611353,-0.0627450980392155,-0.395757991912719
1580421554.06533,-0.321538109407188,-0.0432135500114441,-0.390875104905776
1580421554.06932,-0.327397573815519,-0.024170290684367,-0.378179598687725
1580421554.07332,-0.339116502632182,0.00561532005798426,-0.365484092469673
1580421554.07731,-0.352300297550928,0.0515144579232469,-0.35718318455787
1580421554.0813,-0.365972381170367,0.113527122911421,-0.345464255741208
1580421554.0853,-0.388921950102999,0.188723582818341,-0.34009308003357
1580421554.08929,-0.412359807736324,0.267826352330815,-0.343022812237736
1580421554.09328,-0.437262531471733,0.345464255741206,-0.34009308003357
1580421554.09728,-0.462165255207141,0.39380483710994,-0.335210193026628
