Timestamp_seconds,Gyro_X_s,Gyro_Y_s,Gyro_Z_s
1580421547.59059,6.25619897764545,-2.41092545967808,-2.04470893415737
1580421547.59459,6.92759594110021,-2.34988937209118,-1.98367284657047
1580421547.59859,7.41588464179449,-2.10574502174404,-1.98367284657047
1580421547.60259,7.35484855420759,-1.73952849622333,-2.04470893415737
1580421547.6066,6.68345159075307,-1.73952849622333,-2.22781719691761
1580421547.6106,5.88998245212474,-1.55642023346309,-2.41092545967808
1580421547.61459,5.34065766384379,-1.49538414587619,-2.65506981002522
1580421547.61859,5.15754940108332,-1.37331197070262,-2.7161058976119
1580421547.62259,4.97444113832307,-1.37331197070262,-3.02128633554594
1580421547.62659,4.30304417486832,-1.55642023346309,-3.26543068589308
1580421547.63059,3.57061112382689,-1.80056458381023,-3.63164721141379
1580421547.63459,2.83817807278547,-1.8616006713969,-3.93682764934761
1580421547.63859,2.16678110933094,-1.61745632104976,-4.24200808728165
1580421547.64259,2.59403372243833,-1.19020370794237,-4.11993591210808
1580421547.64658,4.73029678797593,-0.762951094834762,-3.93682764934761
1580421547.65058,6.92759594110021,-1.25123979552905,-3.44853894865332
1580421547.65458,9.30800335698473,-1.98367284657047,-2.65506981002522
1580421547.65858,10.8949416342411,-3.14335851071951,-2.04470893415737
1580421547.66258,10.955977721828,-4.05889982452118,-1.73952849622333
1580421547.66658,11.7494468604561,-4.66926070038903,-1.61745632104976
1580421547.67058,11.5663385976959,-6.07309071488521,-1.80056458381023
1580421547.67458,9.00282291905091,-7.35484855420759,-2.59403372243833
1580421547.67858,7.23277637903402,-8.39246204318306,-3.26543068589308
1580421547.68257,5.34065766384379,-9.00282291905091,-3.75371938658736
1580421547.68655,3.14335851071951,-9.24696726939806,-4.66926070038903
1580421547.69055,1.49538414587619,-9.97940032043948,-5.40169375143046
1580421547.69455,0.640878919661191,-11.0170138094147,-5.21858548867021
1580421547.69855,0.823987182421661,-10.7118333714809,-4.66926070038903
1580421547.70255,1.80056458381023,-9.79629205767901,-3.93682764934761
1580421547.70655,4.36408026245522,-8.69764248111687,-3.44853894865332
1580421547.71055,7.29381246662092,-8.02624551766235,-2.89921416037237
1580421547.71455,9.06385900663759,-7.72106507972831,-2.65506981002522
1580421547.71854,10.0404364080262,-7.72106507972831,-2.34988937209118
1580421547.72254,11.6273746852826,-8.20935378042259,-2.04470893415737
1580421547.72654,12.0546272983902,-8.6366063935302,-1.49538414587619
1580421547.73054,10.8949416342411,-8.51453421835663,-1.49538414587619
1580421547.73454,9.18593118181116,-7.84313725490188,-1.67849240863666
1580421547.73854,7.72106507972831,-7.41588464179449,-1.9226367589838
1580421547.74254,7.29381246662092,-7.17174029144735,-2.16678110933094
1580421547.74653,7.53795681696806,-6.80552376592664,-2.28885328450451
1580421547.75053,7.66002899214163,-6.98863202868688,-2.34988937209118
1580421547.75453,7.59899290455473,-7.66002899214163,-2.53299763485165
1580421547.75853,6.68345159075307,-8.6366063935302,-2.65506981002522
1580421547.76253,4.11993591210808,-9.30800335698473,-2.7161058976119
1580421547.76654,2.28885328450451,-9.24696726939806,-2.28885328450451
1580421547.77054,0.152590218966907,-8.88075074387734,-2.10574502174404
1580421547.77454,-2.47196154726475,-8.75867856870377,-2.34988937209118
1580421547.77854,-3.63164721141379,-8.81971465629044,-2.83817807278547
1580421547.78253,-3.93682764934761,-8.75867856870377,-3.14335851071951
1580421547.78653,-3.02128633554594,-8.69764248111687,-3.20439459830618
1580421547.79053,-1.49538414587619,-8.27038986800949,-2.7771419851988
1580421547.79453,0.274662394140478,-7.41588464179449,-2.41092545967808
1580421547.79853,2.04470893415737,-6.86655985351331,-2.10574502174404
1580421547.80253,3.38750286106665,-6.43930724040592,-1.8616006713969
1580421547.80653,3.99786373693451,-6.01205462729831,-1.49538414587619
1580421547.81053,3.81475547417404,-5.58480201419093,-1.37331197070262
1580421547.81452,3.32646677347975,-5.46272983901736,-1.37331197070262
1580421547.81852,2.65506981002522,-5.40169375143046,-1.37331197070262
1580421547.82252,2.28885328450451,-5.34065766384379,-1.61745632104976
1580421547.82652,2.53299763485165,-5.40169375143046,-1.73952849622333
1580421547.83052,3.02128633554594,-5.27962157625689,-1.98367284657047
1580421547.83452,3.50957503624022,-5.15754940108332,-2.22781719691761
1580421547.83852,3.69268329900046,-5.09651331349664,-2.47196154726475
1580421547.84252,3.50957503624022,-4.97444113832307,-2.7161058976119
1580421547.8465,3.08232242313261,-4.8523689631495,-2.83817807278547
1580421547.85049,2.89921416037237,-4.8523689631495,-2.7771419851988
1580421547.85449,3.02128633554594,-4.73029678797593,-2.59403372243833
1580421547.85849,2.83817807278547,-4.73029678797593,-2.34988937209118
1580421547.86249,2.41092545967808,-4.48615243762879,-2.22781719691761
1580421547.86649,1.61745632104976,-3.99786373693451,-2.16678110933094
1580421547.87049,0.823987182421661,-3.75371938658736,-2.16678110933094
1580421547.87449,0.335698481727377,-3.57061112382689,-1.98367284657047
1580421547.87849,0.396734569314049,-3.38750286106665,-1.9226367589838
1580421547.88248,0.946059357595232,-3.02128633554594,-1.43434805828952
1580421547.88648,1.12916762035547,-2.83817807278547,-0.946059357595232
1580421547.89048,1.73952849622333,-2.28885328450451,-0.457770656900948
1580421547.89448,2.65506981002522,-2.28885328450451,0.213626306553806
1580421547.89848,3.69268329900046,-2.41092545967808,1.19020370794237
1580421547.90248,4.42511635004189,-2.47196154726475,2.04470893415737
1580421547.90648,4.30304417486832,-2.59403372243833,2.47196154726475
1580421547.91048,3.93682764934761,-2.89921416037237,2.7161058976119
1580421547.91447,3.75371938658736,-2.89921416037237,2.89921416037237
1580421547.91847,3.75371938658736,-2.53299763485165,3.08232242313261
1580421547.92247,3.93682764934761,-2.10574502174404,3.20439459830618
1580421547.92648,4.36408026245522,-1.73952849622333,3.57061112382689
1580421547.93048,4.11993591210808,-1.49538414587619,3.50957503624022
1580421547.93448,3.50957503624022,-1.61745632104976,3.14335851071951
1580421547.93848,2.22781719691761,-1.8616006713969,2.89921416037237
1580421547.94248,0.885023270008332,-1.9226367589838,2.65506981002522
1580421547.94648,-0.396734569314049,-1.80056458381023,2.65506981002522
1580421547.95047,-1.37331197070262,-1.73952849622333,2.41092545967808
1580421547.95447,-1.80056458381023,-1.55642023346309,2.34988937209118
1580421547.95847,-2.04470893415737,-1.43434805828952,2.22781719691761
1580421547.96247,-2.04470893415737,-1.19020370794237,1.98367284657047
1580421547.96647,-1.61745632104976,-1.25123979552905,1.8616006713969
1580421547.97047,-1.31227588311594,-1.0681315327688,1.80056458381023
1580421547.97447,-0.946059357595232,-0.823987182421661,1.8616006713969
1580421547.97847,-0.885023270008332,-0.70191500724809,1.73952849622333
1580421547.98247,-0.579842832074519,-0.762951094834762,1.67849240863666
1580421547.98646,-0.152590218966907,-0.762951094834762,1.55642023346309
1580421547.99046,0.274662394140478,-0.579842832074519,1.61745632104976
1580421547.99446,0.396734569314049,-0.640878919661191,1.55642023346309
1580421547.99846,0.335698481727377,-0.823987182421661,1.55642023346309
1580421548.00246,0.213626306553806,-0.762951094834762,1.31227588311594
1580421548.00644,0.0305180437933359,-0.823987182421661,1.25123979552905
1580421548.01044,-0.0305180437933359,-1.0070954451819,1.0681315327688
1580421548.01444,-0.0305180437933359,-1.12916762035547,0.762951094834762
1580421548.01844,-0.152590218966907,-1.25123979552905,0.51880674448762
1580421548.02243,-0.51880674448762,-1.31227588311594,0.396734569314049
1580421548.02643,-0.946059357595232,-1.25123979552905,0.213626306553806
1580421548.03043,-1.49538414587619,-1.49538414587619,-0.0305180437933359
1580421548.03443,-1.61745632104976,-1.61745632104976,-0.396734569314049
1580421548.03843,-1.12916762035547,-1.67849240863666,-0.640878919661191
1580421548.04243,-1.0681315327688,-2.16678110933094,-0.640878919661191
1580421548.04643,-0.885023270008332,-2.53299763485165,-0.579842832074519
1580421548.05042,-1.25123979552905,-2.59403372243833,-0.457770656900948
1580421548.05442,-2.34988937209118,-2.65506981002522,-0.762951094834762
1580421548.05842,-3.20439459830618,-2.83817807278547,-1.19020370794237
1580421548.06242,-3.50957503624022,-2.7161058976119,-1.43434805828952
1580421548.06642,-2.96025024795904,-2.83817807278547,-1.49538414587619
1580421548.07042,-2.16678110933094,-2.65506981002522,-1.37331197070262
1580421548.07442,-1.61745632104976,-2.34988937209118,-1.31227588311594
1580421548.07842,-1.31227588311594,-2.41092545967808,-1.31227588311594
1580421548.08241,-1.0070954451819,-2.34988937209118,-1.19020370794237
1580421548.08642,-0.885023270008332,-2.28885328450451,-1.25123979552905
1580421548.09042,-0.885023270008332,-2.22781719691761,-1.31227588311594
1580421548.09442,-1.31227588311594,-2.16678110933094,-1.49538414587619
1580421548.09842,-1.49538414587619,-1.9226367589838,-1.80056458381023
1580421548.10242,-1.9226367589838,-1.73952849622333,-1.98367284657047
1580421548.10642,-2.89921416037237,-1.73952849622333,-2.04470893415737
1580421548.11042,-3.57061112382689,-1.8616006713969,-2.04470893415737
1580421548.11442,-4.48615243762879,-1.67849240863666,-1.9226367589838
1580421548.11841,-5.52376592660403,-1.73952849622333,-2.10574502174404
1580421548.12241,-6.01205462729831,-1.98367284657047,-2.22781719691761
1580421548.12641,-5.21858548867021,-2.22781719691761,-2.28885328450451
1580421548.13041,-3.99786373693451,-2.04470893415737,-1.9226367589838
1580421548.13441,-2.83817807278547,-1.80056458381023,-1.49538414587619
1580421548.13841,-1.98367284657047,-1.49538414587619,-1.12916762035547
1580421548.14241,-1.55642023346309,-1.49538414587619,-0.885023270008332
1580421548.14641,-1.12916762035547,-1.37331197070262,-0.885023270008332
1580421548.15041,-0.70191500724809,-1.37331197070262,-0.640878919661191
1580421548.1544,-0.274662394140478,-1.25123979552905,-0.457770656900948
1580421548.1584,0.091554131380235,-1.0681315327688,-0.213626306553806
1580421548.1624,0.396734569314049,-0.885023270008332,0.0305180437933359
1580421548.16638,0.762951094834762,-0.579842832074519,0.091554131380235
1580421548.17038,1.0681315327688,-0.457770656900948,0.091554131380235
1580421548.17438,1.37331197070262,-0.396734569314049,0.335698481727377
1580421548.17838,1.43434805828952,-0.335698481727377,0.335698481727377
1580421548.18238,1.67849240863666,-0.335698481727377,0.51880674448762
1580421548.18637,1.9226367589838,-0.457770656900948,0.640878919661191
1580421548.19037,2.22781719691761,-0.396734569314049,0.457770656900948
1580421548.19437,2.47196154726475,-0.274662394140478,0.70191500724809
1580421548.19837,2.22781719691761,0.0305180437933359,0.762951094834762
1580421548.20237,2.34988937209118,0.0305180437933359,0.640878919661191
1580421548.20637,2.34988937209118,0.091554131380235,0.70191500724809
1580421548.21037,2.53299763485165,0.152590218966907,0.70191500724809
1580421548.21437,2.65506981002522,0.274662394140478,0.640878919661191
1580421548.21836,2.83817807278547,0.213626306553806,0.51880674448762
1580421548.22236,2.7771419851988,0.213626306553806,0.457770656900948
1580421548.22636,2.59403372243833,0.396734569314049,0.396734569314049
1580421548.23036,2.41092545967808,0.70191500724809,0.396734569314049
1580421548.23436,2.10574502174404,1.12916762035547,0.335698481727377
1580421548.23836,1.73952849622333,1.12916762035547,0.274662394140478
1580421548.24236,1.43434805828952,1.12916762035547,0.152590218966907
1580421548.24637,1.55642023346309,1.25123979552905,0.091554131380235
1580421548.25037,1.9226367589838,1.31227588311594,0.152590218966907
1580421548.25437,1.9226367589838,1.67849240863666,0.274662394140478
1580421548.25836,2.10574502174404,1.80056458381023,0.457770656900948
1580421548.26236,2.04470893415737,1.98367284657047,0.640878919661191
1580421548.26636,1.80056458381023,2.10574502174404,0.396734569314049
1580421548.27036,1.98367284657047,2.16678110933094,0.396734569314049
1580421548.27436,1.98367284657047,2.34988937209118,0.396734569314049
1580421548.27836,2.41092545967808,2.7161058976119,0.335698481727377
1580421548.28236,2.41092545967808,3.14335851071951,0.335698481727377
1580421548.28636,2.34988937209118,3.57061112382689,0.335698481727377
1580421548.29035,1.8616006713969,3.99786373693451,0.335698481727377
1580421548.29435,1.31227588311594,4.48615243762879,0.091554131380235
1580421548.29835,0.946059357595232,4.48615243762879,-0.274662394140478
1580421548.30235,0.51880674448762,4.66926070038903,-0.396734569314049
1580421548.30635,0.51880674448762,4.7913328755626,-0.579842832074519
1580421548.31035,-0.0305180437933359,4.8523689631495,-0.640878919661191
1580421548.31435,-0.762951094834762,4.97444113832307,-0.579842832074519
1580421548.31835,-1.25123979552905,4.7913328755626,-0.579842832074519
1580421548.32234,-1.73952849622333,4.60822461280236,-0.579842832074519
1580421548.32632,-2.16678110933094,4.73029678797593,-0.70191500724809
1580421548.33032,-2.22781719691761,4.60822461280236,-0.823987182421661
1580421548.33432,-2.10574502174404,4.66926070038903,-0.946059357595232
1580421548.33832,-1.73952849622333,4.66926070038903,-0.762951094834762
1580421548.34232,-1.0681315327688,4.66926070038903,-0.640878919661191
1580421548.34632,-0.823987182421661,4.7913328755626,-0.51880674448762
1580421548.35032,-0.640878919661191,4.66926070038903,-0.274662394140478
1580421548.35432,-0.640878919661191,4.42511635004189,-0.213626306553806
1580421548.35831,-0.396734569314049,4.36408026245522,0.0305180437933359
1580421548.36231,-0.274662394140478,4.30304417486832,0.152590218966907
1580421548.36631,0.091554131380235,4.11993591210808,0.274662394140478
1580421548.37031,0.579842832074519,3.75371938658736,0.51880674448762
1580421548.37431,1.0070954451819,3.57061112382689,0.885023270008332
1580421548.37831,1.9226367589838,3.50957503624022,1.25123979552905
1580421548.38231,2.96025024795904,3.57061112382689,1.73952849622333
1580421548.3863,3.57061112382689,3.63164721141379,1.80056458381023
1580421548.3903,4.05889982452118,3.57061112382689,1.98367284657047
1580421548.3943,4.30304417486832,3.50957503624022,1.98367284657047
1580421548.3983,4.18097199969475,3.38750286106665,2.04470893415737
1580421548.4023,3.81475547417404,2.96025024795904,1.98367284657047
1580421548.40631,3.44853894865332,2.96025024795904,1.9226367589838
1580421548.41031,3.57061112382689,2.59403372243833,1.8616006713969
1580421548.41431,3.38750286106665,2.65506981002522,1.9226367589838
1580421548.41831,2.96025024795904,2.7161058976119,1.9226367589838
1580421548.42231,2.59403372243833,2.59403372243833,1.9226367589838
1580421548.4263,2.28885328450451,2.16678110933094,1.9226367589838
1580421548.4303,2.28885328450451,2.22781719691761,1.98367284657047
1580421548.4343,2.53299763485165,2.28885328450451,2.04470893415737
1580421548.4383,2.47196154726475,2.16678110933094,2.22781719691761
1580421548.4423,2.53299763485165,2.34988937209118,2.41092545967808
1580421548.4463,2.41092545967808,2.41092545967808,2.59403372243833
1580421548.4503,2.16678110933094,2.28885328450451,2.53299763485165
1580421548.4543,2.16678110933094,2.10574502174404,2.65506981002522
1580421548.45829,2.10574502174404,2.10574502174404,2.7161058976119
1580421548.46229,2.10574502174404,2.04470893415737,2.7771419851988
1580421548.46629,2.10574502174404,1.8616006713969,2.96025024795904
1580421548.47029,2.22781719691761,1.73952849622333,3.02128633554594
1580421548.47429,1.98367284657047,1.73952849622333,2.96025024795904
1580421548.47829,1.43434805828952,1.61745632104976,2.89921416037237
1580421548.48229,1.0681315327688,1.67849240863666,2.83817807278547
1580421548.48627,0.823987182421661,1.43434805828952,2.7771419851988
1580421548.49026,0.396734569314049,1.37331197070262,2.83817807278547
1580421548.49426,0.091554131380235,1.31227588311594,2.7161058976119
1580421548.49826,-0.091554131380235,1.19020370794237,2.65506981002522
1580421548.50226,-0.274662394140478,1.19020370794237,2.65506981002522
1580421548.50626,-0.579842832074519,1.12916762035547,2.41092545967808
1580421548.51026,-0.823987182421661,1.0681315327688,2.34988937209118
1580421548.51426,-1.0070954451819,1.0070954451819,2.22781719691761
1580421548.51826,-1.0681315327688,1.0070954451819,2.10574502174404
1580421548.52226,-1.19020370794237,1.19020370794237,2.16678110933094
1580421548.52625,-1.55642023346309,1.19020370794237,2.10574502174404
1580421548.53025,-2.22781719691761,1.19020370794237,2.04470893415737
1580421548.53425,-2.96025024795904,1.37331197070262,1.9226367589838
1580421548.53825,-3.32646677347975,1.43434805828952,1.98367284657047
1580421548.54225,-3.69268329900046,1.80056458381023,1.98367284657047
1580421548.54625,-3.99786373693451,2.16678110933094,2.10574502174404
1580421548.55025,-4.48615243762879,2.41092545967808,2.10574502174404
1580421548.55425,-5.21858548867021,2.59403372243833,2.16678110933094
1580421548.55824,-5.76791027695117,2.59403372243833,1.98367284657047
1580421548.56224,-6.31723506523235,2.47196154726475,1.8616006713969
1580421548.56625,-6.62241550316617,2.28885328450451,1.9226367589838
1580421548.57025,-6.62241550316617,2.28885328450451,1.8616006713969
1580421548.57425,-6.5003433279926,2.34988937209118,1.98367284657047
1580421548.57825,-6.31723506523235,2.65506981002522,2.22781719691761
1580421548.58225,-6.5003433279926,2.53299763485165,2.41092545967808
1580421548.58625,-6.5003433279926,2.28885328450451,2.7161058976119
1580421548.59025,-5.95101853971164,2.16678110933094,3.02128633554594
1580421548.59424,-4.8523689631495,2.22781719691761,3.32646677347975
1580421548.59824,-3.99786373693451,2.04470893415737,3.57061112382689
1580421548.60224,-3.20439459830618,1.8616006713969,3.93682764934761
1580421548.60624,-3.02128633554594,1.55642023346309,4.30304417486832
1580421548.61024,-2.96025024795904,1.25123979552905,4.30304417486832
1580421548.61424,-3.75371938658736,0.946059357595232,4.11993591210808
1580421548.61824,-4.30304417486832,0.946059357595232,4.05889982452118
1580421548.62224,-3.26543068589308,0.885023270008332,4.18097199969475
1580421548.62624,-1.43434805828952,0.762951094834762,4.30304417486832
1580421548.63023,-0.457770656900948,-0.091554131380235,4.42511635004189
1580421548.63423,-1.37331197070262,-0.762951094834762,4.54718852521546
1580421548.63823,-1.73952849622333,-1.25123979552905,4.97444113832307
1580421548.64223,-0.823987182421661,-1.0681315327688,5.27962157625689
1580421548.64621,0.457770656900948,-1.0681315327688,5.58480201419093
1580421548.65021,1.61745632104976,-1.80056458381023,5.40169375143046
1580421548.65421,2.41092545967808,-2.59403372243833,5.34065766384379
1580421548.65821,2.96025024795904,-3.26543068589308,5.40169375143046
1580421548.6622,3.20439459830618,-3.44853894865332,5.46272983901736
1580421548.6662,3.50957503624022,-3.32646677347975,5.40169375143046
1580421548.6702,3.87579156176093,-2.83817807278547,5.27962157625689
1580421548.6742,3.63164721141379,-2.65506981002522,4.97444113832307
1580421548.6782,3.02128633554594,-2.59403372243833,4.48615243762879
1580421548.6822,2.53299763485165,-2.59403372243833,3.87579156176093
1580421548.6862,2.22781719691761,-2.83817807278547,3.44853894865332
1580421548.6902,1.80056458381023,-3.02128633554594,3.20439459830618
1580421548.69419,1.55642023346309,-3.08232242313261,2.83817807278547
1580421548.69819,1.0681315327688,-2.65506981002522,2.41092545967808
1580421548.70219,0.823987182421661,-2.53299763485165,1.98367284657047
1580421548.70619,0.396734569314049,-2.53299763485165,1.55642023346309
1580421548.71019,0.152590218966907,-2.59403372243833,1.12916762035547
1580421548.71419,-0.091554131380235,-2.65506981002522,0.762951094834762
1580421548.71819,-0.51880674448762,-2.41092545967808,0.640878919661191
1580421548.72219,-0.762951094834762,-2.41092545967808,0.213626306553806
1580421548.72616,-0.640878919661191,-2.22781719691761,0.0305180437933359
1580421548.73016,-0.396734569314049,-2.16678110933094,-0.091554131380235
1580421548.73416,-0.640878919661191,-2.28885328450451,-0.335698481727377
1580421548.73816,-0.335698481727377,-2.34988937209118,-0.335698481727377
1580421548.74216,-0.091554131380235,-2.28885328450451,-0.457770656900948
1580421548.74616,0.0305180437933359,-2.04470893415737,-0.640878919661191
1580421548.75016,-0.274662394140478,-1.80056458381023,-1.0681315327688
1580421548.75416,-0.457770656900948,-1.8616006713969,-1.25123979552905
1580421548.75815,-0.0305180437933359,-1.80056458381023,-1.37331197070262
1580421548.76215,0.0305180437933359,-1.67849240863666,-1.49538414587619
1580421548.76615,-0.70191500724809,-1.61745632104976,-1.43434805828952
1580421548.77015,-1.67849240863666,-1.55642023346309,-1.43434805828952
1580421548.77415,-2.47196154726475,-1.37331197070262,-1.61745632104976
1580421548.77815,-2.83817807278547,-1.67849240863666,-1.61745632104976
1580421548.78215,-2.96025024795904,-1.80056458381023,-1.8616006713969
1580421548.78615,-3.02128633554594,-2.10574502174404,-2.16678110933094
1580421548.79014,-2.7771419851988,-2.34988937209118,-2.04470893415737
1580421548.79414,-2.53299763485165,-2.53299763485165,-1.98367284657047
1580421548.79814,-2.34988937209118,-2.59403372243833,-1.9226367589838
1580421548.80214,-2.47196154726475,-2.7161058976119,-1.9226367589838
1580421548.80615,-2.7161058976119,-3.20439459830618,-1.73952849622333
1580421548.81015,-2.59403372243833,-3.63164721141379,-1.49538414587619
1580421548.81415,-2.16678110933094,-3.99786373693451,-1.37331197070262
1580421548.81815,-1.9226367589838,-4.05889982452118,-1.25123979552905
1580421548.82215,-1.80056458381023,-4.24200808728165,-1.19020370794237
1580421548.82615,-1.67849240863666,-4.36408026245522,-0.946059357595232
1580421548.83014,-1.19020370794237,-4.11993591210808,-0.823987182421661
1580421548.83414,-0.823987182421661,-3.87579156176093,-0.762951094834762
1580421548.83814,-0.274662394140478,-3.87579156176093,-0.70191500724809
1580421548.84214,0.335698481727377,-3.87579156176093,-0.640878919661191
1580421548.84614,0.70191500724809,-3.57061112382689,-0.70191500724809
1580421548.85014,1.19020370794237,-3.57061112382689,-0.70191500724809
1580421548.85414,0.946059357595232,-3.26543068589308,-0.70191500724809
1580421548.85814,0.51880674448762,-3.20439459830618,-0.823987182421661
1580421548.86213,0.213626306553806,-3.08232242313261,-0.762951094834762
1580421548.86613,0.0305180437933359,-2.89921416037237,-0.823987182421661
1580421548.87013,0.091554131380235,-2.89921416037237,-0.885023270008332
1580421548.87413,0.335698481727377,-2.83817807278547,-1.0070954451819
1580421548.87813,0.396734569314049,-2.7161058976119,-1.31227588311594
1580421548.88213,0.091554131380235,-2.59403372243833,-1.55642023346309
1580421548.88611,-0.51880674448762,-2.59403372243833,-1.80056458381023
1580421548.89011,-0.885023270008332,-2.59403372243833,-2.04470893415737
1580421548.89411,-1.43434805828952,-2.59403372243833,-2.22781719691761
1580421548.8981,-1.80056458381023,-2.7771419851988,-2.28885328450451
1580421548.9021,-2.16678110933094,-2.65506981002522,-2.41092545967808
1580421548.9061,-3.14335851071951,-2.22781719691761,-2.59403372243833
1580421548.9101,-3.93682764934761,-1.73952849622333,-2.89921416037237
1580421548.9141,-5.03547722590974,-1.98367284657047,-3.32646677347975
1580421548.9181,-6.74448767833974,-2.04470893415737,-3.14335851071951
1580421548.9221,-9.06385900663759,-1.61745632104976,-2.65506981002522
1580421548.9261,-10.7728694590676,-0.823987182421661,-2.47196154726475
1580421548.93009,-10.8949416342411,-0.335698481727377,-2.7161058976119
1580421548.93409,-10.2845807583733,-0.762951094834762,-3.50957503624022
1580421548.93809,-10.2845807583733,-1.49538414587619,-4.11993591210808
1580421548.94209,-10.7118333714809,-2.22781719691761,-4.60822461280236
1580421548.94609,-11.0170138094147,-2.65506981002522,-4.60822461280236
1580421548.95009,-10.5897611963073,-2.96025024795904,-4.30304417486832
1580421548.95409,-9.79629205767901,-3.38750286106665,-3.87579156176093
1580421548.95809,-8.81971465629044,-4.05889982452118,-3.44853894865332
1580421548.96208,-7.29381246662092,-4.36408026245522,-3.26543068589308
1580421548.96609,-5.88998245212474,-4.8523689631495,-3.26543068589308
1580421548.97009,-4.36408026245522,-5.21858548867021,-3.20439459830618
1580421548.97409,-2.7771419851988,-5.58480201419093,-2.7161058976119
1580421548.97809,-1.43434805828952,-5.34065766384379,-2.22781719691761
1580421548.98209,0.885023270008332,-4.66926070038903,-1.43434805828952
1580421548.98609,3.38750286106665,-4.05889982452118,-1.19020370794237
1580421548.99009,5.21858548867021,-3.69268329900046,-1.61745632104976
1580421548.99409,5.58480201419093,-4.11993591210808,-2.28885328450451
1580421548.99809,4.42511635004189,-4.30304417486832,-3.08232242313261
1580421549.00208,3.32646677347975,-4.18097199969475,-3.69268329900046
1580421549.00608,2.89921416037237,-3.81475547417404,-3.87579156176093
1580421549.01008,2.47196154726475,-3.32646677347975,-3.99786373693451
1580421549.01408,1.31227588311594,-3.02128633554594,-4.48615243762879
1580421549.01808,-1.19020370794237,-2.96025024795904,-4.91340505073617
1580421549.02208,-4.97444113832307,-3.57061112382689,-5.95101853971164
1580421549.02608,-8.88075074387734,-4.60822461280236,-7.11070420386045
1580421549.03007,-12.1766994735638,-5.15754940108332,-7.96520943007545
1580421549.03407,-13.7026016632333,-4.91340505073617,-8.5755703059433
1580421549.03807,-13.4584573128861,-4.8523689631495,-9.00282291905091
1580421549.04207,-12.7260242618447,-4.66926070038903,-9.18593118181116
1580421549.04605,-12.4208438239109,-4.73029678797593,-9.00282291905091
1580421549.05005,-12.4818799114976,-4.60822461280236,-8.88075074387734
1580421549.05405,-12.1156633859769,-4.60822461280236,-8.6366063935302
1580421549.05805,-10.5287251087204,-4.48615243762879,-8.39246204318306
1580421549.06205,-8.51453421835663,-4.97444113832307,-8.02624551766235
1580421549.06604,-6.5003433279926,-5.40169375143046,-7.66002899214163
1580421549.07004,-4.54718852521546,-5.21858548867021,-7.23277637903402
1580421549.07404,-2.7161058976119,-4.91340505073617,-6.86655985351331
1580421549.07804,-0.885023270008332,-4.42511635004189,-6.74448767833974
1580421549.08204,0.823987182421661,-4.30304417486832,-6.56137941557949
1580421549.08604,2.10574502174404,-4.30304417486832,-6.25619897764545
1580421549.09004,3.02128633554594,-4.60822461280236,-6.19516289005878
1580421549.09404,3.81475547417404,-4.97444113832307,-6.19516289005878
1580421549.09803,4.36408026245522,-5.34065766384379,-6.31723506523235
1580421549.10203,4.66926070038903,-5.46272983901736,-6.62241550316617
1580421549.10603,4.54718852521546,-5.58480201419093,-6.92759594110021
1580421549.11003,4.18097199969475,-5.6458381017776,-7.47692072938116
1580421549.11403,3.32646677347975,-5.76791027695117,-8.14831769283592
1580421549.11803,1.73952849622333,-6.01205462729831,-8.81971465629044
1580421549.12203,0.091554131380235,-5.88998245212474,-9.00282291905091
1580421549.12604,-0.885023270008332,-5.7068741893645,-9.06385900663759
1580421549.13004,-2.28885328450451,-5.52376592660403,-9.12489509422448
1580421549.13403,-3.32646677347975,-5.82894636453807,-9.61318379491877
1580421549.13803,-3.02128633554594,-6.56137941557949,-10.2235446707866
1580421549.14203,-1.25123979552905,-7.04966811627378,-10.5897611963073
1580421549.14603,0.70191500724809,-7.53795681696806,-10.955977721828
1580421549.15003,2.04470893415737,-7.53795681696806,-11.1390859845883
1580421549.15403,2.65506981002522,-7.23277637903402,-11.3832303349354
1580421549.15803,3.08232242313261,-6.80552376592664,-11.6884107728695
1580421549.16203,3.20439459830618,-6.62241550316617,-12.1156633859769
1580421549.16602,2.7771419851988,-6.56137941557949,-12.4208438239109
1580421549.17002,1.98367284657047,-6.25619897764545,-12.664988174258
1580421549.17402,1.8616006713969,-5.95101853971164,-12.7870603494316
1580421549.17802,3.08232242313261,-5.58480201419093,-12.9701686121919
1580421549.18202,4.11993591210808,-5.58480201419093,-13.519493400473
1580421549.18602,3.99786373693451,-5.6458381017776,-14.4350347142747
1580421549.19002,3.26543068589308,-5.6458381017776,-15.228503852903
1580421549.19402,2.7161058976119,-5.7068741893645,-16.1440451667047
1580421549.19801,2.28885328450451,-5.7068741893645,-16.9985503929197
1580421549.20201,1.80056458381023,-6.19516289005878,-18.0971999694818
1580421549.20599,0.885023270008332,-6.86655985351331,-18.8296330205233
1580421549.20999,-0.51880674448762,-7.41588464179449,-19.6841382467383
1580421549.21399,-1.98367284657047,-7.7821011673152,-20.5386434729533
1580421549.21799,-3.14335851071951,-8.14831769283592,-21.6372930495154
1580421549.22199,-3.63164721141379,-8.45349813076973,-22.8580148012511
1580421549.22599,-3.50957503624022,-8.88075074387734,-23.9566643778132
1580421549.22999,-3.26543068589308,-9.12489509422448,-24.8111696040282
1580421549.23398,-3.32646677347975,-9.24696726939806,-25.6046387426566
1580421549.23798,-3.69268329900046,-9.36903944457163,-26.2760357061111
1580421549.24198,-3.81475547417404,-9.4300755321583,-26.8253604943923
1580421549.24598,-3.44853894865332,-9.4300755321583,-27.5577935454337
1580421549.24998,-3.08232242313261,-9.30800335698473,-28.5343709468223
1580421549.25398,-1.98367284657047,-9.55214770733187,-29.5109483482108
1580421549.25798,-0.885023270008332,-9.79629205767901,-30.3044174868389
1580421549.26198,-0.091554131380235,-10.1014724956131,-31.0368505378804
1580421549.26597,0.335698481727377,-10.7118333714809,-32.1355001144427
1580421549.26997,0.762951094834762,-11.8715190356297,-33.2341496910049
1580421549.27397,1.31227588311594,-12.9701686121919,-33.9665827420463
1580421549.27797,1.25123979552905,-13.7636377508202,-35.0652323186084
1580421549.28197,0.335698481727377,-13.8857099259938,-36.4080262455177
1580421549.28598,-1.19020370794237,-13.519493400473,-38.2391088731213
1580421549.28998,-3.26543068589308,-13.7026016632333,-40.8026245517663
1580421549.29398,-5.52376592660403,-14.6181429770352,-43.3051041428246
1580421549.29798,-8.33142595559616,-15.8388647287709,-45.5634393835355
1580421549.30198,-10.3456168459602,-16.0219729915311,-47.6386663614862
1580421549.30597,-9.79629205767901,-15.7167925535973,-49.8359655146105
1580421549.30997,-7.72106507972831,-15.6557564660104,-52.7656977187762
1580421549.31397,-5.95101853971164,-15.8999008163576,-56.5499351491569
1580421549.31797,-5.95101853971164,-16.6933699549859,-60.4562447547112
1580421549.32197,-6.80552376592664,-16.9985503929197,-64.2404821850919
1580421549.32597,-8.02624551766235,-16.2661173418783,-67.9636835278859
1580421549.32997,-8.69764248111687,-15.3505760280766,-71.5648126955061
1580421549.33396,-8.94178683146401,-14.3129625391011,-74.8607614251925
1580421549.33796,-8.88075074387734,-13.2753490501259,-78.2787823300525
1580421549.34196,-9.55214770733187,-12.1766994735638,-82.2461280231937
1580421549.34596,-11.505302510109,-12.2377355611504,-86.8238345922025
1580421549.34996,-14.1908903639276,-12.4818799114976,-90.6691081101701
1580421549.35396,-16.5712977798123,-12.0546272983902,-93.4767681391622
1580421549.35796,-18.8296330205233,-11.5663385976959,-95.857175555047
1580421549.36196,-22.3697261005568,-11.7494468604561,-98.9089799343863
1580421549.36594,-25.6046387426566,-13.0312046997788,-102.815289539941
1580421549.36994,-26.6422522316318,-15.228503852903,-106.965743495842
1580421549.37393,-25.6046387426566,-16.2661173418783,-110.200656137942
1580421549.37793,-21.2710765239947,-16.3271534294652,-112.397955291066
1580421549.38193,-14.9843595025559,-16.083009079118,-113.923857480735
1580421549.38593,-11.6884107728695,-15.7167925535973,-114.656290531777
1580421549.38993,-14.6791790646218,-14.4350347142747,-116.182192721447
1580421549.39393,-18.8296330205233,-12.1766994735638,-119.050888838025
1580421549.39793,-18.0361638818952,-8.75867856870377,-122.163729304952
1580421549.40192,-10.4676890211338,-5.95101853971164,-124.483100633249
1580421549.40592,1.19020370794237,-4.36408026245522,-124.910353246357
1580421549.40992,11.4442664225223,-3.50957503624022,-123.628595407034
1580421549.41392,17.0595864805066,-2.34988937209118,-122.041657129778
1580421549.41792,19.501029983978,-0.885023270008332,-121.187151903563
1580421549.42192,21.0269321736475,0.823987182421661,-121.553368429084
1580421549.42592,23.7125200274661,1.8616006713969,-122.346837567712
1580421549.42992,27.4357213702601,2.10574502174404,-123.384451056687
1580421549.43391,30.7927061875332,2.10574502174404,-123.933775844968
1580421549.43791,34.027618829633,2.41092545967808,-123.933775844968
1580421549.44191,36.9573510337987,3.26543068589308,-123.445487144274
1580421549.44592,38.5442893110551,3.75371938658736,-122.285801480125
1580421549.44992,38.9105058365758,3.32646677347975,-120.820935378042
1580421549.45392,36.8352788586251,2.96025024795904,-119.53917753872
1580421549.45792,32.318608377203,2.83817807278547,-119.172961013199
1580421549.46192,25.2994583047225,2.59403372243833,-119.53917753872
1580421549.46592,16.5102616922254,3.38750286106665,-120.637827115282
1580421549.46991,7.90417334248878,4.24200808728165,-122.590981918059
1580421549.47391,0.579842832074519,5.15754940108332,-124.299992370489
1580421549.47791,-4.7913328755626,7.23277637903402,-125.459678034638
1580421549.48191,-7.41588464179449,9.79629205767901,-125.093461509117
1580421549.48591,-5.34065766384379,11.7494468604561,-122.774090180819
1580421549.48991,3.63164721141379,12.1156633859769,-117.219806210422
1580421549.49391,18.7075608453497,10.7118333714809,-107.942320897231
1580421549.49791,36.1028458075837,8.39246204318306,-94.6364538033113
1580421549.5019,50.1411459525443,6.68345159075307,-78.5229266803997
1580421549.5059,54.0474555580986,5.34065766384379,-61.921110856794
1580421549.5099,43.7323567559317,5.46272983901736,-46.9062333104448
1580421549.5139,20.1724269474325,10.1625085831997,-35.2483405813689
1580421549.5179,-9.24696726939806,18.7075608453497,-26.7032883192187
1580421549.5219,-34.8821240558482,24.5670252536811,-20.7827878233004
1580421549.52588,-50.6904707408255,25.9708552681773,-14.8622873273823
1580421549.52988,-57.5265125505455,24.7501335164416,-6.80552376592664
1580421549.53388,-61.4328221560997,21.6983291371023,3.20439459830618
1580421549.53787,-66.193636987869,18.2803082322423,13.1532768749523
1580421549.54187,-73.0907148851759,16.1440451667047,21.3931486991683
1580421549.54587,-81.8188754100861,15.5947203784237,28.6564431219958
1580421549.54987,-90.1197833218889,16.4492256046387,35.5535210193025
1580421549.55387,-94.9416342412453,17.5478751812009,43.366140230411
1580421549.55787,-94.3312733653775,18.4634164950025,52.3994811932553
1580421549.56187,-88.8990615701532,19.3789578088044,62.3483634699014
1580421549.56587,-80.3540093080032,19.7451743343252,72.9076066224156
1580421549.56986,-69.8558022430761,19.5620660715647,83.8330663004504
1580421549.57386,-58.4420538643474,19.0127412832837,94.5754177157246
1580421549.57786,-46.9672693980317,18.341344319829,105.134660868238
1580421549.58186,-35.5535210193027,17.6089112687876,115.266651407645
1580421549.58586,-24.1397726405737,16.8764782177461,124.66620889601
1580421549.58986,-12.4208438239109,16.0219729915311,133.760585946441
1580421549.59386,0.091554131380235,15.2895399404897,142.671854734112
1580421549.59786,13.8246738384069,14.9843595025559,151.522087434195
1580421549.60186,27.191577019913,14.6791790646218,160.189211871519
1580421549.60587,39.2767223620965,14.7402151522087,168.856336308842
1580421549.60986,50.0801098649576,15.1064316777295,177.279316395819
1580421549.61386,59.6017395284962,15.8388647287709,185.336079957275
1580421549.61786,67.7805752651257,16.8154421301595,192.538338292516
1580421549.62186,74.4335088120852,18.0361638818952,199.069199664302
1580421549.62586,78.7060349431604,19.195849546044,204.806591897459
1580421549.62986,80.842298008698,20.4165712977797,210.055695429923
1580421549.63386,81.2085145342185,21.6372930495154,214.145113298238
1580421549.63785,79.9267566948961,22.919050888838,217.502098115511
1580421549.64185,77.3022049286642,23.8956282902266,220.248722056916
1580421549.64585,73.5179674982837,24.9332417792018,222.201876859694
1580421549.64985,68.6961165789276,25.6656748302432,223.727779049363
1580421549.65385,62.4704356450748,26.4591439688716,224.826428625925
1580421549.65785,55.2681773098343,27.0695048447394,225.49782558938
1580421549.66185,46.2958724345767,27.5577935454337,225.558861676966
1580421549.66585,35.4314488441289,27.7409018081939,225.314717326619
1580421549.66984,22.7359426260775,27.4357213702601,224.216067750057
1580421549.67384,8.51453421835663,26.3981078812847,222.446021210041
1580421549.67784,-6.43930724040592,24.7501335164416,220.126649881743
1580421549.68184,-21.210040436408,22.919050888838,217.318989852751
1580421549.68582,-35.0652323186084,20.5386434729533,214.206149385825
1580421549.68982,-47.8217746242467,18.4023804074159,211.093308918898
1580421549.69382,-58.9913786526283,16.4492256046387,208.102540627146
1580421549.69782,-68.5740444037538,14.4350347142747,205.416952773327
1580421549.70182,-77.1801327534904,12.2377355611504,202.914473182269
1580421549.70581,-85.1148241397725,10.0404364080262,200.411993591211
1580421549.70981,-92.0119020370794,7.7821011673152,197.848477912566
1580421549.71381,-97.2610055695432,5.7068741893645,195.040817883574
1580421549.71781,-100.373846036469,3.57061112382689,192.416266117342
1580421549.72181,-102.388036926833,1.0070954451819,189.79171435111
1580421549.72581,-102.510109102007,-1.25123979552905,186.923018234531
1580421549.72981,-100.801098649577,-3.50957503624022,184.237430380712
1580421549.73381,-97.6272220950639,-5.7068741893645,181.42977035172
1580421549.7378,-93.5988403143358,-8.14831769283592,178.927290760662
1580421549.7418,-88.3497367818723,-10.7728694590676,176.607919432364
1580421549.7458,-82.4292362859539,-12.664988174258,174.349584191653
1580421549.7498,-75.593194476234,-14.0077821011673,171.847104600595
1580421549.7538,-68.3909361409933,-15.4726482032502,169.28358892195
1580421549.7578,-60.7003891050583,-16.9985503929197,166.842145418479
1580421549.7618,-53.1929503318838,-18.0361638818952,164.217593652247
1580421549.76581,-46.1738002594034,-18.646524757763,161.104753185321
1580421549.76981,-39.6429388876174,-18.7685969329366,157.869840543221
1580421549.7738,-33.478294041352,-17.9751277943083,154.207675288014
1580421549.7778,-28.2291905088882,-16.8154421301595,150.240329594873
1580421549.7818,-23.5904478522925,-15.228503852903,145.723659113451
1580421549.7858,-19.8672465094987,-13.6415655756466,141.023880369268
1580421549.7898,-17.3647669184404,-11.2611581597619,135.835812924392
1580421549.7938,-15.5947203784237,-8.69764248111687,130.159456778821
1580421549.7978,-14.3129625391011,-6.68345159075307,123.994811932555
1580421549.8018,-14.2519264515145,-5.46272983901736,117.708094911116
1580421549.80579,-15.4116121156633,-4.8523689631495,111.238269626917
1580421549.80979,-17.792019531548,-3.63164721141379,104.646372167544
1580421549.81379,-20.904859998474,-2.22781719691761,97.1999694819565
1580421549.81779,-24.8722056916151,-1.0070954451819,89.5094224460213
1580421549.82179,-29.0226596475165,0.457770656900948,81.5136949721523
1580421549.82579,-32.8068970778975,1.9226367589838,73.0296787975894
1580421549.82979,-35.3093766689556,3.44853894865332,64.4846265354395
1580421549.83379,-35.5535210193027,4.66926070038903,55.6954299229419
1580421549.83779,-32.6848249027239,5.82894636453807,46.784161135271
1580421549.84178,-27.5577935454337,6.98863202868688,37.8728923476003
1580421549.84576,-21.0879682612344,8.02624551766235,29.1447318226901
1580421549.84976,-15.2895399404897,8.51453421835663,20.7827878233004
1580421549.85376,-10.7728694590676,8.45349813076973,12.7870603494316
1580421549.85776,-7.84313725490188,8.45349813076973,4.7913328755626
1580421549.86176,-5.95101853971164,8.27038986800949,-3.26543068589308
1580421549.86576,-3.57061112382689,8.5755703059433,-11.2001220721752
1580421549.86976,-0.640878919661191,9.18593118181116,-19.2568856336309
1580421549.87375,2.7161058976119,9.97940032043948,-27.0695048447394
1580421549.87775,6.5003433279926,10.8949416342411,-34.7600518806746
1580421549.88175,9.67421988250544,11.8715190356297,-41.9623102159153
1580421549.88575,12.359807736324,12.9091325246052,-49.1035324635691
1580421549.88975,14.2519264515145,14.0077821011673,-56.0616464484626
1580421549.89375,15.0453955901426,14.6791790646218,-62.8366521705959
1580421549.89775,13.7026016632333,14.8012512397954,-69.7947661554895
1580421549.90175,9.85732814526591,14.4960708018616,-76.752880140383
1580421549.90575,3.87579156176093,14.2519264515145,-83.8330663004501
1580421549.90974,-0.274662394140478,18.2192721446554,-90.5470359349965
1580421549.91374,2.47196154726475,32.6848249027237,-94.6364538033113
1580421549.91774,-0.885023270008332,39.7039749752039,-97.0778973067827
1580421549.92174,-14.8012512397954,40.6195162890058,-100.801098649577
1580421549.92572,-30.1213092240787,44.1596093690393,-105.806057831693
1580421549.92972,-30.7316700999465,43.4271763179979,-112.275883115892
1580421549.93372,8.33142595559616,24.3839169909209,-115.205615320058
1580421549.93772,71.9310292210271,-5.40169375143046,-105.928130006867
1580421549.94172,111.116197451744,-23.5904478522925,-88.9600976577401
1580421549.94571,102.815289539941,-23.8345922026397,-75.7152666514075
1580421549.94971,59.2965590905619,-12.0546272983902,-72.6634622720683
1580421549.95371,9.06385900663759,5.21858548867021,-79.3774319066147
1580421549.95771,-30.4264896620125,21.3931486991683,-91.279468986038
1580421549.96171,-56.1226825360495,31.7082475013351,-103.608758678569
1580421549.96571,-67.7805752651254,35.5535210193025,-111.909666590372
1580421549.96971,-66.0715648126954,26.6422522316318,-112.031738765545
1580421549.9737,-58.1368734264133,10.1625085831997,-104.646372167544
1580421549.9777,-58.8693064774548,2.41092545967808,-96.9558251316091
1580421549.9817,-68.757152666514,5.7068741893645,-95.6740672922867
1580421549.9857,-80.0488288700694,15.5947203784237,-100.74006256199
1580421549.9897,-94.2702372777906,26.337071793698,-109.163042648966
1580421549.9937,-106.782635233082,32.0744640268558,-117.463950560769
1580421549.9977,-113.435568780041,28.7174792095825,-122.774090180819
1580421550.0017,-113.923857480735,22.5528343633173,-125.642786297398
1580421550.00571,-105.806057831693,16.8154421301595,-126.802471961547
1580421550.0097,-90.4859998474096,13.5805294880597,-127.901121538109
1580421550.0137,-69.611657892729,12.359807736324,-129.304951552605
1580421550.0177,-45.3803311207753,10.4676890211338,-129.915312428473
1580421550.0217,-25.1773861295489,7.53795681696806,-128.999771114672
1580421550.0257,-13.8246738384069,5.6458381017776,-126.37521934844
1580421550.0297,-13.0312046997788,6.98863202868688,-122.652018005646
1580421550.0337,-20.7827878233004,12.1156633859769,-118.806744487678
1580421550.0377,-33.478294041352,18.341344319829,-115.571831845579
1580421550.04169,-45.8686198214696,23.7125200274661,-112.642099641413
1580421550.04569,-53.6812390325781,27.6188296330204,-109.590295262074
1580421550.04969,-53.7422751201648,29.4499122606239,-106.05020218204
1580421550.05369,-45.5024032959489,29.2057679102768,-101.777676050965
1580421550.05769,-30.7316700999465,28.1071183337147,-97.1389333943696
1580421550.06169,-9.18593118181116,26.2760357061111,-92.0119020370794
1580421550.06569,17.2426947432668,24.628061341268,-85.7862211032273
1580421550.06969,44.4037537193865,23.6514839398794,-78.7670710307468
1580421550.07368,66.9260700389109,24.8722056916151,-71.625848783093
1580421550.07768,81.2085145342185,27.3746852826732,-65.5222400244145
1580421550.08168,87.4952315556575,29.6940566109711,-60.7003891050583
1580421550.08566,88.7159533073932,31.6472114137482,-57.4044403753719
1580421550.08966,87.0679789425499,32.5627527275501,-55.0850690470741
1580421550.09366,83.9551384756237,31.5861753261615,-53.0708781567103
1580421550.09766,78.5229266803999,29.9382009613182,-51.3618677042803
1580421550.10166,70.7103074692914,28.5343709468223,-49.4697489890898
1580421550.10566,61.7990386816205,27.4967574578468,-48.4321355001146
1580421550.10965,53.1319142442967,26.5201800564582,-48.0659189745938
1580421550.11365,45.1361867704279,25.2994583047225,-48.6152437628748
1580421550.11765,38.1780727855344,24.322880903334,-49.1035324635691
1580421550.12165,32.318608377203,23.4073395895323,-49.164568551156
1580421550.12565,26.7643244068054,21.8814373998625,-49.164568551156
1580421550.12965,21.8204013122759,20.050354772259,-49.0424963759824
1580421550.13365,16.632333867399,17.7309834439611,-49.2866407263296
1580421550.13765,11.5663385976959,15.5336842908368,-49.2256046387427
1580421550.14164,7.47692072938116,12.7870603494316,-48.7373159380484
1580421550.14564,4.42511635004189,10.1014724956131,-47.9438467994203
1580421550.14964,2.10574502174404,7.29381246662092,-46.601052872511
1580421550.15364,0.579842832074519,4.7913328755626,-44.9530785076677
1580421550.15764,0.579842832074519,2.53299763485165,-42.877851529717
1580421550.16164,2.22781719691761,0.70191500724809,-40.2532997634853
1580421550.16565,4.8523689631495,-1.12916762035547,-37.4456397344932
1580421550.16965,9.24696726939806,-2.65506981002522,-34.2717631799803
1580421550.17365,17.0595864805066,-3.14335851071951,-30.8537422751201
1580421550.17764,26.3981078812847,-3.75371938658736,-27.7409018081939
1580421550.18164,35.0041962310215,-4.18097199969475,-24.9942778667887
1580421550.18564,42.6337071793696,-3.75371938658736,-22.2476539253832
1580421550.18964,48.7373159380481,-2.83817807278547,-19.6231021591516
1580421550.19364,53.6812390325777,-1.0681315327688,-17.0595864805066
1580421550.19764,56.7940794995038,0.640878919661191,-14.6181429770352
1580421550.20164,56.8551155870905,2.04470893415737,-12.664988174258
1580421550.20564,54.4136720836191,2.7771419851988,-11.505302510109
1580421550.20964,50.7515068284119,2.65506981002522,-11.0170138094147
1580421550.21363,46.2348363469901,2.22781719691761,-11.505302510109
1580421550.21763,41.3519493400472,1.43434805828952,-12.7260242618447
1580421550.22163,36.7132066834515,0.274662394140478,-14.4960708018616
1580421550.22563,33.4172579537651,-1.0070954451819,-16.2050812542916
1580421550.22963,31.0368505378804,-1.43434805828952,-17.5478751812009
1580421550.23363,27.9240100709544,-1.98367284657047,-18.5244525825894
1580421550.23763,24.2618448157473,-2.41092545967808,-19.3179217212175
1580421550.24162,19.9893186846723,-2.53299763485165,-19.9282825970854
1580421550.2456,14.6791790646218,-2.47196154726475,-20.4165712977797
1580421550.2496,10.1014724956131,-2.83817807278547,-20.7217517357137
1580421550.2536,7.72106507972831,-2.53299763485165,-20.355535210193
1580421550.2576,7.72106507972831,-1.73952849622333,-19.6231021591516
1580421550.2616,10.5897611963073,-0.946059357595232,-18.341344319829
1580421550.2656,15.4726482032502,-0.091554131380235,-16.5102616922254
1580421550.2696,21.5152208743418,0.640878919661191,-14.4960708018616
1580421550.2736,28.8395513847561,0.70191500724809,-12.2377355611504
1580421550.2776,36.4080262455175,0.70191500724809,-10.1014724956131
1580421550.28159,42.3285267414358,0.640878919661191,-8.39246204318306
1580421550.28559,47.638666361486,0.396734569314049,-7.29381246662092
1580421550.28959,52.3994811932553,0.579842832074519,-6.68345159075307
1580421550.29359,53.4981307698176,0.762951094834762,-6.37827115281902
1580421550.29759,52.0332646677348,0.70191500724809,-6.62241550316617
1580421550.30159,50.0190737773705,0.640878919661191,-7.17174029144735
1580421550.30559,46.4179446097503,-0.335698481727377,-8.33142595559616
1580421550.30958,42.2064545662622,-1.8616006713969,-9.79629205767901
1580421550.31358,38.4832532234682,-2.65506981002522,-11.0170138094147
1580421550.31758,34.4548714427403,-3.32646677347975,-11.9935912108033
1580421550.32158,31.2199588006408,-4.24200808728165,-12.5429159990845
1580421550.32559,29.5719844357975,-4.97444113832307,-13.3974212252995
1580421550.32959,26.7032883192187,-6.01205462729831,-14.8012512397954
1580421550.33359,25.0553139543754,-7.53795681696806,-16.5102616922254
1580421550.33759,25.7267109178301,-8.6366063935302,-17.6699473563745
1580421550.34159,28.7174792095825,-8.81971465629044,-18.1582360570687
1580421550.34558,32.8679331654839,-8.08728160524902,-18.341344319829
1580421550.34958,37.8728923476003,-6.56137941557949,-18.1582360570687
1580421550.35358,43.7323567559317,-5.03547722590974,-17.9751277943083
1580421550.35758,50.8735790035857,-5.03547722590974,-18.0971999694818
1580421550.36158,54.6578164339662,-5.40169375143046,-18.9517051956968
1580421550.36558,54.9629968719005,-4.97444113832307,-20.4776073853666
1580421550.36958,54.3526359960324,-4.30304417486832,-22.1255817502097
1580421550.37358,54.9629968719005,-4.18097199969475,-23.5294117647059
1580421550.37757,53.8033112077514,-4.91340505073617,-25.6656748302432
1580421550.38157,50.8735790035857,-6.68345159075307,-28.4733348592354
1580421550.38557,46.0517280842296,-9.12489509422448,-32.5017166399634
1580421550.38957,40.802624551766,-11.2001220721752,-37.5066758220798
1580421550.39357,39.3377584496832,-12.2377355611504,-42.6947432669567
1580421550.39757,39.6429388876172,-12.9091325246052,-47.6997024490731
1580421550.40157,39.3377584496832,-12.664988174258,-52.5215533684291
1580421550.40555,38.1170366979475,-12.4818799114976,-57.648584725719
1580421550.40955,35.4314488441289,-12.7870603494316,-62.6535439078355
1580421550.41354,30.7316700999465,-13.1532768749523,-67.5974670023652
1580421550.41754,24.7501335164416,-13.4584573128861,-72.7855344472418
1580421550.42154,19.0127412832837,-13.6415655756466,-78.2787823300525
1580421550.42554,16.632333867399,-13.519493400473,-83.7109941252766
1580421550.42954,17.1206225680933,-12.9091325246052,-88.6549172198061
1580421550.43354,18.5854886701761,-11.7494468604561,-93.2326237888151
1580421550.43754,18.5854886701761,-11.2001220721752,-97.3830777447167
1580421550.44154,18.8296330205233,-11.4442664225223,-101.289387350271
1580421550.44553,19.5620660715647,-12.4208438239109,-105.317769130999
1580421550.44953,20.5996795605402,-12.4818799114976,-109.10200656138
1580421550.45353,21.8814373998625,-12.2987716487373,-112.581063553826
1580421550.45753,24.628061341268,-12.359807736324,-116.12115663386
1580421550.46153,26.9474326695658,-12.7260242618447,-119.661249713893
1580421550.46553,28.4122987716487,-13.2753490501259,-123.811703669795
1580421550.46953,28.3512626840618,-13.8246738384069,-128.389410238804
1580421550.47353,26.7643244068054,-14.5571068894483,-133.455405508507
1580421550.47752,24.3839169909209,-15.0453955901426,-138.460364690623
1580421550.48152,23.1021591515982,-15.1064316777295,-142.854962996872
1580421550.48553,20.2944991226061,-15.228503852903,-147.310597390707
1580421550.48953,17.9751277943083,-15.777828641184,-152.071412222477
1580421550.49353,17.1816586556802,-15.8999008163576,-156.160830090791
1580421550.49753,17.5478751812009,-16.0219729915311,-160.189211871519
1580421550.50153,20.4776073853666,-16.083009079118,-164.034485389487
1580421550.50553,24.2008087281604,-15.4726482032502,-167.635614557107
1580421550.50953,28.3512626840618,-14.5571068894483,-170.80949111162
1580421550.51353,33.173113603418,-13.7026016632333,-173.311970702678
1580421550.51752,36.6521705958646,-12.9701686121919,-176.11963073167
1580421550.52152,40.6195162890058,-12.7870603494316,-179.110399023423
1580421550.52552,44.0375371938658,-12.5429159990845,-181.857022964828
1580421550.52952,47.7607385366596,-11.9325551232166,-184.48157473106
1580421550.53352,52.0943007553215,-10.8339055466545,-186.495765621424
1580421550.53752,57.2823682001981,-9.97940032043948,-188.326848249027
1580421550.54152,64.1794460975052,-9.67421988250544,-190.218966964218
1580421550.54552,72.846570534829,-9.55214770733187,-192.172121766995
1580421550.54951,81.8188754100865,-8.88075074387734,-193.759060044251
1580421550.55351,89.0821698329137,-7.66002899214163,-195.162890058747
1580421550.55751,93.5378042267494,-5.7068741893645,-196.62775616083
1580421550.56151,98.2375829709317,-2.28885328450451,-197.848477912566
1580421550.56549,103.059433890288,0.823987182421661,-199.130235751888
1580421550.56949,110.322728313115,1.67849240863666,-199.130235751888
1580421550.57349,115.266651407645,2.16678110933094,-198.031586175326
1580421550.57749,114.290074006256,2.47196154726475,-196.322575722896
1580421550.58149,109.529259174487,1.67849240863666,-195.10185397116
1580421550.58548,106.05020218204,0.091554131380235,-194.369420920119
1580421550.58948,110.017547875181,-0.274662394140478,-193.453879606317
1580421550.59348,117.586022735943,0.457770656900948,-191.989013504234
1580421550.59748,123.567559319448,3.26543068589308,-190.402075226978
1580421550.60148,127.107652399481,5.82894636453807,-187.777523460746
1580421550.60548,125.398641947051,5.09651331349664,-183.382925154498
1580421550.60948,118.989852750439,3.93682764934761,-178.561074235142
1580421550.61347,108.186465247578,3.14335851071951,-174.715800717174
1580421550.61747,90.730144197757,2.96025024795904,-173.311970702678
1580421550.62147,66.6819256885638,3.14335851071951,-174.471656366827
1580421550.62547,40.4364080262453,5.6458381017776,-176.729991607538
1580421550.62947,16.5102616922254,10.0404364080262,-177.950713359274
1580421550.63347,0.0305180437933359,15.4726482032502,-177.8286411841
1580421550.63747,-22.0035095750361,15.2895399404897,-177.035172045472
1580421550.64147,-42.023346303502,12.7260242618447,-178.377965972381
1580421550.64548,-52.4605172808424,11.6273746852826,-188.143739986267
1580421550.64948,-37.3235675593196,5.40169375143046,-194.9187457084
1580421550.65347,-12.6039520866711,-14.1298542763409,-175.631342030976
1580421550.65747,-2.28885328450451,-23.8345922026397,-139.864194705119
1580421550.66147,-2.22781719691761,-10.4066529335469,-104.34119172961
1580421550.66547,-6.25619897764545,0.885023270008332,-67.048142214084
1580421550.66947,-6.07309071488521,0.091554131380235,-29.0226596475165
1580421550.67347,3.38750286106665,1.37331197070262,1.31227588311594
1580421550.67747,7.29381246662092,8.69764248111687,20.8438239108873
1580421550.68147,-12.664988174258,14.0077821011673,30.4264896620125
1580421550.68546,-60.4562447547112,11.3832303349354,30.4264896620125
1580421550.68946,-120.576791027695,8.08728160524902,22.613870450904
1580421550.69346,-168.062867170215,10.0404364080262,11.7494468604561
1580421550.69746,-195.10185397116,12.664988174258,3.44853894865332
1580421550.70146,-211.947814145113,12.8480964370183,0.579842832074519
1580421550.70546,-225.009536888685,11.2611581597619,3.38750286106665
1580421550.70946,-231.906614785992,8.69764248111687,11.810482948043
1580421550.71346,-227.57305256733,4.30304417486832,25.9098191805904
1580421550.71745,-209.811551079576,-1.61745632104976,46.0517280842296
1580421550.72145,-180.758373388266,-7.84313725490188,72.0531013962009
1580421550.72543,-145.479514763104,-12.2377355611504,101.716639963378
1580421550.72943,-110.505836575875,-13.5805294880597,131.868467231251
1580421550.73343,-79.9267566948959,-11.9325551232166,159.334706645304
1580421550.73743,-53.8033112077517,-8.5755703059433,181.918059052415
1580421550.74143,-31.7082475013353,-5.46272983901736,199.557488364996
1580421550.74543,-14.6181429770352,-3.57061112382689,212.802319371328
1580421550.74943,-2.22781719691761,-3.20439459830618,223.239490348669
1580421550.75342,6.62241550316617,-3.81475547417404,232.944228274968
1580421550.75742,12.1766994735638,-5.03547722590974,242.893110551614
1580421550.76142,15.5947203784237,-6.31723506523235,253.635461966888
1580421550.76542,17.4258030060273,-7.72106507972831,265.537499046311
1580421550.76942,19.0127412832837,-8.81971465629044,278.721293965057
1580421550.77342,20.9658960860609,-8.6366063935302,292.393377584497
1580421550.77742,22.4307621881437,-7.04966811627378,305.333028152895
1580421550.78142,23.4073395895323,-4.60822461280236,316.990920881972
1580421550.78541,24.9332417792018,-1.8616006713969,327.367055771725
1580421550.78941,29.0226596475165,1.0070954451819,336.644541084916
1580421550.79341,35.8587014572365,3.75371938658736,345.006485084306
1580421550.79741,44.4037537193865,6.31723506523235,352.14770733196
1580421550.80141,53.6812390325777,8.94178683146401,358.678568703746
1580421550.80542,62.2873273823147,11.3832303349354,364.293888761731
1580421550.80942,69.0012970168614,13.7026016632333,369.298847943847
1580421550.81342,73.1517509727628,16.0219729915311,373.876554512856
1580421550.81742,75.5321583886475,18.8906691081102,378.210116731518
1580421550.82141,77.3632410162509,23.2242313267718,382.238498512245
1580421550.82541,76.264591439689,27.4357213702601,385.961699855039
1580421550.82941,71.5648126955066,28.7174792095825,388.830395971618
1580421550.83341,65.0949874113071,29.6940566109711,391.210803387503
1580421550.83741,54.9629968719005,31.0978866254673,392.553597314412
1580421550.84141,39.2156862745096,31.8913557640954,392.736705577172
1580421550.84541,18.8296330205233,31.3420309758144,392.065308613718
1580421550.84941,-4.05889982452118,30.3044174868389,390.600442511635
1580421550.8534,-27.9240100709544,29.1447318226901,387.731746395056
1580421550.8574,-51.9722285801481,28.3512626840618,383.398184176394
1580421550.8614,-76.2645914396887,27.3746852826732,377.843900205997
1580421550.8654,-100.984206912337,26.0929274433508,371.129930571451
1580421550.8694,-125.459678034638,23.8345922026397,363.622491798276
1580421550.8734,-150.789654383154,20.5386434729533,355.687800411994
1580421550.8774,-176.607919432364,16.5712977798123,347.814145113298
1580421550.8814,-201.815823605707,12.1156633859769,340.123598077364
1580421550.88538,-225.253681239033,6.37827115281902,332.616159304189
1580421550.88937,-246.128023193713,0.579842832074519,325.413900968948
1580421550.89337,-265.354390783551,-5.40169375143046,318.333714808881
1580421550.89737,-282.139314869917,-11.5663385976959,311.13145647364
1580421550.90137,-294.651712825208,-17.6699473563745,304.112306401159
1580421550.90537,-301.792935072862,-24.2618448157473,297.4593728542
1580421550.90937,-300.6942854963,-30.9758144502937,291.294728007935
1580421550.91337,-291.111619745174,-37.0794232089725,285.618371862363
1580421550.91737,-273.594262607767,-41.474021515221,279.575799191272
1580421550.92136,-250.156404974441,-43.4882124055848,273.289082169833
1580421550.92536,-221.469443808652,-43.5492484931717,266.69718471046
1580421550.92936,-188.570992599374,-42.5726710917831,260.044251163501
1580421550.93336,-154.757000076295,-41.3519493400474,253.452353704128
1580421550.93736,-123.811703669795,-39.5819028000305,246.311131456474
1580421550.94136,-97.9934386205846,-36.8352788586253,238.559548332952
1580421550.94536,-78.5229266803997,-33.1731136034182,229.526207370108
1580421550.94936,-63.9963378347447,-27.9240100709544,219.272144655528
1580421550.95335,-52.4605172808424,-21.8204013122759,208.224612802319
1580421550.95735,-42.9388876173039,-16.1440451667047,195.956359197376
1580421550.96135,-35.4314488441291,-7.90417334248878,182.528419928282
1580421550.96536,-26.5812161440451,0.579842832074519,168.062867170214
1580421550.96936,-14.0077821011673,6.86655985351331,152.254520485237
1580421550.97336,1.49538414587619,11.9325551232166,134.981307698176
1580421550.97736,19.0127412832837,15.5947203784237,116.487373159381
1580421550.98136,36.530098420691,18.341344319829,96.7116807812622
1580421550.98536,52.8267338063629,20.050354772259,76.0814831769285
1580421550.98935,67.170214389258,20.8438239108873,54.7188525215533
1580421550.99335,79.316395819028,21.2710765239947,32.8068970778972
1580421550.99735,89.7535667963684,21.6983291371023,11.1390859845883
1580421551.00135,99.4583047226674,22.919050888838,-10.2235446707866
1580421551.00535,108.979934386206,24.4449530785075,-30.5485618371861
1580421551.00935,117.647058823529,25.8487830930037,-49.5307850766767
1580421551.01335,126.314183260853,26.5812161440451,-66.9871061264973
1580421551.01735,133.699549858854,26.1539635309375,-83.2837415121689
1580421551.02134,137.361715114061,24.5670252536811,-99.0920881971467
1580421551.02534,136.62928206302,22.8580148012511,-114.22903791867
1580421551.02934,142.610818646525,39.6429388876172,-128.877698939498
1580421551.03334,164.522774090181,57.2213321126114,-133.516441596094
1580421551.03734,163.851377126726,37.1404592965589,-127.473868925002
1580421551.04134,174.288548104066,32.7458609903103,-119.417105363546
1580421551.04532,181.551842526894,10.5897611963073,-103.730830853742
1580421551.04932,167.696650644693,-39.765011062791,-82.3071641107804
1580421551.05332,125.642786297398,-64.9118791485466,-55.9395742732891
1580421551.05731,35.6755931944761,-48.6152437628748,-49.5918211642634
1580421551.06131,-59.4186312657359,-13.519493400473,-76.0814831769283
1580421551.06531,-143.587396047913,11.7494468604561,-112.947280079347
1580421551.06931,-214.816510261692,27.8629739833675,-149.996185244526
1580421551.07331,-253.635461966888,38.8494697489889,-186.251621271077
1580421551.07731,-245.578698405432,32.1965362020294,-207.309071488517
1580421551.08131,-191.927977416648,1.12916762035547,-197.665369649805
1580421551.08531,-143.282215609979,-15.8999008163576,-173.434042877852
1580421551.0893,-130.281528953994,-6.86655985351331,-158.113984893568
1580421551.0933,-137.361715114061,8.94178683146401,-157.198443579767
1580421551.0973,-143.46532387274,18.0971999694818,-166.964217593652
1580421551.1013,-149.935149156939,19.8672465094987,-180.331120775158
1580421551.1053,-161.287861448081,18.0971999694818,-193.636987869078
1580421551.1093,-166.353856717785,16.083009079118,-203.585870145724
1580421551.1133,-157.259479667353,13.6415655756466,-207.125963225757
1580421551.1173,-134.431982909895,14.7402151522087,-206.759746700237
1580421551.12129,-91.8898298619058,19.1348134584573,-203.891050583657
1580421551.12527,-38.1170366979477,19.8062104219118,-198.397802700847
1580421551.12927,10.4066529335469,17.3037308308537,-189.730678263523
1580421551.13327,42.9999237048903,19.8672465094987,-178.561074235142
1580421551.13727,57.5875486381319,31.464103150988,-166.964217593652
1580421551.14127,55.6954299229419,47.3334859235522,-157.259479667353
1580421551.14527,43.9154650186922,61.4938582436862,-149.813076981765
1580421551.14927,31.9523918516823,69.062333104448,-142.549782558938
1580421551.15327,28.2902265964751,69.0012970168614,-133.760585946441
1580421551.15726,33.8445105668725,63.14183260853,-123.262378881514
1580421551.16126,43.3051041428243,53.5591668574043,-112.581063553826
1580421551.16526,51.36186770428,43.366140230411,-103.364614328222
1580421551.16926,57.7096208133057,35.3093766689553,-96.2233920805677
1580421551.17326,63.9963378347452,29.9992370489051,-90.424963759823
1580421551.17726,70.9544518196385,25.6656748302432,-85.7251850156404
1580421551.18126,76.0814831769285,21.4541847867551,-81.879911497673
1580421551.18526,78.2787823300528,16.8154421301595,-78.4008545052261
1580421551.18925,76.4476997024494,12.0546272983902,-75.4100862134737
1580421551.19325,69.9778744182499,5.34065766384379,-72.9076066224154
1580421551.19725,58.5030899519338,-2.47196154726475,-70.771343556878
1580421551.20125,43.9154650186922,-10.8949416342411,-69.0012970168611
1580421551.20526,27.7409018081939,-17.1206225680933,-67.5364309147783
1580421551.20926,11.6273746852826,-20.7827878233004,-65.9494926375219
1580421551.21326,0.091554131380235,-23.1021591515982,-63.9963378347447
1580421551.21726,-4.91340505073617,-24.2618448157473,-61.4328221560997
1580421551.22126,-3.93682764934761,-23.1021591515982,-58.4420538643474
1580421551.22526,0.946059357595232,-20.904859998474,-54.9629968719005
1580421551.22925,7.23277637903402,-18.0361638818952,-51.1177233539331
1580421551.23325,14.9843595025559,-14.9843595025559,-46.2958724345769
1580421551.23725,24.322880903334,-12.1766994735638,-41.1078049897003
1580421551.24125,31.8913557640954,-9.85732814526591,-36.2249179827575
1580421551.24525,38.3611810482946,-7.96520943007545,-32.1355001144427
1580421551.24925,44.2816815442129,-5.88998245212474,-28.7174792095825
1580421551.25325,49.4697489890896,-3.69268329900046,-25.3604943923094
1580421551.25724,56.0006103608757,-1.12916762035547,-21.8814373998625
1580421551.26124,62.4704356450748,1.55642023346309,-18.7685969329366
1580421551.26524,66.4377813382166,3.26543068589308,-16.8154421301595
1580421551.26924,67.3533226520181,3.69268329900046,-15.9609369039445
1580421551.27324,65.7053482871752,3.26543068589308,-16.0219729915311
1580421551.27724,62.7145799954224,2.89921416037237,-16.3881895170518
1580421551.28124,59.357595178149,2.10574502174404,-16.9985503929197
1580421551.28522,55.5733577477681,0.946059357595232,-17.8530556191347
1580421551.28922,50.8735790035857,-0.70191500724809,-18.646524757763
1580421551.29321,46.1127641718165,-2.04470893415737,-19.5620660715647
1580421551.29721,41.2909132524603,-2.53299763485165,-20.5386434729533
1580421551.30121,37.6287479972532,-3.38750286106665,-21.8814373998625
1580421551.30521,34.2717631799801,-3.32646677347975,-23.468375677119
1580421551.30921,31.3420309758144,-2.96025024795904,-25.1163500419623
1580421551.31321,29.9382009613182,-3.14335851071951,-26.5201800564582
1580421551.31721,29.755092698558,-3.08232242313261,-27.5577935454337
1580421551.32121,28.1071183337147,-3.44853894865332,-28.7785152971694
1580421551.3252,23.2242313267718,-4.36408026245522,-30.7927061875332
1580421551.3292,17.3647669184404,-5.46272983901736,-33.3562218661784
1580421551.3332,14.8622873273823,-5.95101853971164,-35.3704127565425
1580421551.3372,15.7167925535973,-5.6458381017776,-35.9197375448234
1580421551.3412,19.6841382467383,-4.73029678797593,-34.8821240558482
1580421551.3452,25.8487830930037,-3.20439459830618,-33.0510414282446
1580421551.3492,29.5109483482108,-1.49538414587619,-31.4641031509882
1580421551.3532,30.8537422751201,0.091554131380235,-30.4264896620125
1580421551.35719,31.3420309758144,1.9226367589838,-29.9992370489051
1580421551.36119,32.318608377203,3.08232242313261,-29.6330205233844
1580421551.3652,34.8210879682611,3.26543068589308,-29.0836957351032
1580421551.3692,34.9431601434346,2.22781719691761,-28.7174792095825
1580421551.3732,33.1120775158311,0.579842832074519,-29.3278400854504
1580421551.3772,30.609597924773,-0.823987182421661,-30.7316700999465
1580421551.3812,30.4264896620125,-1.8616006713969,-32.074464026856
1580421551.3852,33.6003662165253,-2.34988937209118,-32.9900053406577
1580421551.3892,39.2156862745096,-2.83817807278547,-33.4172579537653
1580421551.39319,45.1361867704279,-3.38750286106665,-33.6003662165256
1580421551.39719,51.7280842298005,-3.20439459830618,-33.2341496910049
1580421551.40119,56.6720073243305,-2.83817807278547,-33.0510414282446
1580421551.40519,57.2823682001981,-3.20439459830618,-33.9665827420463
1580421551.40919,56.6109712367434,-3.93682764934761,-35.9197375448234
1580421551.41319,53.9864194705119,-4.11993591210808,-38.7884336614025
1580421551.41719,50.6294346532386,-4.05889982452118,-42.6337071793698
1580421551.42119,48.1269550621805,-4.18097199969475,-47.0283054856184
1580421551.42518,45.5634393835353,-4.24200808728165,-51.5449759670405
1580421551.42918,42.0843823910886,-4.36408026245522,-56.3057907988098
1580421551.43318,37.8118562600137,-4.8523689631495,-61.3107499809262
1580421551.43718,32.9289692530708,-5.52376592660403,-66.4377813382162
1580421551.44118,27.9240100709544,-6.07309071488521,-71.9920653086137
1580421551.44516,24.2008087281604,-6.74448767833974,-77.302204928664
1580421551.44916,22.1255817502097,-6.68345159075307,-82.3682001983673
1580421551.45316,21.0879682612344,-6.31723506523235,-86.7627985046158
1580421551.45716,21.4541847867551,-5.46272983901736,-90.7301441977568
1580421551.46115,20.4776073853666,-4.91340505073617,-94.7585259784848
1580421551.46515,19.4399938963911,-4.8523689631495,-99.2141603723203
1580421551.46915,19.6231021591516,-4.91340505073617,-104.097047379263
1580421551.47315,19.7451743343252,-4.91340505073617,-108.979934386206
1580421551.47715,20.2334630350194,-4.8523689631495,-113.984893568322
1580421551.48115,22.1255817502097,-4.05889982452118,-118.745708400092
1580421551.48515,22.064545662623,-3.57061112382689,-123.811703669795
1580421551.48915,21.8814373998625,-4.05889982452118,-129.182879377432
1580421551.49314,19.7451743343252,-4.7913328755626,-134.798199435416
1580421551.49714,16.8764782177461,-5.82894636453807,-140.779736018921
1580421551.50114,14.4960708018616,-6.56137941557949,-146.639200427252
1580421551.50514,13.5805294880597,-6.92759594110021,-152.071412222477
1580421551.50914,13.9467460135804,-7.72106507972831,-157.076371404593
1580421551.51314,16.8154421301595,-8.27038986800949,-161.226825360495
1580421551.51714,18.8296330205233,-7.53795681696806,-164.827954528115
1580421551.52114,19.8062104219118,-6.43930724040592,-168.490119783322
1580421551.52515,22.5528343633173,-5.76791027695117,-172.152285038529
1580421551.52915,25.6656748302432,-4.54718852521546,-175.570305943389
1580421551.53314,28.7785152971694,-3.63164721141379,-178.988326848249
1580421551.53714,32.2575722896161,-2.96025024795904,-182.040131227588
1580421551.54114,35.2483405813687,-2.10574502174404,-184.84779125658
1580421551.54514,37.6287479972532,-1.55642023346309,-187.594415197986
1580421551.54914,39.7650110627908,-1.37331197070262,-190.035858701457
1580421551.55314,42.8778515297167,-1.49538414587619,-191.805905241474
1580421551.55714,49.1035324635691,-1.49538414587619,-193.02662699321
1580421551.56113,58.9913786526281,-1.9226367589838,-193.575951781491
1580421551.56513,70.0999465934237,-1.31227588311594,-194.247348744945
1580421551.56913,80.7202258335242,-0.640878919661191,-194.796673533227
1580421551.57313,89.5094224460213,-0.213626306553806,-196.078431372549
1580421551.57713,96.6506446936751,-0.579842832074519,-198.458838788434
1580421551.58113,103.486686503395,-1.55642023346309,-201.144426642252
1580421551.58513,110.811017013809,-1.80056458381023,-203.219653620203
1580421551.58913,118.684672312505,0.51880674448762,-204.318303196765
1580421551.59312,123.628595407034,3.08232242313261,-204.867627985046
1580421551.59712,128.389410238804,3.93682764934761,-205.294880598154
1580421551.60112,130.769817654688,2.7161058976119,-205.844205386435
1580421551.6051,130.769817654688,0.946059357595232,-206.027313649195
1580421551.6091,130.647745479515,-1.55642023346309,-205.477988860914
1580421551.6131,131.258106355383,-4.30304417486832,-203.891050583657
1580421551.6171,132.295719844358,-7.04966811627378,-201.57167925536
1580421551.6211,131.319142442969,-8.75867856870377,-199.557488364996
1580421551.6251,128.938735027085,-8.39246204318306,-197.909514000153
1580421551.62909,125.215533684291,-8.6366063935302,-196.078431372549
1580421551.63309,120.149538414588,-11.4442664225223,-193.331807431144
1580421551.63709,111.360341802091,-12.9701686121919,-189.913786526284
1580421551.64109,96.8947890440222,-12.6039520866711,-187.106126497292
1580421551.64509,75.5321583886475,-11.0170138094147,-186.007476920729
1580421551.64909,52.4605172808419,-9.12489509422448,-185.824368657969
1580421551.65309,32.0134279392689,-8.69764248111687,-186.007476920729
1580421551.65709,18.4634164950025,-7.90417334248878,-185.580224307622
1580421551.66108,-0.0305180437933359,-5.58480201419093,-183.688105592432
1580421551.66508,-29.4499122606239,-1.55642023346309,-182.101167315175
1580421551.66908,-57.9537651636531,5.15754940108332,-184.786755168994
1580421551.67308,-69.1233691920347,11.2001220721752,-195.590142671855
1580421551.67708,-54.5967803463798,6.86655985351331,-202.731364919509
1580421551.68108,-31.8303196765089,-14.068818188754,-187.533379110399
1580421551.68509,-21.3931486991683,-28.6564431219958,-156.038757915617
1580421551.68909,-20.050354772259,-24.5670252536811,-121.370260166323
1580421551.69309,-18.7075608453497,-20.050354772259,-84.3823910887311
1580421551.69708,-12.2377355611504,-22.0035095750361,-45.8075837338827
1580421551.70108,-0.885023270008332,-22.7969787136644,-12.1156633859769
1580421551.70508,8.88075074387734,-18.646524757763,13.7026016632333
1580421551.70908,8.08728160524902,-12.9091325246052,31.4030670634011
1580421551.71308,-11.505302510109,-9.18593118181116,41.5960936903944
1580421551.71708,-50.0801098649576,-8.39246204318306,45.5634393835353
1580421551.72108,-98.2986190585184,-6.62241550316617,43.9154650186922
1580421551.72508,-142.305638208591,-3.63164721141379,38.8494697489889
1580421551.72907,-175.204089417868,-2.28885328450451,34.1496910048065
1580421551.73307,-199.496452277409,-3.14335851071951,32.9900053406575
1580421551.73707,-217.746242465858,-4.91340505073617,36.9573510337987
1580421551.74107,-228.061341268025,-7.59899290455473,45.9906919966429
1580421551.74507,-228.671702143893,-11.0780498970016,59.90691996643
1580421551.74907,-218.417639429312,-15.5336842908368,78.5839627679866
1580421551.75307,-198.397802700847,-20.1724269474325,100.801098649576
1580421551.75707,-172.152285038529,-24.322880903334,124.788281071184
1580421551.76107,-143.404287785153,-27.0695048447394,148.836499580377
1580421551.76504,-114.839398794537,-27.6798657206073,171.725032425421
1580421551.76904,-88.4718089570458,-26.337071793698,192.233157854582
1580421551.77304,-64.2404821850919,-23.8956282902266,209.933623254749
1580421551.77704,-41.474021515221,-20.8438239108873,224.765392538338
1580421551.78104,-20.050354772259,-18.2192721446554,237.094682230869
1580421551.78504,-0.640878919661191,-16.9985503929197,248.081177996491
1580421551.78904,15.3505760280766,-16.7544060425726,259.128709849699
1580421551.79304,25.3604943923094,-17.0595864805066,270.969710841535
1580421551.79703,29.6330205233844,-17.4258030060273,283.78728923476
1580421551.80103,29.6940566109711,-17.4258030060273,297.520408941787
1580421551.80503,28.4733348592354,-16.5102616922254,311.375600823987
1580421551.80903,27.2526131074997,-15.228503852903,325.230792706188
1580421551.81303,27.4357213702601,-14.0077821011673,338.780804150454
1580421551.81703,29.9992370489051,-12.7870603494316,351.720454718853
1580421551.82103,34.3938353551537,-11.0170138094147,363.500419623102
1580421551.82503,39.6429388876172,-8.39246204318306,373.571374074922
1580421551.82903,45.1972228580146,-5.40169375143046,381.628137636378
1580421551.83302,51.1787594415196,-1.37331197070262,387.792782482643
1580421551.83702,56.3668268863962,2.53299763485165,392.309452964065
1580421551.84102,60.8224612802319,6.92759594110021,395.239185168231
1580421551.84503,64.9729152361338,13.1532768749523,397.314412146181
1580421551.84903,68.0857557030595,20.5996795605402,398.29098954757
1580421551.85303,71.137560082399,27.9240100709544,398.65720607309
1580421551.85703,73.1517509727628,33.7224383916989,398.840314335851
1580421551.86103,74.7997253376061,38.6663614862287,399.206530861372
1580421551.86503,76.5087357900361,43.366140230411,399.389639124132
1580421551.86902,75.8373388265813,47.638666361486,398.840314335851
1580421551.87302,69.5506218051423,52.2774090180819,397.009231708248
1580421551.87702,55.2071412222476,56.8551155870905,393.774319066148
1580421551.88102,32.7458609903103,61.7380025940333,389.135576409552
1580421551.88502,4.18097199969475,66.6819256885638,383.276112001221
1580421551.88902,-27.2526131074997,71.1985961699856,376.562142366674
1580421551.89302,-58.3810177767605,74.9217975127794,369.604028381781
1580421551.89701,-87.6173037308308,76.6918440527966,362.890058747234
1580421551.90101,-113.801785305562,75.9594110017551,356.786449988556
1580421551.90501,-134.859235523003,72.2362096589609,351.049057755398
1580421551.90901,-152.01037613489,65.3391317616542,344.701304646372
1580421551.91301,-167.57457846952,54.9629968719005,337.560082398718
1580421551.91701,-182.894636453803,42.4505989166094,329.625391012436
1580421551.92101,-197.604333562219,29.0836957351032,321.141374837873
1580421551.92499,-210.605020218204,16.2050812542916,312.291142137789
1580421551.92899,-219.943541618982,5.03547722590974,303.135728999771
1580421551.93298,-224.093995574884,-3.57061112382689,293.553063248646
1580421551.93698,-222.934309910735,-9.79629205767901,283.421072709239
1580421551.94098,-217.013809414816,-13.7026016632333,272.312504768444
1580421551.94498,-209.445334554055,-15.9609369039445,259.86114290074
1580421551.94898,-203.402761882963,-17.4258030060273,245.639734493019
1580421551.95298,-199.130235751888,-19.1348134584573,230.441748683909
1580421551.95698,-194.369420920119,-21.8204013122759,215.42687113756
1580421551.96098,-185.641260395209,-25.7267109178301,201.144426642252
1580421551.96497,-171.297779812314,-30.3044174868389,188.448920424201
1580421551.96897,-152.803845273518,-34.0886549172199,176.48584725719
1580421551.97297,-132.234683756771,-36.1028458075839,164.950026703288
1580421551.97697,-113.740749217975,-35.6755931944763,153.841458762493
1580421551.98097,-100.312809948882,-32.5627527275503,142.610818646525
1580421551.98497,-91.7067215991453,-27.6798657206073,131.013962005035
1580421551.98897,-88.8990615701532,-22.4307621881437,118.135347524224
1580421551.99297,-91.6456855115587,-16.5712977798123,104.34119172961
1580421551.99696,-97.1389333943696,-11.0780498970016,89.5094224460213
1580421552.00096,-102.327000839246,-5.82894636453807,74.0672922865647
1580421552.00497,-103.852903028916,-0.946059357595232,58.0148012512395
1580421552.00897,-98.5427634088655,2.59403372243833,42.3895628290225
1580421552.01297,-85.7251850156404,5.15754940108332,27.7409018081939
1580421552.01697,-65.5222400244145,6.01205462729831,14.3129625391011
1580421552.02097,-40.1922636758984,6.5003433279926,2.53299763485165
1580421552.02497,-13.519493400473,6.74448767833974,-8.08728160524902
1580421552.02897,11.810482948043,6.62241550316617,-17.6699473563745
1580421552.03296,34.2107270923932,6.86655985351331,-26.5812161440451
1580421552.03696,54.0474555580986,7.96520943007545,-35.3093766689556
1580421552.04096,73.0296787975894,11.1390859845883,-43.732356755932
1580421552.04496,103.364614328222,28.5343709468223,-50.5683985656519
1580421552.04896,133.760585946441,39.2156862745096,-51.4839398794538
1580421552.05296,127.412832837415,32.7458609903103,-51.7891203173876
1580421552.05696,100.862134737164,41.2298771648736,-57.0992599374381
1580421552.06096,79.1943236438547,52.2163729304948,-65.4001678492409
1580421552.06495,85.4810406652937,36.7742427710382,-77.0580605783168
1580421552.06895,140.413519493401,-1.9226367589838,-83.0395971618218
1580421552.07295,190.768291752499,-50.2021820401312,-75.2880140383002
1580421552.07695,186.73990997177,-80.0488288700694,-59.9679560540169
1580421552.08095,139.009689478904,-73.5790035858702,-55.7564660105288
1580421552.08493,77.5463492790113,-42.2674906538491,-67.1702143892576
1580421552.08893,18.341344319829,-0.823987182421661,-89.0211337453268
1580421552.09293,-35.9197375448234,33.7224383916989,-114.59525444419
1580421552.09693,-66.8039978637369,40.2532997634851,-136.263065537499
1580421552.10092,-66.9260700389104,20.2944991226061,-146.028839551385
1580421552.10492,-67.048142214084,-3.57061112382689,-143.099107347219
1580421552.10892,-86.152437628748,-10.955977721828,-140.4135194934
1580421552.11292,-115.9380483711,-0.885023270008332,-148.714427405203
1580421552.11692,-145.601586938277,14.923323414969,-166.292820630198
1580421552.12092,-178.01174944686,30.6706340123596,-190.585183489738
1580421552.12492,-204.135194934005,35.4924849317158,-218.051422903792
1580421552.12892,-212.436102845807,26.4591439688716,-240.268558785382
1580421552.13292,-189.60860608835,9.61318379491877,-246.433203631647
1580421552.13691,-146.700236514839,-6.19516289005878,-237.399862668803
1580421552.14091,-99.2141603723203,-12.1156633859769,-223.666742961776
1580421552.14491,-55.5733577477683,-7.04966811627378,-210.971236743725
1580421552.14891,-27.5577935454337,5.15754940108332,-200.473029678798
1580421552.15291,-23.9566643778132,20.2334630350194,-191.989013504234
1580421552.15691,-38.3611810482948,33.5393301289387,-184.420538643473
1580421552.16091,-53.5591668574045,45.7465476462958,-176.241702906844
1580421552.16492,-55.7564660105288,52.8877698939496,-165.194171053636
1580421552.16892,-43.2440680552377,54.5357442587929,-151.461051346609
1580421552.17291,-18.8296330205233,56.1837186236362,-136.81239032578
1580421552.17691,12.2987716487373,60.456244754711,-123.262378881514
1580421552.18091,43.4271763179979,65.8884565499352,-112.092774853132
1580421552.18491,66.8039978637371,69.3064774547952,-103.242542153048
1580421552.18891,81.2085145342185,70.3440909437709,-96.2844281681546
1580421552.19291,89.2652780956741,71.137560082399,-91.1573968108644
1580421552.19691,92.5612268253608,71.137560082399,-87.3731593804837
1580421552.2009,93.4767681391622,67.719539177539,-84.1992828259708
1580421552.2049,95.9182116426337,60.0289921416033,-80.6591897459373
1580421552.2089,100.312809948882,50.3242542153048,-76.752880140383
1580421552.2129,102.754253452354,41.1078049897001,-73.5790035858702
1580421552.2169,100.984206912337,31.5251392385746,-71.6868848706797
1580421552.2209,94.3312733653775,22.2476539253832,-71.2596322575723
1580421552.2249,81.6968032349127,15.0453955901426,-71.7479209582666
1580421552.2289,66.1936369878695,7.90417334248878,-71.9310292210268
1580421552.23289,49.9580376897839,1.0070954451819,-71.5037766079195
1580421552.23689,33.4782940413518,-4.7913328755626,-70.1609826810102
1580421552.24089,18.0361638818952,-9.06385900663759,-68.0857557030595
1580421552.24487,6.01205462729831,-11.2001220721752,-64.9729152361333
1580421552.24887,-1.37331197070262,-12.359807736324,-61.8600747692074
1580421552.25287,-2.04470893415737,-14.0077821011673,-58.7472343022812
1580421552.25687,2.96025024795904,-14.6181429770352,-56.000610360876
1580421552.26087,9.91836423285258,-14.4350347142747,-53.437094682231
1580421552.26487,14.8012512397954,-14.3129625391011,-51.1787594415198
1580421552.26886,15.8999008163576,-14.4350347142747,-49.2256046387427
1580421552.27286,15.1064316777295,-14.4960708018616,-47.3945220111391
1580421552.27686,16.4492256046387,-13.8857099259938,-45.3803311207753
1580421552.28086,19.0737773708704,-12.4208438239109,-43.5492484931717
1580421552.28486,20.1724269474325,-11.0170138094147,-41.8402380407417
1580421552.28886,20.5386434729533,-10.7728694590676,-40.6805523765927
1580421552.29286,20.4776073853666,-11.1390859845883,-39.5208667124439
1580421552.29686,20.1724269474325,-11.505302510109,-37.9949645227741
1580421552.30085,19.501029983978,-12.2987716487373,-36.2249179827575
1580421552.30485,19.9282825970854,-13.1532768749523,-34.4548714427406
1580421552.30885,22.2476539253832,-13.214312962539,-32.8679331654841
1580421552.31285,24.5059891660944,-13.3974212252995,-32.1965362020296
1580421552.31685,26.2149996185244,-13.7026016632333,-32.1965362020296
1580421552.32085,27.6188296330204,-14.2519264515145,-32.1965362020296
1580421552.32486,28.900587472343,-14.0077821011673,-31.6472114137484
1580421552.32886,30.2433813992523,-12.9091325246052,-30.1823453116654
1580421552.33286,32.6237888151368,-11.2611581597619,-28.1071183337147
1580421552.33686,36.1028458075837,-9.55214770733187,-26.337071793698
1580421552.34085,39.5819028000303,-8.75867856870377,-25.1163500419623
1580421552.34485,42.7557793545432,-8.69764248111687,-24.3839169909209
1580421552.34885,45.0141145952543,-8.69764248111687,-24.0177004654001
1580421552.35285,47.2114137483786,-8.08728160524902,-23.8345922026397
1580421552.35685,48.493171587701,-6.62241550316617,-24.0177004654001
1580421552.36085,47.94384679942,-5.27962157625689,-24.8722056916151
1580421552.36485,46.2958724345767,-4.54718852521546,-26.1539635309375
1580421552.36885,44.6478980697336,-4.36408026245522,-27.191577019913
1580421552.37284,40.3753719386586,-5.09651331349664,-28.4122987716487
1580421552.37684,32.9289692530708,-6.80552376592664,-29.9992370489051
1580421552.38084,24.9332417792018,-7.84313725490188,-31.7082475013353
1580421552.38484,17.1816586556802,-8.39246204318306,-33.9055466544596
1580421552.38884,10.7118333714809,-8.94178683146401,-36.4690623331046
1580421552.39284,6.31723506523235,-9.4300755321583,-38.5442893110553
1580421552.39684,5.52376592660403,-9.4911116197452,-39.459830624857
1580421552.40084,7.47692072938116,-8.75867856870377,-39.459830624857
1580421552.40481,10.5287251087204,-7.66002899214163,-39.0325780117496
1580421552.40881,14.4960708018616,-6.92759594110021,-37.9949645227741
1580421552.41281,19.8672465094987,-5.58480201419093,-36.5911345082782
1580421552.41681,23.9566643778132,-4.18097199969475,-35.492484931716
1580421552.42081,27.8629739833675,-3.69268329900046,-34.2717631799803
1580421552.42481,33.6003662165253,-3.20439459830618,-32.623788815137
1580421552.42881,40.1922636758982,-3.20439459830618,-31.2809948882277
1580421552.43281,45.7465476462958,-4.91340505073617,-31.0978866254673
1580421552.43681,51.0566872663462,-6.56137941557949,-31.4030670634013
1580421552.4408,57.7706569008924,-5.88998245212474,-31.4030670634013
1580421552.4448,64.2404821850923,-4.18097199969475,-31.5251392385749
1580421552.4488,70.0389105058366,-3.38750286106665,-32.4406805523768
1580421552.4528,72.1141374837875,-4.18097199969475,-34.332799267567
1580421552.4568,70.2220187685971,-5.21858548867021,-37.3846036469063
1580421552.4608,64.7898069733733,-6.25619897764545,-41.5960936903946
1580421552.4648,57.7096208133057,-7.29381246662092,-46.8451972228581
1580421552.46879,49.7138933394367,-8.02624551766235,-53.0098420691234
1580421552.47279,42.9999237048903,-8.6366063935302,-58.6861982146945
1580421552.47679,36.5911345082779,-8.94178683146401,-64.484626535439
1580421552.48079,28.2902265964751,-9.97940032043948,-70.2220187685969
1580421552.48477,20.7827878233004,-11.0780498970016,-76.0204470893416
1580421552.48877,14.8012512397954,-11.810482948043,-81.4526588845654
1580421552.49277,11.6884107728695,-11.9935912108033,-86.2134737163346
1580421552.49677,12.7870603494316,-11.2001220721752,-90.1197833218889
1580421552.50077,15.4726482032502,-10.4066529335469,-93.6598764019225
1580421552.50477,17.3647669184404,-10.2235446707866,-97.3830777447167
1580421552.50876,20.2334630350194,-9.91836423285258,-100.984206912337
1580421552.51276,22.6749065384909,-9.4300755321583,-104.402227817197
1580421552.51676,25.1163500419623,-8.81971465629044,-107.637140459297
1580421552.52076,27.0084687571525,-7.90417334248878,-110.872053101396
1580421552.52476,27.6798657206073,-7.59899290455473,-114.534218356603
1580421552.52876,27.4967574578468,-7.59899290455473,-118.806744487678
1580421552.53276,26.4591439688716,-8.02624551766235,-123.384451056687
1580421552.53675,25.9098191805904,-8.81971465629044,-127.656977187762
1580421552.54075,24.8722056916151,-9.30800335698473,-131.68535896849
1580421552.54475,23.4073395895323,-9.85732814526591,-135.957885099565
1580421552.54875,22.919050888838,-10.5897611963073,-140.04730296788
1580421552.55275,21.6983291371023,-11.2611581597619,-144.075684748608
1580421552.55675,20.7217517357137,-11.9325551232166,-148.043030441749
1580421552.56075,19.6231021591516,-11.6273746852826,-151.888303959716
1580421552.56476,18.4634164950025,-11.0780498970016,-155.977721828031
1580421552.56876,18.341344319829,-10.7728694590676,-160.250247959106
1580421552.57275,19.9893186846723,-10.4676890211338,-164.278629739834
1580421552.57675,22.8580148012511,-10.1014724956131,-167.879758907454
1580421552.58075,26.1539635309375,-9.4911116197452,-171.358815899901
1580421552.58475,28.900587472343,-8.51453421835663,-174.715800717174
1580421552.58875,31.7082475013351,-7.47692072938116,-177.584496833753
1580421552.59275,35.5535210193025,-6.74448767833974,-180.453192950332
1580421552.59675,39.7039749752039,-6.25619897764545,-183.199816891737
1580421552.60075,44.5868619821467,-5.6458381017776,-186.068513008316
1580421552.60474,50.0190737773705,-5.03547722590974,-188.387884336614
1580421552.60874,56.1837186236362,-3.99786373693451,-190.524147402152
1580421552.61274,62.7145799954224,-2.7161058976119,-192.721446555276
1580421552.61674,68.2688639658199,-1.31227588311594,-195.040817883574
1580421552.62074,74.006256198978,-0.0305180437933359,-196.688792248417
1580421552.62474,80.5981536583508,1.31227588311594,-197.177080949111
1580421552.62874,88.7769893949799,2.65506981002522,-196.749828336004
1580421552.63274,97.8103303578241,4.30304417486832,-195.529106584268
1580421552.63674,108.186465247578,6.68345159075307,-194.430457007706
1580421552.64073,120.149538414588,9.24696726939806,-193.20973525597
1580421552.64471,132.478828107118,10.8339055466545,-191.989013504234
1580421552.64871,146.8833447776,11.3221942473488,-190.341039139391
1580421552.65271,159.761959258411,11.5663385976959,-188.021667811093
1580421552.65671,167.025253681239,11.505302510109,-185.824368657969
1580421552.66071,168.795300221256,10.1014724956131,-183.871213855192
1580421552.66471,166.109712367437,7.35484855420759,-182.162203402762
1580421552.66871,159.395742732891,2.7771419851988,-181.24666208896
1580421552.6727,153.414206149386,-2.83817807278547,-180.514229037919
1580421552.6767,144.380865186542,-9.30800335698473,-179.903868162051
1580421552.6807,130.525673304341,-14.8622873273823,-179.415579461357
1580421552.6847,112.947280079347,-18.1582360570687,-178.744182497902
1580421552.6887,91.0963607232779,-19.7451743343252,-177.340352483406
1580421552.6927,62.7145799954224,-19.8062104219118,-175.570305943389
1580421552.6967,31.9523918516823,-17.6699473563745,-174.532692454414
1580421552.7007,12.2987716487373,-12.664988174258,-173.373006790265
1580421552.70469,10.5287251087204,-7.66002899214163,-170.077058060578
1580421552.70869,17.2426947432668,-4.60822461280236,-162.996871900511
1580421552.71269,24.2008087281604,-0.396734569314049,-153.292133974212
1580421552.71669,33.2341496910046,1.25123979552905,-143.038071259632
1580421552.72069,38.7884336614022,-5.40169375143046,-133.760585946441
1580421552.7247,39.8260471503775,-16.2661173418783,-130.220492866407
1580421552.7287,39.093614099336,-20.7827878233004,-131.258106355383
1580421552.7327,36.530098420691,-22.1255817502097,-129.427023727779
1580421552.7367,23.8345922026397,-17.9751277943083,-126.74143587396
1580421552.7407,6.56137941557949,-4.8523689631495,-124.727244983597
1580421552.74469,-7.96520943007545,6.98863202868688,-116.609445334554
1580421552.74869,-16.8764782177461,6.37827115281902,-95.5519951171132
1580421552.75269,-17.5478751812009,-2.34988937209118,-64.8508430609597
1580421552.75669,-16.4492256046387,-10.1014724956131,-32.8068970778975
1580421552.76069,-20.1724269474325,-16.0219729915311,-4.48615243762879
1580421552.76469,-29.2668039978637,-20.904859998474,18.5244525825894
1580421552.76869,-42.2674906538491,-23.8956282902266,35.5535210193025
1580421552.77269,-58.3199816891738,-23.2242313267718,46.9062333104446
1580421552.77668,-75.1049057755397,-18.2192721446554,53.0098420691234
1580421552.78068,-89.7535667963682,-10.2845807583733,55.7564660105286
1580421552.78468,-101.838712138552,-2.41092545967808,56.1226825360491
1580421552.78868,-113.496604867628,3.02128633554594,55.6954299229419
1580421552.79268,-127.107652399481,5.6458381017776,56.0006103608757
1580421552.79668,-144.441901274128,4.8523689631495,58.4420538643471
1580421552.80068,-164.888990615702,2.41092545967808,63.4470130464638
1580421552.80466,-186.434729533837,0.335698481727377,70.6492713817047
1580421552.80866,-206.454566262302,-1.43434805828952,79.6215762569623
1580421552.81265,-220.859082932784,-3.26543068589308,89.9977111467156
1580421552.81665,-226.169222552835,-4.91340505073617,102.510109102006
1580421552.82065,-222.018768596933,-6.19516289005878,116.731517509728
1580421552.82465,-208.468757152667,-6.92759594110021,132.478828107118
1580421552.82865,-188.509956511788,-6.5003433279926,148.653391317616
1580421552.83265,-165.133134966049,-5.46272983901736,164.522774090181
1580421552.83665,-140.169375143053,-4.18097199969475,179.232471198596
1580421552.84064,-115.205615320058,-3.57061112382689,192.355230029755
1580421552.84464,-92.5612268253603,-3.81475547417404,203.952086671245
1580421552.84864,-72.6024261844816,-5.03547722590974,214.511329823758
1580421552.85264,-56.0616464484626,-6.62241550316617,224.338139925231
1580421552.85664,-43.732356755932,-7.96520943007545,234.653238727398
1580421552.86064,-34.8210879682613,-9.06385900663759,245.700770580606
1580421552.86464,-29.2668039978637,-9.73525597009234,257.114518959335
1580421552.86864,-26.7032883192187,-10.1625085831997,268.955519951171
1580421552.87263,-26.337071793698,-9.67421988250544,280.064087891966
1580421552.87663,-27.9240100709544,-8.6366063935302,290.501258869306
1580421552.88063,-30.609597924773,-6.98863202868688,299.839780270085
1580421552.88464,-33.7224383916991,-4.91340505073617,308.018616006714
1580421552.88864,-35.9197375448234,-3.02128633554594,314.793621728847
1580421552.89264,-36.041809719997,-1.0070954451819,321.019302662699
1580421552.89664,-33.6614023041125,0.457770656900948,326.756694895857
1580421552.90064,-29.3278400854504,1.80056458381023,332.249942778668
1580421552.90464,-22.919050888838,3.08232242313261,337.621118486305
1580421552.90864,-14.6181429770352,4.18097199969475,342.931258106355
1580421552.91263,-5.95101853971164,5.52376592660403,348.180361638819
1580421552.91663,2.16678110933094,6.80552376592664,353.124284733349
1580421552.92063,8.51453421835663,8.51453421835663,357.824063477531
1580421552.92463,13.4584573128861,10.5897611963073,362.21866178378
1580421552.92863,17.792019531548,13.3363851377126,366.308079652094
1580421552.93263,21.8204013122759,16.937514305333,370.519569695583
1580421552.93663,23.5294117647059,19.4399938963911,374.670023651484
1580421552.94063,22.3086900129701,20.1724269474325,379.003585870146
1580421552.94462,18.9517051956968,20.355535210193,383.215075913634
1580421552.94862,14.1908903639276,21.5762569619287,387.365529869535
1580421552.95262,8.69764248111687,23.1021591515982,390.722514686809
1580421552.95662,3.26543068589308,23.8345922026397,393.774319066148
1580421552.96062,-1.31227588311594,24.322880903334,395.605401693751
1580421552.9646,-4.05889982452118,25.0553139543754,396.093690394446
1580421552.9686,-6.07309071488521,26.6422522316318,394.384679942016
1580421552.9726,-9.61318379491877,28.5954070344089,391.088731212329
1580421552.9766,-16.632333867399,30.2433813992523,386.694132906081
1580421552.98059,-28.2291905088882,31.6472114137482,381.445029373617
1580421552.98459,-44.1596093690396,32.6237888151368,375.646601052872
1580421552.98859,-64.2404821850919,33.0510414282444,369.176775768673
1580421552.99259,-86.6407263294423,32.6237888151368,362.21866178378
1580421552.99659,-110.017547875181,31.8303196765087,355.016403448539
1580421553.00059,-132.295719844358,30.1213092240787,347.692072938125
1580421553.00459,-151.888303959716,27.9850461585411,340.428778515297
1580421553.00859,-168.245975432975,24.628061341268,333.287556267644
1580421553.01258,-179.049362935836,20.355535210193,325.719081406882
1580421553.01658,-180.514229037919,14.7402151522087,317.96749828336
1580421553.02058,-169.649805447471,7.96520943007545,309.910734721904
1580421553.02458,-147.127489127947,1.19020370794237,302.403295948729
1580421553.02858,-117.280842298009,-4.48615243762879,295.140001525902
1580421553.03258,-85.8472571908139,-7.66002899214163,288.426031891356
1580421553.03658,-56.5499351491569,-8.02624551766235,281.467917906462
1580421553.04058,-31.1589227130539,-5.95101853971164,273.228046082246
1580421553.04459,-12.4818799114976,-2.04470893415737,263.035019455253
1580421553.04858,-1.49538414587619,3.93682764934761,250.583657587549
1580421553.05258,0.640878919661191,8.6366063935302,235.568780041199
1580421553.05658,-5.27962157625689,12.9091325246052,218.112458991379
1580421553.06058,-17.4258030060273,18.0361638818952,198.702983138781
1580421553.06458,-31.7082475013353,22.0035095750361,177.64553292134
1580421553.06858,-45.6244754711224,24.5059891660944,155.001144426642
1580421553.07258,-57.5265125505455,25.5436026550697,131.319142442969
1580421553.07658,-65.4612039368276,25.2384222171358,107.087815671016
1580421553.08057,-67.5974670023652,24.0787365529868,82.3071641107808
1580421553.08457,-64.3625543602654,22.4917982757304,56.6109712367434
1580421553.08857,-57.4044403753719,20.5386434729533,29.9382009613182
1580421553.09257,-49.8970016021974,18.4023804074159,2.65506981002522
1580421553.09657,-43.4271763179981,16.0219729915311,-24.4449530785075
1580421553.10057,-38.3001449607082,13.8857099259938,-50.5683985656519
1580421553.10457,-34.5159075303275,12.4208438239109,-74.9828336003661
1580421553.10857,-31.5861753261618,11.810482948043,-97.016861219196
1580421553.11257,-28.6564431219958,11.3832303349354,-116.548409246967
1580421553.11656,-24.6890974288547,10.955977721828,-133.821622034028
1580421553.12056,-20.6607156481268,10.1625085831997,-149.019607843137
1580421553.12454,-16.8764782177461,9.36903944457163,-163.179980163272
1580421553.12854,-13.9467460135804,8.51453421835663,-177.096208133059
1580421553.13254,-12.7260242618447,7.84313725490188,-190.768291752499
1580421553.13654,6.62241550316617,30.9758144502937,-202.914473182269
1580421553.14054,73.5790035858704,56.1226825360491,-197.543297474632
1580421553.14454,147.493705653468,29.0226596475165,-173.189898527505
1580421553.14853,214.572365911345,5.46272983901736,-142.061493858244
1580421553.15253,179.171435111009,-22.4307621881437,-85.8472571908139
1580421553.15653,22.4917982757304,-37.0794232089725,-31.5861753261618
1580421553.16053,-96.711680781262,-0.946059357595232,-32.5627527275503
1580421553.16453,-144.014648661021,22.1255817502097,-72.0531013962004
1580421553.16853,-185.824368657969,20.4776073853666,-112.52002746624
1580421553.17253,-245.456626230259,8.51453421835663,-147.24956130312
1580421553.17653,-302.40329594873,2.89921416037237,-187.533379110399
1580421553.18052,-328.282597085527,-6.43930724040592,-231.235217822538
1580421553.18452,-285.740444037537,-19.7451743343252,-235.385671778439
1580421553.18852,-193.453879606317,-29.755092698558,-202.426184481575
1580421553.19252,-110.017547875181,-15.4116121156633,-168.734264133669
1580421553.19652,-65.4612039368276,11.9325551232166,-150.48447394522
1580421553.20052,-49.164568551156,30.1823453116654,-148.226138704509
1580421553.20453,-49.9580376897841,34.2717631799801,-154.634927901122
1580421553.20853,-67.1702143892576,29.3888761730373,-165.255207141222
1580421553.21253,-99.8855573357748,31.5251392385746,-178.072785534447
1580421553.21652,-129.549095902953,34.0886549172196,-191.195544365606
1580421553.22052,-117.891203173877,29.6940566109711,-202.792401007095
1580421553.22452,-63.7521934843976,10.0404364080262,-208.957045853361
1580421553.22852,7.11070420386045,-13.0312046997788,-208.224612802319
1580421553.23252,71.6258487830933,-23.5294117647059,-201.083390554665
1580421553.23652,117.647058823529,-16.7544060425726,-191.256580453193
1580421553.24052,133.638513771267,4.66926070038903,-182.406347753109
1580421553.24452,111.421377889677,31.2809948882275,-176.852063782712
1580421553.24851,61.1276417181657,53.9253833829248,-174.349584191653
1580421553.25251,5.88998245212474,68.5740444037538,-170.504310673686
1580421553.25651,-34.2107270923934,75.5931944762342,-162.630655374991
1580421553.26051,-48.5542076752881,75.0438696879532,-150.118257419699
1580421553.26451,-39.9481193255513,68.8181887541009,-136.507209887846
1580421553.26851,-20.5386434729533,58.0758373388262,-125.459678034638
1580421553.27251,1.37331197070262,47.638666361486,-117.097734035248
1580421553.27651,21.5152208743418,43.1830319676508,-111.482413977264
1580421553.2805,35.9197375448232,42.9999237048903,-107.942320897231
1580421553.28448,44.0375371938658,43.2440680552374,-105.073624780652
1580421553.28848,48.0659189745934,41.8402380407415,-100.801098649577
1580421553.29248,50.5073624780648,38.1780727855344,-94.5754177157246
1580421553.29648,52.7656977187762,33.9665827420461,-87.4952315556573
1580421553.30048,53.8033112077514,30.3654535744258,-81.3305867093918
1580421553.30448,50.2632181277177,24.9942778667887,-77.607385366598
1580421553.30848,40.802624551766,17.486839093614,-76.6308079652094
1580421553.31248,26.8863965819789,10.0404364080262,-77.1190966659037
1580421553.31647,12.1766994735638,4.24200808728165,-77.2411688410773
1580421553.32047,-2.47196154726475,0.51880674448762,-76.3866636148623
1580421553.32447,-16.5102616922254,-3.20439459830618,-74.7997253376059
1580421553.32847,-29.0226596475165,-6.13412680247188,-72.4193179217211
1580421553.33247,-35.7976653696498,-7.90417334248878,-68.3909361409933
1580421553.33647,-34.5159075303275,-7.59899290455473,-62.7145799954224
1580421553.34047,-28.3512626840618,-5.76791027695117,-56.0616464484626
1580421553.34447,-20.2334630350194,-3.69268329900046,-49.5307850766767
1580421553.34846,-9.97940032043948,-1.73952849622333,-43.3051041428246
1580421553.35246,2.16678110933094,0.152590218966907,-37.6287479972534
1580421553.35646,16.5102616922254,1.37331197070262,-32.3186083772032
1580421553.36046,30.609597924773,2.41092545967808,-27.3746852826732
1580421553.36447,41.7181658655679,2.7771419851988,-22.3697261005568
1580421553.36847,51.4229037918667,2.89921416037237,-17.1206225680933
1580421553.37247,60.0289921416033,4.48615243762879,-11.8715190356297
1580421553.37647,65.5832761120014,6.25619897764545,-7.41588464179449
1580421553.38047,67.1091783016709,7.29381246662092,-3.99786373693451
1580421553.38446,66.6208896009766,7.23277637903402,-1.31227588311594
1580421553.38846,66.6208896009766,7.11070420386045,0.640878919661191
1580421553.39246,66.8650339513238,6.62241550316617,1.8616006713969
1580421553.39646,66.6208896009766,5.40169375143046,2.34988937209118
1580421553.40046,65.461203936828,3.20439459830618,2.41092545967808
1580421553.40446,64.2404821850923,0.640878919661191,1.9226367589838
1580421553.40846,63.2639047837038,-2.28885328450451,1.12916762035547
1580421553.41246,60.7003891050581,-4.30304417486832,0.091554131380235
1580421553.41646,55.4512855725948,-6.25619897764545,-0.70191500724809
1580421553.42045,49.042496375982,-7.59899290455473,-1.61745632104976
1580421553.42445,43.9154650186922,-8.14831769283592,-2.83817807278547
1580421553.42845,40.5584802014189,-8.02624551766235,-4.18097199969475
1580421553.43245,38.1780727855344,-8.14831769283592,-5.7068741893645
1580421553.43645,37.0794232089722,-8.5755703059433,-6.98863202868688
1580421553.44045,36.530098420691,-8.94178683146401,-8.02624551766235
1580421553.44443,36.2249179827572,-9.30800335698473,-9.18593118181116
1580421553.44843,35.0041962310215,-9.67421988250544,-10.5287251087204
1580421553.45243,32.5017166399632,-10.1014724956131,-11.810482948043
1580421553.45642,29.2057679102768,-10.1625085831997,-13.214312962539
1580421553.46042,26.1539635309375,-10.1014724956131,-14.3129625391011
1580421553.46442,24.9942778667887,-10.0404364080262,-14.9843595025559
1580421553.46842,25.6656748302432,-9.73525597009234,-14.8012512397954
1580421553.47242,27.4967574578468,-8.6366063935302,-13.8857099259938
1580421553.47642,29.9992370489051,-7.66002899214163,-12.6039520866711
1580421553.48042,33.3562218661782,-6.86655985351331,-11.0780498970016
1580421553.48441,38.4832532234682,-6.13412680247188,-9.61318379491877
1580421553.48841,43.366140230411,-5.27962157625689,-7.90417334248878
1580421553.49241,47.2724498359653,-4.30304417486832,-6.5003433279926
1580421553.49641,52.6436255436024,-2.83817807278547,-5.03547722590974
1580421553.50041,57.1602960250248,-2.16678110933094,-4.05889982452118
1580421553.50441,60.2731364919505,-2.28885328450451,-3.75371938658736
1580421553.50841,61.61593041886,-2.34988937209118,-3.87579156176093
1580421553.51241,59.9679560540167,-2.16678110933094,-4.73029678797593
1580421553.5164,58.6251621271076,-2.22781719691761,-6.25619897764545
1580421553.5204,60.2731364919505,-2.10574502174404,-7.59899290455473
1580421553.52441,63.5690852216376,-1.80056458381023,-8.6366063935302
1580421553.52841,66.2546730754561,-1.80056458381023,-9.61318379491877
1580421553.53241,68.7571526665142,-1.61745632104976,-11.2001220721752
1580421553.53641,70.2830548561838,-0.885023270008332,-13.3974212252995
1580421553.54041,69.5506218051423,-0.579842832074519,-16.5712977798123
1580421553.54441,67.0481422140842,-1.0681315327688,-20.5386434729533
1580421553.54841,64.4235904478523,-1.49538414587619,-24.9942778667887
1580421553.5524,60.2121004043638,-1.8616006713969,-29.8161287861446
1580421553.5564,53.620202944991,-2.22781719691761,-34.9431601434349
1580421553.5604,46.6010528725108,-2.28885328450451,-40.2532997634853
1580421553.5644,40.4974441138322,-2.83817807278547,-45.8075837338827
1580421553.5684,35.3093766689553,-3.26543068589308,-51.1787594415198
1580421553.5724,31.3420309758144,-3.87579156176093,-56.3057907988098
1580421553.5764,28.8395513847561,-4.30304417486832,-61.1886778057526
1580421553.5804,26.9474326695658,-4.11993591210808,-65.9494926375219
1580421553.58439,24.9332417792018,-3.87579156176093,-70.466163118944
1580421553.58839,22.7969787136644,-3.44853894865332,-74.9217975127794
1580421553.59239,19.6841382467383,-3.26543068589308,-79.4995040817882
1580421553.59639,16.632333867399,-3.20439459830618,-83.7720302128632
1580421553.60039,14.3129625391011,-3.26543068589308,-88.1055924315251
1580421553.60437,13.519493400473,-2.7161058976119,-92.3170824750132
1580421553.60837,14.2519264515145,-2.04470893415737,-96.3454642557413
1580421553.61237,15.5336842908368,-1.73952849622333,-100.251773861296
1580421553.61637,16.0219729915311,-1.49538414587619,-104.34119172961
1580421553.62036,16.2050812542916,-1.25123979552905,-108.186465247578
1580421553.62436,14.4350347142747,-1.37331197070262,-112.214847028305
1580421553.62836,12.6039520866711,-1.80056458381023,-116.670481422141
1580421553.63236,11.5663385976959,-2.96025024795904,-120.698863202869
1580421553.63636,11.4442664225223,-3.93682764934761,-124.361028458076
1580421553.64036,11.7494468604561,-4.36408026245522,-127.962157625696
1580421553.64436,12.1156633859769,-4.48615243762879,-131.563286793317
1580421553.64836,12.1766994735638,-5.03547722590974,-135.469596398871
1580421553.65235,12.2987716487373,-5.58480201419093,-139.131761654078
1580421553.65635,12.1156633859769,-5.88998245212474,-142.854962996872
1580421553.66035,10.7728694590676,-6.07309071488521,-146.761272602426
1580421553.66435,9.4300755321583,-6.43930724040592,-150.728618295567
1580421553.66835,8.81971465629044,-6.80552376592664,-154.695963988708
1580421553.67235,9.79629205767901,-7.29381246662092,-158.297093156329
1580421553.67635,12.9701686121919,-6.92759594110021,-161.165789272908
1580421553.68035,16.632333867399,-5.76791027695117,-164.034485389487
1580421553.68433,20.2944991226061,-3.99786373693451,-166.720073243305
1580421553.68832,24.3839169909209,-2.53299763485165,-168.795300221256
1580421553.69232,28.5954070344089,-1.55642023346309,-170.931563286793
1580421553.69632,31.5861753261615,-0.823987182421661,-173.495078965438
1580421553.70032,34.7600518806744,0.274662394140478,-176.241702906844
1580421553.70432,38.239108873121,1.55642023346309,-179.232471198596
1580421553.70832,42.2674906538489,3.44853894865332,-182.101167315175
1580421553.71232,46.784161135271,5.76791027695117,-184.969863431754
1580421553.71632,51.36186770428,7.84313725490188,-187.167162584878
1580421553.72031,55.329213397421,9.79629205767901,-188.937209124895
1580421553.72431,58.8082703898676,11.6273746852826,-190.341039139391
1580421553.72831,62.4704356450748,13.5805294880597,-191.50072480354
1580421553.73231,67.3533226520181,15.6557564660104,-191.927977416648
1580421553.73631,74.4945448996723,17.3647669184404,-191.744869153887
1580421553.74031,84.0161745632108,19.0127412832837,-191.012436102846
1580421553.74431,96.1013199053941,19.6231021591516,-189.60860608835
1580421553.74831,109.163042648966,19.5620660715647,-187.777523460746
1580421553.75231,124.361028458076,20.1113908598459,-185.458152132448
1580421553.7563,140.535591668574,21.3931486991683,-182.406347753109
1580421553.7603,155.916685740444,22.5528343633173,-178.744182497902
1580421553.76431,171.419851987488,23.1021591515982,-174.288548104067
1580421553.76831,184.420538643473,22.919050888838,-169.527733272297
1580421553.77231,191.989013504235,22.3697261005568,-164.705882352941
1580421553.77631,191.195544365607,21.6372930495154,-160.37232013428
1580421553.78031,180.941481651026,20.5386434729533,-157.259479667353
1580421553.78431,164.888990615701,17.9751277943083,-155.245288776989
1580421553.78831,150.118257419699,15.228503852903,-153.71938658732
1580421553.7923,134.981307698176,12.2377355611504,-152.132448310063
1580421553.7963,121.126115815976,8.51453421835663,-150.240329594873
1580421553.8003,112.520027466239,5.52376592660403,-147.24956130312
1580421553.8043,109.834439612421,4.7913328755626,-142.671854734112
1580421553.8083,112.825207904174,6.80552376592664,-136.690318150607
1580421553.8123,119.111924925612,10.1625085831997,-129.610131990539
1580421553.8163,124.299992370489,11.9325551232166,-121.675440604257
1580421553.82029,121.004043640803,12.9701686121919,-113.740749217975
1580421553.82429,116.060120546273,15.2895399404897,-107.087815671016
1580421553.82829,111.604486152438,17.2426947432668,-101.045242999924
1580421553.83229,108.064393072404,17.486839093614,-95.7961394674603
1580421553.83629,101.167315175097,14.9843595025559,-93.1105516136415
1580421553.84029,88.2887006942856,12.1766994735638,-95.5519951171132
1580421553.84427,71.8089570458537,11.9325551232166,-101.777676050965
1580421553.84827,57.4044403753719,8.6366063935302,-106.538490882735
1580421553.85227,44.3427176317996,5.88998245212474,-108.491645685512
1580421553.85626,32.8068970778972,10.8339055466545,-107.331960021363
1580421553.86026,27.3136491950866,19.4399938963911,-100.312809948882
1580421553.86426,30.8537422751201,23.5904478522925,-82.3071641107804
1580421553.86826,42.6337071793696,20.7217517357137,-53.1929503318838
1580421553.87226,56.0616464484624,15.6557564660104,-21.5762569619287
1580421553.87626,65.3391317616542,11.5663385976959,5.46272983901736
1580421553.88026,68.0857557030595,6.92759594110021,26.5201800564582
1580421553.88426,64.9118791485466,1.19020370794237,42.9999237048903
1580421553.88825,57.4654764629586,-3.38750286106665,56.3057907988095
1580421553.89225,47.2114137483786,-3.87579156176093,67.1091783016709
1580421553.89625,36.1638818951703,-0.0305180437933359,75.2269779507137
1580421553.90025,25.4215304798961,5.82894636453807,81.0864423590451
1580421553.90425,15.6557564660104,11.810482948043,85.969329365988
1580421553.90825,6.43930724040592,17.7309834439611,89.9366750591289
1580421553.91225,-3.26543068589308,22.5528343633173,94.0260929274436
1580421553.91625,-14.068818188754,26.2149996185244,99.0310521095598
1580421553.92024,-26.6422522316318,28.3512626840618,105.012588693065
1580421553.92425,-41.2298771648739,29.3888761730373,112.153810940719
1580421553.92825,-57.7706569008926,29.755092698558,120.210574502174
1580421553.93225,-75.6542305638209,29.8161287861446,128.755626764324
1580421553.93625,-93.8429846646832,29.8771648737315,137.666895551995
1580421553.94025,-110.505836575875,30.609597924773,146.517128252079
1580421553.94425,-123.14030670634,32.0744640268558,154.879072251469
1580421553.94825,-129.610131990539,34.3938353551537,162.569619287403
1580421553.95225,-128.511482413977,36.9573510337987,169.344625009537
1580421553.95624,-120.332646677348,39.3377584496832,175.692378118562
1580421553.96024,-107.820248722057,41.1688410772867,181.551842526894
1580421553.96424,-94.5754177157246,42.3895628290225,187.228198672465
1580421553.96824,-82.9175249866482,42.8778515297167,193.02662699321
1580421553.97224,-73.4569314106966,42.7557793545432,199.618524452583
1580421553.97624,-66.3157091630426,41.9012741283282,207.248035400931
1580421553.98024,-60.0289921416038,40.1922636758982,216.159304188602
1580421553.98424,-54.5967803463798,37.7508201724268,226.169222552835
1580421553.98823,-51.2397955291067,35.3704127565422,236.667429617762
1580421553.99223,-50.3852903028917,33.6614023041122,247.165636682689
1580421553.99623,-51.728084229801,32.8679331654839,257.053482871748
1580421554.00023,-53.2539864194705,32.8679331654839,265.903715571832
1580421554.00421,-53.2539864194705,33.4172579537651,273.716334782941
1580421554.00821,-51.9722285801481,34.1496910048065,280.796520943008
1580421554.01221,-50.4463263904784,34.5159075303272,287.02220187686
1580421554.01621,-49.7138933394369,34.7600518806744,293.003738460365
1580421554.02021,-50.9346150911726,35.1873044937818,298.374914168002
1580421554.0242,-54.1695277332724,35.4314488441289,303.562981612879
1580421554.0282,-58.9913786526283,35.4314488441289,308.506904707408
1580421554.0322,-64.6066987106126,34.9431601434346,313.084611276417
1580421554.0362,-70.7103074692911,34.1496910048065,317.357137407492
1580421554.0402,-76.3866636148623,33.2341496910046,321.080338750287
1580421554.0442,-82.1240558480201,32.1965362020294,324.376287479973
1580421554.0482,-87.4341954680704,31.5251392385746,327.733272297246
1580421554.0522,-92.3781185626001,30.9758144502937,330.907148851759
1580421554.0562,-97.7492942702374,30.1823453116654,334.386205844206
1580421554.06019,-104.280155642023,28.046082246128,337.926298924239
1580421554.06419,-110.505836575875,26.337071793698,341.405355916686
1580421554.06819,-116.30426489662,25.6046387426566,344.396124208438
1580421554.07219,-121.797512779431,24.5670252536811,347.02067597467
1580421554.07619,-123.933775844968,22.3697261005568,349.034866865034
1580421554.08019,-122.102693217365,20.1113908598459,350.865949492638
1580421554.0842,-117.280842298009,17.8530556191347,352.208743419547
1580421554.0882,-110.749980926223,14.8622873273823,353.185320820935
1580421554.0922,-104.15808346685,11.4442664225223,353.978789959564
1580421554.09619,-99.1531242847334,7.90417334248878,354.345006485084
