Timestamp_seconds,Accel_X_g,Accel_Y_g,Accel_Z_g
1580421547.61582,-0.973891813534753,0.123781185626001,-0.119386587319752
1580421547.6484,-1.06569008926528,0.176028076600289,-0.01196307316701
1580421547.68099,-1.01930266269932,0.198001068131532,-0.111573968108644
1580421547.71357,-0.968520637827115,0.0686045624475469,-0.0817883573662925
1580421547.74616,-1.0383459220264,0.211184863050278,-0.114015411612115
1580421547.77874,-0.99293507286183,0.196047913328755,-0.125246051728084
1580421547.81132,-0.915297169451438,0.0905775539787896,-0.0944838635843439
1580421547.84391,-0.976821545738918,0.103761348897535,-0.172121766994735
1580421547.87649,-1.01051346608682,0.191653315022506,-0.167727168688486
1580421547.90908,-1.01832608529793,0.203372243839169,-0.130128938735027
1580421547.94166,-0.979751277943084,0.0979018844892039,-0.0583504997329669
1580421547.97425,-1.0129549095903,0.134035248340581,-0.0798352025635154
1580421548.00683,-1.02272068360418,0.129640650034332,-0.106202792401007
1580421548.03942,-1.00856031128405,0.0910658426794839,-0.106691081101701
1580421548.072,-0.987563897154192,0.132082093537804,-0.126222629129472
1580421548.10459,-0.991470206759747,0.154055085069047,-0.135011825741969
1580421548.13717,-0.994888227664607,0.165285725185015,-0.12475776302739
1580421548.16976,-0.971938658731975,0.116945143816281,-0.115480277714198
1580421548.20234,-1.01441977569238,0.102784771496147,-0.111573968108644
1580421548.23493,-1.00953688868544,0.136964980544747,-0.110597390707255
1580421548.26751,-1.00318913557641,0.148683909361409,-0.109132524605172
1580421548.30009,-1.00025940337224,0.120363164721141,-0.115968566414892
1580421548.33268,-0.98609903105211,0.158449683375295,-0.131105516136415
1580421548.36526,-0.990981918059052,0.146730754558632,-0.132082093537804
1580421548.39785,-0.997329671168078,0.130617227435721,-0.134523537041275
1580421548.43043,-0.993911650263218,0.176028076600289,-0.120851453421835
1580421548.46302,-1.00465400167849,0.162355992980849,-0.12475776302739
1580421548.4956,-0.969497215228504,0.147219043259327,-0.151125352864881
1580421548.52819,-0.979751277943084,0.129640650034332,-0.151125352864881
1580421548.56088,-0.970473792629893,0.155031662470435,-0.0925307087815668
1580421548.59347,-1.04567025253681,0.162844281681544,-0.0813000686655982
1580421548.62605,-1.06910811017014,0.200442511635003,-0.0612802319371326
1580421548.65864,-0.965102616922255,0.0329594872968642,-0.0358892195010299
1580421548.69122,-1.00074769207294,0.067139696345464,-0.105714503700312
1580421548.72381,-1.0036774242771,0.163820859082932,-0.0974135957885096
1580421548.75639,-0.99635309376669,0.169192034790569,-0.10083161669337
1580421548.78898,-1.00025940337224,0.129640650034332,-0.0681162737468526
1580421548.82156,-1.01344319829099,0.139406424048218,-0.0861829556725411
1580421548.85415,-0.982192721446555,0.0944838635843439,-0.126710917830167
1580421548.88673,-0.962661173418784,0.112062256809338,-0.11792172121767
1580421548.91932,-1.01393148699168,0.180422674906538,-0.0871595330739297
1580421548.9519,-0.971938658731975,0.150148775463492,-0.0397955291065841
1580421548.98449,-0.983169298847944,0.0368657969024184,-0.0651865415426869
1580421549.01707,-1.03346303501946,0.119386587319752,-0.0788586251621268
1580421549.04966,-1.01002517738613,0.134035248340581,-0.0646982528419926
1580421549.08224,-0.980239566643778,0.108644235904478,-0.0461432822156098
1580421549.11483,-1.04615854123751,0.135988403143358,-0.0881361104753182
1580421549.14741,-0.995376516365301,0.0324711985961699,-0.0251468680857556
1580421549.18,-1.03736934462501,0.0471198596169984,-0.0212405584802013
1580421549.21258,-0.998306248569467,-0.00659189745937283,-0.0261234454871442
1580421549.24517,-1.01930266269932,-0.0759288929579611,0.0681162737468526
1580421549.27776,-1.03492790112154,-0.135988403143358,0.2434119172961
1580421549.31034,-1.05690089265278,-0.271244373235676,0.341069657434957
1580421549.34293,-1.17164873731594,-0.329350728618296,0.316655222400243
1580421549.37551,-1.22047760738537,-0.406012054627299,0.392339971007857
1580421549.4081,-1.39430838483253,0.0100099183642328,0.435797665369648
1580421549.44068,-1.43434805828946,0.111573968108644,-0.156008239871824
1580421549.47327,-1.0300450141146,0.0109864957656214,-0.471931029221027
1580421549.50585,-1.03199816891737,0.156496528572518,-0.170168612191958
1580421549.53844,-0.987563897154192,0.0231937132829785,0.106202792401007
1580421549.57102,-0.807385366598002,0.0583504997329669,0.099855039291981
1580421549.60361,-0.799084458686199,0.0861829556725411,0.0383306630045013
1580421549.63619,-0.79468986037995,-0.233646143282215,0.268802929732203
1580421549.66878,-0.694102388036926,-0.523201342793927,0.491462577248797
1580421549.70136,-0.633554589150835,-0.531013962005035,0.382085908293277
1580421549.73395,-0.783459220263982,-0.475349050125887,0.478278782330051
1580421549.76653,-0.906019684138247,-0.456794079499504,0.500740062561992
1580421549.79912,-0.912367437247273,-0.54517433432517,0.502693217364769
1580421549.8317,-0.706309605554283,-0.46314183260853,0.522713054093234
1580421549.86438,-0.82887006942855,-0.206790264744029,0.29810025177386
1580421549.89697,-0.758556496528573,-0.293217364766919,0.361089494163423
1580421549.92955,-1.42653543907836,0.545174334325171,0.0339360646982527
1580421549.96213,-1.03297474631876,-0.647226672770275,0.436774242771037
1580421549.99472,-1.29323262378882,-0.0456549935149155,0.105226214999618
1580421550.0273,-0.603768978408484,-0.0104982070649271,-0.237064164187075
1580421550.05989,-1.18043793392843,0.486579690241854,-0.137453269245441
1580421550.09248,-1.08473334859235,0.0236820019836728,0.229251544975966
1580421550.12506,-0.983169298847944,0.415777828641183,-0.0651865415426869
1580421550.15765,-1.05201800564584,0.0515144579232469,0.132570382238498
1580421550.19023,-1.03150988021668,0.121828030823224,-0.00366216525520713
1580421550.22282,-0.894300755321584,0.11450370031281,-0.0769054703593497
1580421550.2554,-1.05055313954376,0.115968566414892,0.000244144350347142
1580421550.28799,-1.02760357061112,0.176516365300984,0.0534676127260241
1580421550.32057,-1.11451895933471,0.293705653467612,-0.0227054245822842
1580421550.35316,-1.21022354467079,-0.341557946135653,0.426520180056457
1580421550.38574,-1.10865949492637,-0.699961852445258,0.523689631494623
1580421550.41833,-1.27370107576104,-0.332768749523156,0.312748912794689
1580421550.45091,-1.20778210116731,-0.236087586785686,0.303471427481497
1580421550.4835,-1.44997329671168,-0.130617227435721,0.446540016784922
1580421550.51608,-1.33864347295338,-0.858167391470207,0.711680781261922
1580421550.54867,-0.974380102235447,-1.51491569390402,0.367925535973143
1580421550.58125,-2.23611810482948,0.5256427862974,0.110109102006561
1580421550.61384,-1.30788128480964,1.30934615091173,-0.821057450217442
1580421550.64642,-1.74978255893797,-0.0417486839093613,-0.34692912184329
1580421550.67901,-1.41921110856794,-0.100343327992675,-0.324467841611353
1580421550.71159,-1.23610284580758,0.366948958571754,-0.400640878919662
1580421550.74418,-0.814221408407722,0.635507743953614,-0.729259174486915
1580421550.77676,-0.488532845044633,0.44507515068284,-0.590585183489738
1580421550.80935,-0.275638971541925,0.495857175555045,-0.155031662470435
1580421550.84193,-0.385503929198139,0.511482413977266,-0.234622720683603
1580421550.87452,-0.371343556878005,0.0183108262760356,0.433356221866177
1580421550.9071,-0.847913328755627,-1.19362172884718,0.40405889982452
1580421550.93969,-1.24489204242008,-0.971450370031281,0.665781643396659
1580421550.97227,-1.05934233615625,-1.16432440680552,1.14869916838331
1580421551.00486,-0.113527122911421,0.00659189745937283,0.0187991149767299
1580421551.03744,-1.60427252613107,2.06521705958648,-0.549080643930724
1580421551.07003,-1.55642023346303,-1.61501487754635,0.928969253070878
1580421551.10261,-0.418219272144656,-0.311284046692608,-0.244388494697489
1580421551.1352,-1.40846875715267,2.37479209582666,-0.798596169985505
1580421551.16791,-1.33522545204852,0.303471427481497,0.100343327992675
1580421551.20049,-0.872327763790341,-0.390386816205082,-0.133546959639887
1580421551.23308,-0.994888227664607,-0.125246051728084,0.12133974212253
1580421551.26566,-1.05934233615625,0.36646066987106,0.0676279850461583
1580421551.29825,-0.84596017395285,0.0295414663920042,-0.0554207675288012
1580421551.33083,-0.949477378500038,-0.152590218966964,0.110109102006561
1580421551.36342,-1.20094605935759,0.346929121843289,0.073975738155184
1580421551.396,-1.13990997177081,-0.292729076066225,0.397711146715494
1580421551.42859,-1.04420538643473,-0.99635309376669,0.523201342793929
1580421551.46117,-1.42165255207141,-0.126710917830167,0.393316548409246
1580421551.49376,-1.21705958648051,-0.431891355764096,0.409918364232851
1580421551.52634,-1.23854428931105,-0.621347371633478,0.610116731517511
1580421551.55893,-1.20338750286107,-1.04762340733959,0.450446326390477
1580421551.59151,-1.33034256504158,-0.71168078126192,0.670664530403602
1580421551.6241,-2.91581597619593,1.89089799343862,-0.773693446250096
1580421551.65668,-1.94753948271916,0.445563439383534,-0.410894941634242
1580421551.68927,-1.68825818265049,-0.0944838635843439,-0.222415503166246
1580421551.72185,-1.50026703288319,0.0471198596169984,-0.367925535973145
1580421551.75444,-1.00660715648127,0.579354543373771,-0.599862668802929
1580421551.78702,-0.662363622491798,0.634042877851531,-0.935805294880598
1580421551.81961,-0.132570382238498,0.737560082398719,-0.880628671702144
1580421551.8522,0.00903334096284425,0.273197528038452,-0.227298390173189
1580421551.88478,-0.414801251239796,0.0988784618905925,0.3630426489662
1580421551.91737,-1.72634470130465,-0.477302204928664,0.777111467154956
1580421551.94995,-0.48706797894255,-0.240970473792629,-0.096437018387121
1580421551.98254,-0.94166475928893,-1.54958419165331,1.20534065766384
1580421552.01512,-0.837170977340353,-0.590096894789044,0.210208285648889
1580421552.04771,-1.4822003509575,0.635996032654308,0.0988784618905925
1580421552.08029,-1.80056458381018,-0.304936293583582,0.794201571679256
1580421552.11288,-0.957778286411841,-1.13258564126039,-0.403082322423133
1580421552.14546,0.0896009765774011,0.186282139314869,-0.293705653467613
1580421552.17805,-2.3537956816968,2.33475242236972,-0.724864576180666
1580421552.21063,-1.25368123903258,0.375738155184251,0.221438925764858
1580421552.24322,-0.88014038300145,-0.113527122911421,0.0148928053711757
1580421552.2758,-0.991470206759747,-0.262455176623179,0.0520027466239412
1580421552.30839,-1.01490806439307,0.251712825207903,-0.0783703364614325
1580421552.34097,-0.952407110704204,0.0842298008697639,-0.0109864957656214
1580421552.37356,-1.01490806439307,-0.00317387655451284,-0.0324711985961699
1580421552.40614,-1.23268482490272,0.143801022354467,0.138429846646829
1580421552.43873,-1.11061264972915,-0.259037155718319,0.396246280613411
1580421552.47137,-0.976333257038224,-0.750255588616771,0.412848096437017
1580421552.50396,-1.2946974898909,-0.0329594872968642,0.254642557412069
1580421552.53654,-1.24977492942702,-0.23657587548638,0.374273289082169
1580421552.56913,-1.33473716334783,-0.529060807202258,0.60083924620432
1580421552.60171,-1.08424505989166,-0.905043106736859,0.135011825741969
1580421552.6343,-1.33376058594644,-0.76734569314107,0.736095216296636
1580421552.66688,-2.1575036240177,1.13014419775692,-0.658457312886243
1580421552.69947,-1.4914778362707,0.841077286945907,-0.857190814068819
1580421552.73205,-1.77224383916991,-0.294193942168308,-0.125246051728084
1580421552.76464,-1.54079499504082,0.113527122911421,-0.258548867017625
1580421552.79723,-1.12916762035553,0.262943465323872,-0.542732890821698
1580421552.82981,-0.774670023651485,0.302983138780803,-0.553963530937667
1580421552.8624,-0.49048599984741,0.361577782864117,-0.527595941100175
1580421552.89498,-0.404547188525216,0.258548867017623,-0.235111009384298
1580421552.92757,-0.426520180056459,0.340093080033569,-0.140871290150301
1580421552.96015,-0.55542839703975,0.32544441901274,-0.0588387884336612
1580421552.99274,-0.607186999313344,-0.281498435950256,0.932875562676433
1580421553.02532,-0.95875486381323,-0.805432211795225,0.691172655832762
1580421553.05791,-0.980239566643778,-0.647226672770275,0.691172655832762
1580421553.09049,-0.969497215228504,-0.753185320820936,0.814221408407722
1580421553.12308,-0.044678416113527,0.188723582818341,0.540291447318229
1580421553.15566,-2.35672541390097,-0.225833524071106,-0.360112916762036
1580421553.18825,-0.756115053025102,-0.971450370031281,0.241458762493323
1580421553.22083,-0.414801251239796,1.05006485084306,-0.786877241168842
1580421553.25342,-1.69851224536507,1.89089799343862,-0.654551003280689
1580421553.286,-1.47731746395056,0.0231937132829785,0.433356221866177
1580421553.31859,-0.879163805600061,-0.187258716716258,-0.160402838178072
1580421553.35117,-0.98268101014725,-0.144777599755855,0.0422369726100555
1580421553.38376,-1.08473334859235,0.325932707713434,0.10424963759823
1580421553.41634,-0.913344014648661,0.112550545510032,-0.000244144350347142
1580421553.44893,-0.90064850843061,-0.0661631189440754,0.01196307316701
1580421553.48151,-1.16334782940413,0.146242465857938,0.187258716716258
1580421553.5141,-1.0637369344625,0.0183108262760356,0.187747005416952
1580421553.54668,-1.00953688868544,-0.698985275043869,0.550057221332114
1580421553.57927,-1.12965590905623,-0.213626306553749,0.288334477759975
1580421553.61185,-1.19264515144579,-0.063721675440604,0.358159761959257
1580421553.64444,-1.19850461585412,-0.163820859082932,0.457282368200197
1580421553.67702,-1.39772640573739,-0.253665980010682,0.337651636530097
1580421553.70961,-1.01783779659724,-1.05592431525139,0.2434119172961
1580421553.74219,-1.50222018768597,-0.613046463721675,0.192141603723201
1580421553.77484,-2.05154497596704,1.16578927290761,-0.713633936064697
1580421553.80743,-1.54518959334707,0.64869153887236,-0.908949416342413
1580421553.84001,-1.64773022049287,-0.0451667048142212,-0.238040741588463
1580421553.8726,-1.42604715037766,0.198001068131532,-0.311772335393302
1580421553.90518,-1.01490806439307,0.169680323491264,-0.486579690241856
1580421553.93777,-0.77759975585565,0.191653315022506,-0.476325627527276
1580421553.97035,-0.466071564812696,0.336675059128709,-0.511482413977264
1580421554.00294,-0.52466620889601,0.387457084000914,-0.343022812237736
1580421554.03552,-0.434332799267567,0.400152590218966,-0.109132524605172
1580421554.06811,-0.546150911726558,0.745372701609828,-0.212161440451666
