Timestamp_seconds,Gyro_X_s,Gyro_Y_s,Gyro_Z_s
1580421547.5913,2.7771419851988,2.59403372243833,-1.67849240863666
1580421547.5953,2.96025024795904,2.83817807278547,-1.49538414587619
1580421547.59929,2.96025024795904,3.38750286106665,-0.946059357595232
1580421547.60328,3.02128633554594,3.99786373693451,-0.640878919661191
1580421547.60728,3.14335851071951,4.66926070038903,-0.274662394140478
1580421547.61127,3.20439459830618,4.97444113832307,0.091554131380235
1580421547.61526,3.02128633554594,5.03547722590974,0.335698481727377
1580421547.61926,2.7771419851988,4.8523689631495,0.70191500724809
1580421547.62325,2.47196154726475,4.30304417486832,1.12916762035547
1580421547.62725,2.28885328450451,3.81475547417404,1.31227588311594
1580421547.63124,2.16678110933094,3.38750286106665,1.31227588311594
1580421547.63523,2.10574502174404,3.26543068589308,0.885023270008332
1580421547.63925,2.10574502174404,3.14335851071951,0.335698481727377
1580421547.64324,2.10574502174404,3.08232242313261,-0.335698481727377
1580421547.64724,1.61745632104976,2.65506981002522,-1.0681315327688
1580421547.65123,1.12916762035547,2.22781719691761,-2.04470893415737
1580421547.65523,0.579842832074519,1.67849240863666,-3.02128633554594
1580421547.65922,0.274662394140478,1.25123979552905,-3.87579156176093
1580421547.66321,0.213626306553806,1.49538414587619,-4.54718852521546
1580421547.66721,0.091554131380235,1.67849240863666,-5.21858548867021
1580421547.6712,-0.091554131380235,2.41092545967808,-5.7068741893645
1580421547.67519,-0.213626306553806,3.08232242313261,-5.7068741893645
1580421547.67919,-0.823987182421661,3.93682764934761,-5.21858548867021
1580421547.68318,-1.61745632104976,5.03547722590974,-4.54718852521546
1580421547.68717,-2.47196154726475,6.07309071488521,-3.44853894865332
1580421547.69117,-3.14335851071951,6.86655985351331,-1.98367284657047
1580421547.69516,-3.38750286106665,7.11070420386045,-0.51880674448762
1580421547.69915,-3.08232242313261,7.11070420386045,1.0070954451819
1580421547.70315,-2.22781719691761,6.80552376592664,2.28885328450451
1580421547.70714,-1.19020370794237,6.01205462729831,3.38750286106665
1580421547.71113,-0.51880674448762,4.60822461280236,4.11993591210808
1580421547.71513,-0.640878919661191,3.02128633554594,4.36408026245522
1580421547.71912,-1.9226367589838,1.43434805828952,4.42511635004189
1580421547.72311,-3.63164721141379,0.274662394140478,3.81475547417404
1580421547.7271,-5.76791027695117,-0.762951094834762,3.08232242313261
1580421547.7311,-7.35484855420759,-1.49538414587619,2.16678110933094
1580421547.73509,-8.45349813076973,-1.8616006713969,1.0070954451819
1580421547.73908,-8.69764248111687,-2.16678110933094,-0.335698481727377
1580421547.74308,-8.5755703059433,-2.16678110933094,-1.43434805828952
1580421547.74707,-7.84313725490188,-1.80056458381023,-2.53299763485165
1580421547.75106,-6.98863202868688,-1.12916762035547,-3.50957503624022
1580421547.75506,-5.76791027695117,-0.579842832074519,-4.11993591210808
1580421547.75905,-4.54718852521546,0.579842832074519,-4.42511635004189
1580421547.76304,-3.20439459830618,1.55642023346309,-4.54718852521546
1580421547.76704,-1.9226367589838,2.34988937209118,-4.30304417486832
1580421547.77103,-0.823987182421661,2.96025024795904,-3.75371938658736
1580421547.77502,0.152590218966907,3.63164721141379,-3.14335851071951
1580421547.77902,0.640878919661191,4.18097199969475,-2.04470893415737
1580421547.78301,0.823987182421661,4.60822461280236,-0.823987182421661
1580421547.78701,0.885023270008332,5.09651331349664,0.213626306553806
1580421547.791,0.946059357595232,5.6458381017776,1.25123979552905
1580421547.79499,1.25123979552905,6.13412680247188,2.10574502174404
1580421547.79898,1.43434805828952,6.80552376592664,2.96025024795904
1580421547.80297,1.49538414587619,7.11070420386045,3.69268329900046
1580421547.80697,1.37331197070262,7.17174029144735,3.93682764934761
1580421547.81096,1.12916762035547,6.74448767833974,4.11993591210808
1580421547.81495,0.823987182421661,6.13412680247188,4.30304417486832
1580421547.81895,0.51880674448762,5.34065766384379,4.24200808728165
1580421547.82294,0.335698481727377,4.30304417486832,4.05889982452118
1580421547.82693,-0.0305180437933359,3.44853894865332,3.81475547417404
1580421547.83093,0.091554131380235,2.89921416037237,3.38750286106665
1580421547.83492,0.213626306553806,2.7771419851988,2.59403372243833
1580421547.83891,0.762951094834762,2.59403372243833,1.9226367589838
1580421547.84291,1.67849240863666,2.16678110933094,1.12916762035547
1580421547.8469,2.59403372243833,1.67849240863666,0.274662394140478
1580421547.8509,3.32646677347975,1.12916762035547,-0.152590218966907
1580421547.85489,4.11993591210808,0.335698481727377,-0.70191500724809
1580421547.85888,4.8523689631495,-0.823987182421661,-1.12916762035547
1580421547.86288,5.34065766384379,-1.80056458381023,-1.67849240863666
1580421547.86687,5.7068741893645,-2.7161058976119,-2.04470893415737
1580421547.87086,5.76791027695117,-3.38750286106665,-2.41092545967808
1580421547.87486,5.7068741893645,-3.93682764934761,-2.7771419851988
1580421547.87888,5.15754940108332,-4.05889982452118,-3.08232242313261
1580421547.88287,4.18097199969475,-3.87579156176093,-3.44853894865332
1580421547.88686,3.20439459830618,-3.44853894865332,-3.69268329900046
1580421547.89086,2.59403372243833,-2.41092545967808,-3.75371938658736
1580421547.89485,2.59403372243833,-0.823987182421661,-3.63164721141379
1580421547.89884,3.20439459830618,0.579842832074519,-3.50957503624022
1580421547.90284,3.93682764934761,1.67849240863666,-3.32646677347975
1580421547.90683,4.66926070038903,2.65506981002522,-3.20439459830618
1580421547.91082,5.09651331349664,3.38750286106665,-2.89921416037237
1580421547.91482,5.09651331349664,4.11993591210808,-2.34988937209118
1580421547.91881,4.73029678797593,4.73029678797593,-1.98367284657047
1580421547.9228,4.24200808728165,5.46272983901736,-1.49538414587619
1580421547.9268,3.63164721141379,6.62241550316617,-1.0681315327688
1580421547.93079,2.89921416037237,7.90417334248878,-0.640878919661191
1580421547.93478,1.98367284657047,9.18593118181116,-0.396734569314049
1580421547.93878,1.0681315327688,9.97940032043948,-0.0305180437933359
1580421547.94277,0.335698481727377,10.2845807583733,0.0305180437933359
1580421547.94676,-0.335698481727377,9.91836423285258,0.0305180437933359
1580421547.95076,-1.0070954451819,9.24696726939806,0.0305180437933359
1580421547.95475,-1.67849240863666,7.96520943007545,-0.335698481727377
1580421547.95874,-2.34988937209118,6.56137941557949,-0.579842832074519
1580421547.96273,-3.57061112382689,5.40169375143046,-1.0681315327688
1580421547.96673,-4.91340505073617,4.24200808728165,-1.37331197070262
1580421547.97072,-6.13412680247188,3.38750286106665,-1.73952849622333
1580421547.97471,-6.92759594110021,2.7161058976119,-2.10574502174404
1580421547.97871,-7.23277637903402,2.28885328450451,-2.22781719691761
1580421547.9827,-7.04966811627378,1.73952849622333,-2.28885328450451
1580421547.98669,-6.62241550316617,1.12916762035547,-2.34988937209118
1580421547.99069,-6.37827115281902,0.70191500724809,-2.34988937209118
1580421547.99468,-5.95101853971164,0.213626306553806,-2.28885328450451
1580421547.99867,-5.6458381017776,-0.0305180437933359,-2.28885328450451
1580421548.00267,-5.40169375143046,0.274662394140478,-2.28885328450451
1580421548.00666,-5.27962157625689,0.640878919661191,-2.22781719691761
1580421548.01066,-5.34065766384379,0.885023270008332,-2.16678110933094
1580421548.01465,-5.7068741893645,1.12916762035547,-2.16678110933094
1580421548.01864,-6.07309071488521,1.12916762035547,-2.10574502174404
1580421548.02264,-6.19516289005878,1.19020370794237,-2.10574502174404
1580421548.02663,-5.76791027695117,1.25123979552905,-2.10574502174404
1580421548.03062,-5.21858548867021,1.31227588311594,-1.9226367589838
1580421548.03462,-4.30304417486832,1.25123979552905,-1.67849240863666
1580421548.03864,-3.57061112382689,1.0070954451819,-1.49538414587619
1580421548.04263,-3.14335851071951,0.823987182421661,-1.25123979552905
1580421548.04662,-3.02128633554594,0.823987182421661,-1.0681315327688
1580421548.05061,-3.02128633554594,0.70191500724809,-0.885023270008332
1580421548.05461,-3.02128633554594,0.51880674448762,-0.640878919661191
1580421548.0586,-2.83817807278547,0.51880674448762,-0.51880674448762
1580421548.0626,-2.28885328450451,0.274662394140478,-0.396734569314049
1580421548.06659,-1.73952849622333,0.0305180437933359,-0.274662394140478
1580421548.07058,-1.0070954451819,-0.274662394140478,-0.274662394140478
1580421548.07458,0.213626306553806,-0.335698481727377,-0.457770656900948
1580421548.07857,1.37331197070262,0.091554131380235,-0.274662394140478
1580421548.08256,2.41092545967808,0.579842832074519,-0.457770656900948
1580421548.08656,2.89921416037237,1.0681315327688,-0.396734569314049
1580421548.09055,2.89921416037237,1.0681315327688,-0.579842832074519
1580421548.09454,2.47196154726475,0.885023270008332,-0.70191500724809
1580421548.09854,1.73952849622333,0.579842832074519,-0.762951094834762
1580421548.10253,1.12916762035547,0.213626306553806,-0.823987182421661
1580421548.10652,0.640878919661191,-0.0305180437933359,-1.0681315327688
1580421548.11052,0.091554131380235,-0.0305180437933359,-1.12916762035547
1580421548.11451,-0.396734569314049,0.091554131380235,-1.37331197070262
1580421548.1185,-1.0070954451819,0.0305180437933359,-1.55642023346309
1580421548.12249,-1.55642023346309,-0.152590218966907,-1.8616006713969
1580421548.12649,-2.10574502174404,-0.0305180437933359,-2.04470893415737
1580421548.13048,-2.53299763485165,0.0305180437933359,-2.22781719691761
1580421548.13447,-3.02128633554594,0.091554131380235,-2.22781719691761
1580421548.13847,-3.26543068589308,0.0305180437933359,-2.04470893415737
1580421548.14246,-3.20439459830618,0.335698481727377,-1.98367284657047
1580421548.14645,-2.89921416037237,0.640878919661191,-1.61745632104976
1580421548.15045,-2.59403372243833,0.885023270008332,-1.37331197070262
1580421548.15444,-2.41092545967808,1.0681315327688,-1.19020370794237
1580421548.15843,-2.28885328450451,1.25123979552905,-0.762951094834762
1580421548.16243,-2.16678110933094,1.25123979552905,-0.396734569314049
1580421548.16642,-2.10574502174404,1.31227588311594,-0.091554131380235
1580421548.17041,-1.8616006713969,1.37331197070262,0.091554131380235
1580421548.17441,-1.49538414587619,1.37331197070262,0.396734569314049
1580421548.1784,-0.823987182421661,1.25123979552905,0.51880674448762
1580421548.1824,-0.335698481727377,0.885023270008332,0.579842832074519
1580421548.18639,-0.274662394140478,0.335698481727377,0.457770656900948
1580421548.19038,0.091554131380235,0.091554131380235,0.70191500724809
1580421548.19438,0.335698481727377,-0.335698481727377,0.51880674448762
1580421548.19836,0.885023270008332,-0.579842832074519,0.579842832074519
1580421548.20236,1.55642023346309,-0.51880674448762,0.640878919661191
1580421548.20635,2.28885328450451,-0.335698481727377,0.51880674448762
1580421548.21034,2.89921416037237,-0.091554131380235,0.274662394140478
1580421548.21434,3.44853894865332,-0.0305180437933359,0.152590218966907
1580421548.21833,4.05889982452118,-0.0305180437933359,0.152590218966907
1580421548.22232,4.36408026245522,-0.152590218966907,0.213626306553806
1580421548.22632,4.91340505073617,-0.213626306553806,0.213626306553806
1580421548.23031,5.40169375143046,-0.091554131380235,0.213626306553806
1580421548.2343,6.01205462729831,0.0305180437933359,0.213626306553806
1580421548.2383,6.5003433279926,0.335698481727377,0.091554131380235
1580421548.24229,6.74448767833974,0.579842832074519,0.213626306553806
1580421548.24629,6.86655985351331,0.640878919661191,0.274662394140478
1580421548.25028,6.80552376592664,0.579842832074519,0.335698481727377
1580421548.25427,6.74448767833974,0.579842832074519,0.457770656900948
1580421548.25827,6.62241550316617,0.51880674448762,0.640878919661191
1580421548.26226,6.62241550316617,0.579842832074519,0.762951094834762
1580421548.26625,6.74448767833974,0.823987182421661,0.885023270008332
1580421548.27025,7.04966811627378,1.0070954451819,1.12916762035547
1580421548.27424,7.41588464179449,1.0070954451819,1.12916762035547
1580421548.27826,7.29381246662092,1.0681315327688,1.25123979552905
1580421548.28225,6.68345159075307,1.12916762035547,1.55642023346309
1580421548.28625,5.82894636453807,1.12916762035547,1.61745632104976
1580421548.29024,4.91340505073617,1.19020370794237,1.61745632104976
1580421548.29423,4.36408026245522,1.25123979552905,1.49538414587619
1580421548.29823,3.87579156176093,1.25123979552905,1.37331197070262
1580421548.30222,3.57061112382689,0.946059357595232,1.25123979552905
1580421548.30621,3.50957503624022,0.457770656900948,1.0070954451819
1580421548.31021,3.20439459830618,-0.091554131380235,0.885023270008332
1580421548.3142,2.89921416037237,-0.823987182421661,0.579842832074519
1580421548.31819,2.65506981002522,-1.67849240863666,0.274662394140478
1580421548.32219,2.28885328450451,-2.34988937209118,0.213626306553806
1580421548.32618,2.04470893415737,-2.59403372243833,0.152590218966907
1580421548.33017,1.80056458381023,-2.89921416037237,-0.0305180437933359
1580421548.33417,1.67849240863666,-2.89921416037237,0.0305180437933359
1580421548.33816,1.49538414587619,-2.7771419851988,0.091554131380235
1580421548.34215,1.12916762035547,-2.59403372243833,0.335698481727377
1580421548.34615,1.12916762035547,-2.28885328450451,0.70191500724809
1580421548.35014,1.31227588311594,-2.04470893415737,0.885023270008332
1580421548.35414,1.80056458381023,-1.67849240863666,1.12916762035547
1580421548.35812,2.65506981002522,-1.31227588311594,1.31227588311594
1580421548.36212,3.81475547417404,-1.0070954451819,1.55642023346309
1580421548.36611,4.97444113832307,-0.579842832074519,1.67849240863666
1580421548.3701,6.13412680247188,-0.335698481727377,1.80056458381023
1580421548.3741,6.98863202868688,-0.152590218966907,1.80056458381023
1580421548.37809,7.84313725490188,0.152590218966907,1.9226367589838
1580421548.38208,8.02624551766235,0.335698481727377,1.9226367589838
1580421548.38608,8.14831769283592,0.51880674448762,1.98367284657047
1580421548.39007,8.14831769283592,0.70191500724809,2.10574502174404
1580421548.39406,8.20935378042259,0.762951094834762,2.28885328450451
1580421548.39806,8.02624551766235,0.885023270008332,2.34988937209118
1580421548.40205,7.84313725490188,0.579842832074519,2.22781719691761
1580421548.40605,7.53795681696806,0.579842832074519,2.10574502174404
1580421548.41004,7.35484855420759,0.579842832074519,2.04470893415737
1580421548.41403,7.35484855420759,0.396734569314049,2.04470893415737
1580421548.41803,7.23277637903402,0.335698481727377,1.80056458381023
1580421548.42202,7.11070420386045,0.0305180437933359,1.55642023346309
1580421548.42601,6.74448767833974,-0.335698481727377,1.49538414587619
1580421548.43001,6.37827115281902,-0.51880674448762,1.55642023346309
1580421548.434,6.01205462729831,-0.640878919661191,1.37331197070262
1580421548.43799,5.6458381017776,-0.823987182421661,1.37331197070262
1580421548.44198,4.91340505073617,-0.823987182421661,1.31227588311594
1580421548.44597,4.48615243762879,-0.579842832074519,1.19020370794237
1580421548.44997,4.05889982452118,-0.335698481727377,1.19020370794237
1580421548.45396,3.69268329900046,-0.091554131380235,0.946059357595232
1580421548.45795,3.44853894865332,0.213626306553806,1.0681315327688
1580421548.46195,3.26543068589308,0.335698481727377,1.0681315327688
1580421548.46594,2.83817807278547,0.274662394140478,1.25123979552905
1580421548.46994,2.47196154726475,0.51880674448762,1.37331197070262
1580421548.47393,2.16678110933094,0.885023270008332,1.43434805828952
1580421548.47792,1.80056458381023,1.12916762035547,1.61745632104976
1580421548.48192,1.55642023346309,1.43434805828952,1.67849240863666
1580421548.48591,1.19020370794237,1.49538414587619,1.80056458381023
1580421548.4899,0.396734569314049,1.31227588311594,1.80056458381023
1580421548.4939,-0.396734569314049,0.946059357595232,1.8616006713969
1580421548.49789,-0.885023270008332,0.640878919661191,1.98367284657047
1580421548.50188,-1.0070954451819,0.457770656900948,2.04470893415737
1580421548.50588,-0.579842832074519,0.274662394140478,2.16678110933094
1580421548.50987,0.0305180437933359,0.213626306553806,2.28885328450451
1580421548.51386,0.762951094834762,0.152590218966907,2.53299763485165
1580421548.51788,1.25123979552905,0.0305180437933359,2.96025024795904
1580421548.52188,1.43434805828952,-0.091554131380235,3.14335851071951
1580421548.52587,1.37331197070262,-0.152590218966907,3.26543068589308
1580421548.52986,1.0681315327688,-0.213626306553806,3.14335851071951
1580421548.53386,0.946059357595232,0.213626306553806,2.96025024795904
1580421548.53785,0.885023270008332,0.823987182421661,2.34988937209118
1580421548.54184,0.762951094834762,1.55642023346309,1.98367284657047
1580421548.54584,0.396734569314049,2.28885328450451,1.37331197070262
1580421548.54983,0.213626306553806,2.96025024795904,0.762951094834762
1580421548.55382,-0.0305180437933359,3.26543068589308,0.213626306553806
1580421548.55782,-0.0305180437933359,3.32646677347975,-0.640878919661191
1580421548.56181,0.0305180437933359,3.32646677347975,-1.31227588311594
1580421548.5658,-0.152590218966907,3.32646677347975,-1.80056458381023
1580421548.5698,-0.457770656900948,3.44853894865332,-2.41092545967808
1580421548.57379,-1.0070954451819,3.32646677347975,-2.65506981002522
1580421548.57779,-1.37331197070262,3.26543068589308,-2.89921416037237
1580421548.58178,-1.80056458381023,3.08232242313261,-3.02128633554594
1580421548.58577,-1.9226367589838,2.89921416037237,-3.20439459830618
1580421548.58977,-1.67849240863666,2.34988937209118,-3.14335851071951
1580421548.59376,-1.31227588311594,1.8616006713969,-2.89921416037237
1580421548.59775,-1.0681315327688,1.25123979552905,-2.89921416037237
1580421548.60174,-1.0681315327688,0.51880674448762,-2.83817807278547
1580421548.60573,-1.0681315327688,-0.152590218966907,-2.65506981002522
1580421548.60973,-1.31227588311594,-0.823987182421661,-2.59403372243833
1580421548.61372,-1.37331197070262,-1.43434805828952,-2.53299763485165
1580421548.61771,-1.25123979552905,-1.73952849622333,-2.34988937209118
1580421548.62171,-1.0070954451819,-1.98367284657047,-2.10574502174404
1580421548.6257,-0.762951094834762,-1.8616006713969,-1.80056458381023
1580421548.6297,-0.762951094834762,-1.31227588311594,-1.49538414587619
1580421548.63369,-1.19020370794237,-0.885023270008332,-1.0681315327688
1580421548.63768,-1.49538414587619,-0.396734569314049,-0.640878919661191
1580421548.64168,-1.80056458381023,0.0305180437933359,-0.274662394140478
1580421548.64567,-1.98367284657047,0.640878919661191,0.335698481727377
1580421548.64966,-1.8616006713969,1.12916762035547,0.946059357595232
1580421548.65366,-1.49538414587619,1.25123979552905,1.67849240863666
1580421548.65765,-0.762951094834762,1.25123979552905,2.41092545967808
1580421548.66164,0.396734569314049,1.37331197070262,3.14335851071951
1580421548.66564,1.67849240863666,1.19020370794237,3.69268329900046
1580421548.66963,2.7161058976119,0.946059357595232,4.11993591210808
1580421548.67362,3.57061112382689,0.51880674448762,4.30304417486832
1580421548.67764,3.69268329900046,-0.213626306553806,4.36408026245522
1580421548.68164,3.57061112382689,-1.0070954451819,4.05889982452118
1580421548.68563,3.20439459830618,-1.9226367589838,3.63164721141379
1580421548.68962,3.02128633554594,-2.96025024795904,3.08232242313261
1580421548.69362,2.89921416037237,-3.93682764934761,2.41092545967808
1580421548.69761,3.38750286106665,-4.8523689631495,1.61745632104976
1580421548.7016,3.93682764934761,-5.52376592660403,0.946059357595232
1580421548.7056,4.48615243762879,-6.01205462729831,0.274662394140478
1580421548.70959,5.15754940108332,-6.31723506523235,-0.213626306553806
1580421548.71358,5.76791027695117,-6.37827115281902,-0.70191500724809
1580421548.71758,6.31723506523235,-6.13412680247188,-1.12916762035547
1580421548.72157,6.80552376592664,-5.88998245212474,-1.55642023346309
1580421548.72556,7.23277637903402,-5.52376592660403,-1.73952849622333
1580421548.72956,7.17174029144735,-5.15754940108332,-1.8616006713969
1580421548.73355,6.98863202868688,-4.97444113832307,-1.98367284657047
1580421548.73755,6.37827115281902,-4.8523689631495,-1.8616006713969
1580421548.74154,6.13412680247188,-4.73029678797593,-1.9226367589838
1580421548.74553,6.19516289005878,-4.18097199969475,-1.80056458381023
1580421548.74953,6.56137941557949,-3.63164721141379,-1.43434805828952
1580421548.75352,6.98863202868688,-3.02128633554594,-1.25123979552905
1580421548.75751,6.92759594110021,-2.65506981002522,-0.946059357595232
1580421548.7615,6.86655985351331,-2.59403372243833,-0.640878919661191
1580421548.76549,6.07309071488521,-2.83817807278547,-0.335698481727377
1580421548.76949,5.27962157625689,-2.96025024795904,-0.091554131380235
1580421548.77348,4.48615243762879,-3.02128633554594,0.0305180437933359
1580421548.77747,3.93682764934761,-3.26543068589308,0.213626306553806
1580421548.78147,3.50957503624022,-3.26543068589308,0.274662394140478
1580421548.78546,3.26543068589308,-3.38750286106665,0.274662394140478
1580421548.78945,2.96025024795904,-3.63164721141379,0.213626306553806
1580421548.79345,2.47196154726475,-3.63164721141379,0.152590218966907
1580421548.79744,2.04470893415737,-3.81475547417404,0.0305180437933359
1580421548.80144,1.55642023346309,-3.75371938658736,0.0305180437933359
1580421548.80543,1.25123979552905,-3.63164721141379,-0.152590218966907
1580421548.80942,1.0070954451819,-3.08232242313261,-0.152590218966907
1580421548.81342,0.762951094834762,-2.41092545967808,-0.091554131380235
1580421548.81741,0.335698481727377,-1.80056458381023,-0.274662394140478
1580421548.8214,0.091554131380235,-1.61745632104976,-0.335698481727377
1580421548.8254,0.091554131380235,-1.31227588311594,-0.335698481727377
1580421548.82939,0.091554131380235,-1.0681315327688,-0.274662394140478
1580421548.83338,0.091554131380235,-0.823987182421661,-0.152590218966907
1580421548.83737,-0.213626306553806,-0.51880674448762,-0.0305180437933359
1580421548.84136,-0.762951094834762,-0.579842832074519,0.396734569314049
1580421548.84536,-1.19020370794237,-0.70191500724809,0.51880674448762
1580421548.84935,-1.31227588311594,-0.457770656900948,0.762951094834762
1580421548.85334,-1.19020370794237,-0.152590218966907,0.823987182421661
1580421548.85734,-0.762951094834762,0.0305180437933359,0.823987182421661
1580421548.86133,-0.640878919661191,0.0305180437933359,1.0070954451819
1580421548.86533,-0.640878919661191,-0.213626306553806,0.946059357595232
1580421548.86932,-1.0681315327688,-0.762951094834762,0.823987182421661
1580421548.87331,-1.49538414587619,-1.0681315327688,0.70191500724809
1580421548.87731,-1.67849240863666,-0.946059357595232,0.51880674448762
1580421548.8813,-1.49538414587619,-0.70191500724809,0.213626306553806
1580421548.88529,-1.0681315327688,-0.152590218966907,-0.0305180437933359
1580421548.88929,-0.51880674448762,0.70191500724809,-0.274662394140478
1580421548.89328,-0.274662394140478,1.43434805828952,-0.396734569314049
1580421548.89727,-0.0305180437933359,2.04470893415737,-0.579842832074519
1580421548.90127,0.091554131380235,2.34988937209118,-0.823987182421661
1580421548.90526,0.335698481727377,2.47196154726475,-1.12916762035547
1580421548.90926,0.274662394140478,2.65506981002522,-1.37331197070262
1580421548.91325,0.152590218966907,2.96025024795904,-1.67849240863666
1580421548.91727,-0.396734569314049,3.32646677347975,-2.22781719691761
1580421548.92126,-0.946059357595232,3.57061112382689,-2.7161058976119
1580421548.92525,-1.31227588311594,3.81475547417404,-3.32646677347975
1580421548.92925,-1.61745632104976,4.05889982452118,-3.93682764934761
1580421548.93324,-1.80056458381023,4.30304417486832,-4.42511635004189
1580421548.93723,-2.28885328450451,4.36408026245522,-4.60822461280236
1580421548.94123,-2.89921416037237,4.36408026245522,-4.7913328755626
1580421548.94522,-3.99786373693451,4.18097199969475,-4.66926070038903
1580421548.94921,-4.7913328755626,3.81475547417404,-4.30304417486832
1580421548.95321,-5.58480201419093,3.63164721141379,-3.87579156176093
1580421548.9572,-5.88998245212474,3.32646677347975,-3.14335851071951
1580421548.96119,-5.46272983901736,3.20439459830618,-2.59403372243833
1580421548.96519,-4.30304417486832,3.57061112382689,-1.67849240863666
1580421548.96918,-2.96025024795904,3.99786373693451,-0.70191500724809
1580421548.97318,-1.80056458381023,4.60822461280236,0.213626306553806
1580421548.97717,-1.12916762035547,4.7913328755626,1.12916762035547
1580421548.98116,-0.640878919661191,4.7913328755626,1.73952849622333
1580421548.98516,0.091554131380235,4.66926070038903,2.28885328450451
1580421548.98915,1.0681315327688,4.36408026245522,2.53299763485165
1580421548.99314,2.34988937209118,4.11993591210808,2.53299763485165
1580421548.99713,3.81475547417404,3.63164721141379,2.16678110933094
1580421549.00112,5.03547722590974,3.20439459830618,1.49538414587619
1580421549.00512,5.6458381017776,2.83817807278547,0.70191500724809
1580421549.00911,5.82894636453807,2.41092545967808,-0.335698481727377
1580421549.0131,5.95101853971164,2.04470893415737,-1.37331197070262
1580421549.0171,6.07309071488521,1.61745632104976,-2.34988937209118
1580421549.02109,6.13412680247188,1.19020370794237,-3.14335851071951
1580421549.02509,6.07309071488521,1.0070954451819,-3.57061112382689
1580421549.02908,5.76791027695117,1.0681315327688,-3.93682764934761
1580421549.03307,5.34065766384379,1.73952849622333,-4.05889982452118
1580421549.03707,5.58480201419093,2.83817807278547,-4.05889982452118
1580421549.04106,6.43930724040592,3.87579156176093,-3.87579156176093
1580421549.04505,7.47692072938116,5.09651331349664,-3.63164721141379
1580421549.04905,8.6366063935302,5.82894636453807,-3.26543068589308
1580421549.05304,9.61318379491877,6.56137941557949,-2.89921416037237
1580421549.05703,9.67421988250544,6.92759594110021,-2.59403372243833
1580421549.06103,9.4300755321583,7.11070420386045,-2.41092545967808
1580421549.06502,9.00282291905091,7.04966811627378,-2.16678110933094
1580421549.06901,8.81971465629044,6.86655985351331,-1.8616006713969
1580421549.07301,9.12489509422448,7.04966811627378,-1.61745632104976
1580421549.07699,9.4300755321583,6.86655985351331,-1.43434805828952
1580421549.08099,9.18593118181116,6.80552376592664,-1.43434805828952
1580421549.08498,8.6366063935302,6.62241550316617,-1.43434805828952
1580421549.08898,7.66002899214163,6.56137941557949,-1.61745632104976
1580421549.09297,6.56137941557949,6.37827115281902,-1.80056458381023
1580421549.09696,5.58480201419093,6.07309071488521,-2.04470893415737
1580421549.10096,4.91340505073617,5.6458381017776,-2.41092545967808
1580421549.10495,4.30304417486832,5.21858548867021,-2.96025024795904
1580421549.10894,3.75371938658736,4.54718852521546,-3.50957503624022
1580421549.11294,3.08232242313261,3.81475547417404,-3.69268329900046
1580421549.11693,2.53299763485165,3.26543068589308,-3.93682764934761
1580421549.12092,1.98367284657047,2.59403372243833,-4.36408026245522
1580421549.12492,1.61745632104976,2.28885328450451,-4.54718852521546
1580421549.12891,1.25123979552905,1.9226367589838,-4.42511635004189
1580421549.13291,0.762951094834762,1.8616006713969,-4.36408026245522
1580421549.1369,0.0305180437933359,2.04470893415737,-4.30304417486832
1580421549.14089,-0.579842832074519,2.34988937209118,-3.99786373693451
1580421549.14488,-1.0070954451819,2.7161058976119,-3.93682764934761
1580421549.14888,-1.31227588311594,3.14335851071951,-3.75371938658736
1580421549.15287,-1.49538414587619,3.63164721141379,-3.75371938658736
1580421549.15689,-1.80056458381023,4.18097199969475,-3.75371938658736
1580421549.16088,-2.22781719691761,4.24200808728165,-3.81475547417404
1580421549.16488,-2.83817807278547,3.93682764934761,-4.11993591210808
1580421549.16887,-3.44853894865332,3.44853894865332,-4.66926070038903
1580421549.17286,-3.57061112382689,2.7161058976119,-5.15754940108332
1580421549.17686,-3.75371938658736,1.67849240863666,-5.6458381017776
1580421549.18085,-3.44853894865332,0.457770656900948,-6.31723506523235
1580421549.18484,-2.96025024795904,-0.579842832074519,-6.92759594110021
1580421549.18884,-2.22781719691761,-1.67849240863666,-7.29381246662092
1580421549.19283,-1.73952849622333,-2.53299763485165,-7.84313725490188
1580421549.19683,-1.67849240863666,-2.96025024795904,-8.27038986800949
1580421549.20082,-1.98367284657047,-3.20439459830618,-8.33142595559616
1580421549.20481,-2.41092545967808,-3.57061112382689,-8.45349813076973
1580421549.20881,-2.53299763485165,-3.81475547417404,-8.5755703059433
1580421549.2128,-1.98367284657047,-3.99786373693451,-8.5755703059433
1580421549.21679,-1.12916762035547,-3.75371938658736,-8.33142595559616
1580421549.22079,0.091554131380235,-3.63164721141379,-8.02624551766235
1580421549.22478,1.0681315327688,-3.63164721141379,-7.96520943007545
1580421549.22877,1.67849240863666,-4.18097199969475,-7.90417334248878
1580421549.23277,2.34988937209118,-5.03547722590974,-7.72106507972831
1580421549.23675,2.65506981002522,-6.19516289005878,-7.66002899214163
1580421549.24075,3.20439459830618,-7.41588464179449,-7.66002899214163
1580421549.24474,3.63164721141379,-8.51453421835663,-8.02624551766235
1580421549.24874,4.05889982452118,-9.61318379491877,-8.45349813076973
1580421549.25273,4.30304417486832,-10.650797283894,-8.94178683146401
1580421549.25672,4.36408026245522,-11.6884107728695,-9.73525597009234
1580421549.26072,4.18097199969475,-12.7260242618447,-10.3456168459602
1580421549.26471,3.99786373693451,-13.9467460135804,-11.2001220721752
1580421549.2687,3.50957503624022,-15.1064316777295,-12.1156633859769
1580421549.2727,3.32646677347975,-16.3271534294652,-12.9701686121919
1580421549.27669,3.38750286106665,-17.6699473563745,-13.7636377508202
1580421549.28068,3.50957503624022,-19.4399938963911,-14.373998626688
1580421549.28468,3.87579156176093,-21.4541847867551,-14.9843595025559
1580421549.28867,4.36408026245522,-23.2242313267718,-15.3505760280766
1580421549.29266,5.52376592660403,-25.0553139543754,-15.4116121156633
1580421549.29666,6.92759594110021,-27.0084687571525,-15.5336842908368
1580421549.30065,8.94178683146401,-29.2057679102768,-15.7167925535973
1580421549.30464,11.0780498970016,-31.4030670634013,-15.8999008163576
1580421549.30864,13.214312962539,-33.783474479286,-15.8388647287709
1580421549.31263,14.9843595025559,-36.1028458075839,-15.7167925535973
1580421549.31665,16.5102616922254,-38.4832532234684,-15.5947203784237
1580421549.32064,18.2192721446554,-40.7415884641796,-15.228503852903
1580421549.32464,20.1113908598459,-42.9388876173039,-14.8622873273823
1580421549.32863,22.064545662623,-45.3803311207753,-14.6181429770352
1580421549.33262,23.8956282902266,-48.2490272373541,-14.1908903639276
1580421549.33662,25.2994583047225,-51.728084229801,-14.1908903639276
1580421549.34061,26.5812161440451,-55.6343938353552,-14.3129625391011
1580421549.3446,27.4967574578468,-59.7848477912567,-14.7402151522087
1580421549.3486,28.1071183337147,-63.9353017471581,-15.4726482032502
1580421549.35259,28.2902265964751,-68.0247196154726,-16.3271534294652
1580421549.35659,28.3512626840618,-71.8089570458533,-17.4258030060273
1580421549.36058,28.1071183337147,-75.043869687953,-18.7685969329366
1580421549.36457,27.6798657206073,-78.156710154879,-19.9893186846723
1580421549.36857,27.5577935454337,-81.1474784466316,-21.0879682612344
1580421549.37256,27.5577935454337,-84.1992828259708,-21.759365224689
1580421549.37655,27.191577019913,-88.2887006942854,-22.2476539253832
1580421549.38055,25.8487830930037,-93.4157320515753,-22.4307621881437
1580421549.38454,23.3463035019454,-99.3972686350805,-22.6749065384909
1580421549.38853,19.5620660715647,-106.477454795148,-22.6749065384909
1580421549.39253,14.923323414969,-114.534218356603,-22.7969787136644
1580421549.39651,10.650797283894,-123.384451056687,-22.8580148012511
1580421549.40051,7.66002899214163,-133.39436942092,-22.8580148012511
1580421549.4045,6.86655985351331,-145.479514763104,-22.3697261005568
1580421549.40849,7.11070420386045,-159.761959258412,-21.6983291371023
1580421549.41249,7.29381246662092,-175.75341420615,-20.5386434729533
1580421549.41648,5.88998245212474,-191.439688715953,-19.0127412832837
1580421549.42048,5.03547722590974,-204.806591897459,-17.2426947432668
1580421549.42447,5.88998245212474,-214.450293736171,-15.228503852903
1580421549.42846,7.59899290455473,-218.600747692073,-13.3363851377126
1580421549.43246,9.4300755321583,-214.206149385824,-11.5663385976959
1580421549.43645,10.4676890211338,-201.327534905012,-9.91836423285258
1580421549.44044,10.7118333714809,-180.392156862745,-7.59899290455473
1580421549.44444,12.664988174258,-157.869840543221,-4.05889982452118
1580421549.44843,17.792019531548,-142.549782558938,0.51880674448762
1580421549.45242,23.7125200274661,-134.676127260243,5.09651331349664
1580421549.45642,24.9332417792018,-130.220492866407,8.5755703059433
1580421549.46041,18.2192721446554,-129.488059815366,10.4066529335469
1580421549.4644,5.09651331349664,-134.798199435416,9.97940032043948
1580421549.4684,-10.5897611963073,-146.028839551385,7.23277637903402
1580421549.47239,-26.4591439688716,-158.66330968185,2.7161058976119
1580421549.47638,-41.1078049897003,-168.368047608148,-2.53299763485165
1580421549.48037,-53.3150225070574,-172.945754177157,-8.75867856870377
1580421549.48437,-60.8224612802319,-171.663996337835,-15.3505760280766
1580421549.48836,-62.2262912947281,-166.536964980545,-20.9658960860609
1580421549.49235,-58.9303425650417,-159.395742732891,-25.7877470054168
1580421549.49635,-54.5357442587931,-149.813076981765,-29.6940566109711
1580421549.50034,-50.7515068284124,-138.399328603037,-32.074464026856
1580421549.50433,-46.9062333104448,-127.473868925002,-32.928969253071
1580421549.50833,-41.8402380407417,-117.158770122835,-32.8068970778975
1580421549.51232,-34.637979705501,-107.087815671016,-31.8913557640956
1580421549.51631,-24.3839169909209,-98.3596551461053,-30.5485618371861
1580421549.52031,-12.2377355611504,-91.4015411612115,-29.0226596475165
1580421549.5243,-0.885023270008332,-86.3965819790951,-27.4357213702601
1580421549.5283,7.53795681696806,-83.3447775997558,-25.8487830930037
1580421549.53229,12.4818799114976,-82.1240558480201,-24.9942778667887
1580421549.53628,13.9467460135804,-81.8188754100861,-24.6890974288547
1580421549.54027,13.0312046997788,-81.6968032349125,-24.8111696040282
1580421549.54427,11.0170138094147,-80.8422980086975,-25.3604943923094
1580421549.54826,9.55214770733187,-79.2553597314411,-25.7877470054168
1580421549.55226,8.88075074387734,-77.0580605783168,-25.7267109178301
1580421549.55627,8.45349813076973,-74.3114366369116,-24.9942778667887
1580421549.56027,7.41588464179449,-71.1985961699854,-23.8956282902266
1580421549.56426,5.09651331349664,-68.0247196154726,-22.3697261005568
1580421549.56825,0.946059357595232,-65.1560234988938,-20.5386434729533
1580421549.57225,-4.8523689631495,-62.775616083009,-18.5854886701761
1580421549.57624,-11.8715190356297,-61.3717860685131,-16.7544060425726
1580421549.58024,-19.8672465094987,-60.6393530174716,-15.3505760280766
1580421549.58423,-28.046082246128,-60.9445334554055,-14.3129625391011
1580421549.58822,-36.5911345082782,-61.7990386816205,-13.3974212252995
1580421549.59222,-46.3569085221638,-62.5925078202488,-12.664988174258
1580421549.59621,-57.4654764629588,-63.1418326085297,-12.4818799114976
1580421549.6002,-69.1844052796216,-63.3859769588769,-12.4208438239109
1580421549.6042,-80.8422980086975,-63.2028686961166,-12.6039520866711
1580421549.60819,-91.9508659494925,-62.4093995574883,-12.7870603494316
1580421549.61218,-101.655603875792,-60.8224612802319,-12.7260242618447
1580421549.61618,-109.407186999313,-58.9303425650417,-12.4818799114976
1580421549.62017,-114.839398794537,-57.0992599374381,-12.2987716487373
1580421549.62416,-117.891203173877,-54.9629968719005,-11.9935912108033
1580421549.62816,-118.440527962158,-52.8267338063631,-11.8715190356297
1580421549.63215,-117.280842298009,-50.9346150911726,-11.505302510109
1580421549.63614,-114.77836270695,-48.8593881132219,-11.2001220721752
1580421549.64013,-111.055161364157,-46.1738002594034,-10.8949416342411
1580421549.64413,-106.233310444801,-43.4271763179981,-10.2845807583733
1580421549.64812,-100.312809948882,-40.1922636758984,-9.61318379491877
1580421549.65211,-94.0260929274434,-37.0794232089725,-8.51453421835663
1580421549.65611,-87.9224841687646,-33.8445105668727,-7.23277637903402
1580421549.6601,-82.4902723735408,-29.9382009613182,-5.76791027695117
1580421549.66409,-76.8749523155566,-26.0318913557639,-3.93682764934761
1580421549.66809,-70.8934157320516,-22.6749065384909,-1.98367284657047
1580421549.67208,-64.0573739223316,-19.6231021591516,-0.213626306553806
1580421549.67607,-56.1837186236362,-16.7544060425726,1.49538414587619
1580421549.68007,-47.0893415732053,-14.068818188754,3.14335851071951
1580421549.68406,-37.0183871213856,-11.6273746852826,4.42511635004189
1580421549.68805,-26.2760357061111,-9.00282291905091,5.46272983901736
1580421549.69205,-15.5336842908368,-6.74448767833974,6.19516289005878
1580421549.69604,-4.97444113832307,-4.97444113832307,6.56137941557949
1580421549.70003,4.91340505073617,-3.50957503624022,6.86655985351331
1580421549.70403,13.7026016632333,-2.47196154726475,6.92759594110021
1580421549.70802,21.8814373998625,-1.67849240863666,6.92759594110021
1580421549.71201,29.9382009613182,-1.19020370794237,6.92759594110021
1580421549.71603,37.7508201724268,-1.19020370794237,6.92759594110021
1580421549.72003,45.075150682841,-1.49538414587619,7.17174029144735
1580421549.72402,52.2163729304948,-1.9226367589838,7.66002899214163
1580421549.72801,58.747234302281,-2.28885328450451,8.27038986800949
1580421549.73201,64.7287708857866,-2.7771419851988,9.24696726939806
1580421549.736,70.2830548561838,-3.44853894865332,10.1625085831997
1580421549.74,75.1659418631266,-4.18097199969475,11.2001220721752
1580421549.74399,79.4384679942018,-5.34065766384379,12.1766994735638
1580421549.74798,82.9785610742351,-7.23277637903402,13.3363851377126
1580421549.75197,85.3589684901199,-9.55214770733187,14.4960708018616
1580421549.75597,85.8472571908142,-11.9325551232166,15.7167925535973
1580421549.75996,84.6265354390785,-14.4960708018616,16.4492256046387
1580421549.76396,81.2695506218051,-16.8154421301595,16.8764782177461
1580421549.76795,76.3866636148623,-18.646524757763,16.6933699549859
1580421549.77194,70.7103074692914,-19.8062104219118,16.2661173418783
1580421549.77594,64.3625543602657,-20.355535210193,15.5947203784237
1580421549.77993,57.2213321126114,-20.2334630350194,14.8012512397954
1580421549.78392,49.7749294270234,-20.1724269474325,13.7636377508202
1580421549.78792,42.4505989166094,-20.904859998474,12.9091325246052
1580421549.79191,35.0652323186082,-22.1866178377966,12.1766994735638
1580421549.79593,27.8019378957808,-23.8345922026397,11.3832303349354
1580421549.79992,20.6607156481268,-24.8111696040282,10.7728694590676
1580421549.80392,14.4350347142747,-24.3839169909209,10.2845807583733
1580421549.80791,10.5287251087204,-22.4307621881437,10.1625085831997
1580421549.8119,9.91836423285258,-19.0127412832837,10.3456168459602
1580421549.8159,12.5429159990845,-15.1064316777295,10.7118333714809
1580421549.81989,17.1206225680933,-11.6884107728695,10.955977721828
1580421549.82388,22.3086900129701,-9.12489509422448,11.1390859845883
1580421549.82788,27.0084687571525,-6.92759594110021,11.0780498970016
1580421549.83187,30.2433813992523,-4.8523689631495,10.955977721828
1580421549.83586,32.2575722896161,-3.08232242313261,10.4066529335469
1580421549.83986,33.2341496910046,-1.80056458381023,10.0404364080262
1580421549.84385,32.8068970778972,-0.70191500724809,9.24696726939806
1580421549.84784,30.1213092240787,-0.213626306553806,8.45349813076973
1580421549.85184,24.6890974288547,0.396734569314049,7.35484855420759
1580421549.85583,16.9985503929197,1.19020370794237,6.07309071488521
1580421549.85982,8.08728160524902,1.8616006713969,4.91340505073617
1580421549.86382,-0.274662394140478,2.04470893415737,3.63164721141379
1580421549.86781,-7.35484855420759,2.04470893415737,2.47196154726475
1580421549.8718,-12.8480964370183,1.49538414587619,1.55642023346309
1580421549.87582,-17.5478751812009,0.152590218966907,0.640878919661191
1580421549.87982,-22.1866178377966,-1.9226367589838,-0.0305180437933359
1580421549.88381,-27.1305409323261,-4.42511635004189,-0.640878919661191
1580421549.8878,-31.2809948882277,-7.35484855420759,-0.885023270008332
1580421549.8918,-34.2717631799803,-10.5897611963073,-0.51880674448762
1580421549.89579,-35.2483405813689,-13.6415655756466,0.396734569314049
1580421549.89979,-33.6003662165256,-16.083009079118,1.73952849622333
1580421549.90378,-30.1823453116654,-18.0361638818952,3.69268329900046
1580421549.90777,-25.4215304798961,-19.501029983978,5.95101853971164
1580421549.91176,-20.8438239108873,-20.1724269474325,8.6366063935302
1580421549.91576,-17.0595864805066,-20.4776073853666,11.810482948043
1580421549.91975,-13.0312046997788,-20.9658960860609,15.3505760280766
1580421549.92375,-7.59899290455473,-22.4307621881437,19.195849546044
1580421549.92774,-0.70191500724809,-24.8111696040282,22.919050888838
1580421549.93173,4.42511635004189,-26.7643244068054,26.0929274433508
1580421549.93573,3.32646677347975,-26.0318913557639,28.7174792095825
1580421549.93972,-4.66926070038903,-21.210040436408,30.609597924773
1580421549.94371,-17.4258030060273,-10.8949416342411,32.3796444647896
1580421549.94771,-31.4641031509882,4.91340505073617,33.9055466544594
1580421549.9517,-42.7557793545434,25.3604943923094,35.7366292820629
1580421549.95569,-46.9672693980317,48.3100633249405,38.3001449607079
1580421549.95968,-40.9857328145267,69.4895857175557,41.8402380407415
1580421549.96368,-25.6046387426566,84.7486076142523,46.784161135271
1580421549.96767,-6.43930724040592,91.7677576867322,52.8267338063629
1580421549.97166,9.00282291905091,91.7067215991456,59.2965590905619
1580421549.97566,14.9843595025559,86.5796902418556,65.0949874113071
1580421549.97965,9.61318379491877,78.4008545052266,68.6350804913409
1580421549.98364,-5.58480201419093,69.7337300679028,69.4895857175557
1580421549.98764,-26.2149996185244,64.301518272679,68.0247196154728
1580421549.99163,-46.8451972228581,62.4093995574881,65.6443121995881
1580421549.99562,-61.066605630579,62.2873273823147,63.4470130464638
1580421549.99962,-65.9494926375219,61.61593041886,62.3483634699014
1580421550.00361,-62.0431830319676,61.0055695429919,62.2262912947276
1580421550.0076,-53.0098420691234,61.8600747692071,61.8600747692071
1580421550.0116,-42.1454184786755,64.85084306096,60.0289921416033
1580421550.01559,-31.4641031509882,69.062333104448,56.8551155870905
1580421550.01958,-22.3697261005568,72.9686427100023,52.2163729304948
1580421550.02358,-15.228503852903,75.1049057755399,46.6620889600974
1580421550.02757,-10.2235446707866,74.2504005493251,40.7415884641794
1580421550.03156,-6.86655985351331,70.8323796444652,35.3704127565422
1580421550.03555,-4.42511635004189,66.7429617761504,30.3654535744258
1580421550.03955,-2.53299763485165,63.5080491340509,25.5436026550697
1580421550.04354,-1.31227588311594,61.5548943312733,21.4541847867551
1580421550.04753,0.396734569314049,60.7003891050581,18.4634164950025
1580421550.05153,4.18097199969475,60.3341725795376,17.2426947432668
1580421550.05552,10.4066529335469,60.8224612802319,18.0971999694818
1580421550.05951,18.5244525825894,63.0807965209433,20.5996795605402
1580421550.06351,27.0084687571525,68.1467917906466,23.8345922026397
1580421550.0675,35.3093766689553,76.6308079652094,26.9474326695658
1580421550.07149,43.7933928435186,87.6173037308308,28.2902265964751
1580421550.07549,53.4370946822305,99.0310521095598,28.2291905088882
1580421550.07948,63.6911573968109,107.881284809644,27.3746852826732
1580421550.08347,72.297245746548,111.787594415198,26.9474326695658
1580421550.08747,76.5087357900361,110.566872663462,27.4357213702601
1580421550.09146,75.4100862134737,105.561913481346,28.4733348592354
1580421550.09545,69.062333104448,99.3972686350808,29.1447318226901
1580421550.09945,58.5030899519338,93.598840314336,28.5954070344089
1580421550.10344,46.1127641718165,89.3263141832608,26.5201800564582
1580421550.10744,34.3938353551537,86.3965819790951,22.7359426260775
1580421550.11143,25.1163500419623,84.3823910887313,18.4023804074159
1580421550.11542,18.5244525825894,82.4902723735408,14.068818188754
1580421550.11941,13.8246738384069,80.6591897459375,10.4676890211338
1580421550.1234,9.79629205767901,79.0722514686809,8.02624551766235
1580421550.1274,6.86655985351331,78.2787823300528,7.23277637903402
1580421550.13139,5.58480201419093,78.8281071183337,7.72106507972831
1580421550.13539,6.62241550316617,81.2085145342185,9.30800335698473
1580421550.13938,9.79629205767901,84.9317158770123,11.9325551232166
1580421550.14337,14.4960708018616,89.8146028839551,14.9843595025559
1580421550.14736,20.1724269474325,95.1857785915922,18.2803082322423
1580421550.15136,25.9098191805904,100.007629510948,21.6983291371023
1580421550.15535,30.9758144502937,103.608758678569,25.0553139543754
1580421550.15935,34.6379797055008,105.928130006866,28.1071183337147
1580421550.16334,36.7742427710382,107.637140459296,30.7927061875332
1580421550.16733,37.5677119096665,108.918898298619,33.2951857785915
1580421550.17133,37.5677119096665,110.017547875181,35.3093766689553
1580421550.17532,37.3235675593194,110.872053101396,36.530098420691
1580421550.17931,37.3235675593194,111.787594415198,37.384603646906
1580421550.18331,38.1170366979475,113.069352254521,37.6287479972532
1580421550.1873,39.7039749752039,114.59525444419,37.384603646906
1580421550.19129,41.8402380407415,116.060120546273,36.8963149462118
1580421550.19531,43.9154650186922,117.524986648356,35.8587014572365
1580421550.19931,45.1361867704279,119.111924925612,34.5769436179139
1580421550.2033,45.2582589456015,120.454718852522,32.7458609903103
1580421550.20729,44.4037537193865,121.614404516671,30.609597924773
1580421550.21129,42.511635004196,122.285801480125,28.2291905088882
1580421550.21528,39.7650110627908,122.529945830472,25.5436026550697
1580421550.21927,36.2859540703439,122.163729304952,22.919050888838
1580421550.22327,32.1965362020294,121.492332341497,20.4165712977797
1580421550.22726,27.5577935454337,121.187151903563,18.4023804074159
1580421550.23125,22.9800869764247,120.515754940108,16.9985503929197
1580421550.23525,18.1582360570687,120.088502327001,16.0219729915311
1580421550.23924,13.1532768749523,119.905394064241,15.6557564660104
1580421550.24323,8.27038986800949,119.905394064241,15.777828641184
1580421550.24723,4.05889982452118,120.149538414588,16.1440451667047
1580421550.25122,0.457770656900948,120.881971465629,16.7544060425726
1580421550.25521,-1.73952849622333,122.407873655299,17.3037308308537
1580421550.25921,-2.47196154726475,124.483100633249,17.6089112687876
1580421550.2632,-1.80056458381023,126.924544136721,17.7309834439611
1580421550.26719,-0.396734569314049,129.549095902953,17.9140917067216
1580421550.27119,1.61745632104976,132.478828107118,17.792019531548
1580421550.27518,4.30304417486832,134.859235523003,16.8764782177461
1580421550.27917,7.47692072938116,137.300679026474,15.1674677653161
1580421550.28316,11.1390859845883,139.620050354772,11.4442664225223
1580421550.28716,15.228503852903,140.596627756161,10.5287251087204
1580421550.29115,18.0971999694818,143.221179522393,9.06385900663759
1580421550.29514,19.6841382467383,144.014648661021,6.80552376592664
1580421550.29914,19.9893186846723,144.441901274128,4.48615243762879
1580421550.30313,20.050354772259,146.211947814145,-2.7161058976119
1580421550.30712,18.646524757763,146.395056076905,3.99786373693451
1580421550.31112,14.6791790646218,148.59235523003,11.5663385976959
1580421550.31511,11.0780498970016,146.272983901732,13.5805294880597
1580421550.3191,8.94178683146401,143.099107347219,15.0453955901426
1580421550.3231,8.08728160524902,143.526359960326,16.3271534294652
1580421550.32709,7.96520943007545,144.441901274128,17.792019531548
1580421550.33109,8.75867856870377,144.319829098955,19.5620660715647
1580421550.33508,9.55214770733187,143.099107347219,21.5762569619287
1580421550.33907,9.18593118181116,140.962844281682,23.468375677119
1580421550.34307,7.11070420386045,137.850003814755,25.1773861295489
1580421550.34706,2.53299763485165,134.615091172656,26.0929274433508
1580421550.35105,-3.81475547417404,131.258106355383,26.3981078812847
1580421550.35507,-11.9935912108033,128.08422980087,25.9708552681773
1580421550.35906,-21.3321126115816,125.093461509117,25.2994583047225
1580421550.36306,-30.6706340123596,121.43129625391,24.5670252536811
1580421550.36705,-38.3611810482948,117.647058823529,23.773556115053
1580421550.37105,-43.7933928435189,113.618677042802,22.8580148012511
1580421550.37504,-47.0283054856184,109.712367437247,22.1255817502097
1580421550.37903,-48.9204242008088,105.134660868238,21.5762569619287
1580421550.38303,-49.5918211642634,99.7024490730146,21.1490043488211
1580421550.38702,-48.0048828870069,94.3312733653775,21.0269321736475
1580421550.39101,-43.6102845807584,88.9600976577403,20.904859998474
1580421550.39501,-35.7976653696498,83.7720302128637,20.904859998474
1580421550.399,-25.7877470054168,79.133287556268,20.904859998474
1580421550.40299,-14.9843595025559,74.7997253376061,20.5386434729533
1580421550.40699,-3.81475547417404,70.4051270313576,20.2334630350194
1580421550.41098,6.07309071488521,66.010528725109,19.3179217212175
1580421550.41497,15.1064316777295,62.1042191195543,18.4634164950025
1580421550.41897,23.3463035019454,58.9913786526281,17.5478751812009
1580421550.42296,31.1589227130539,56.3668268863962,16.8764782177461
1580421550.42695,38.3001449607079,54.2915999084457,16.2050812542916
1580421550.43095,44.0985732814524,51.911192492561,15.4116121156633
1580421550.43494,48.3710994125277,49.2866407263291,14.4960708018616
1580421550.43893,51.8501564049743,47.089341573205,13.519493400473
1580421550.44292,56.1226825360491,45.0141145952543,12.5429159990845
1580421550.44692,61.4328221560995,42.7557793545432,11.4442664225223
1580421550.45091,67.4753948271918,39.6429388876172,10.2235446707866
1580421550.4549,73.5179674982837,35.4314488441289,8.94178683146401
1580421550.4589,78.4618905928132,30.7927061875332,7.41588464179449
1580421550.46289,81.6357671473261,26.4591439688716,5.58480201419093
1580421550.46688,82.7954528114751,22.4917982757304,3.63164721141379
1580421550.47088,82.185091935607,18.1582360570687,1.49538414587619
1580421550.47487,79.6215762569623,13.0922407873654,-1.12916762035547
1580421550.47886,76.0204470893418,7.66002899214163,-3.99786373693451
1580421550.48286,71.6868848706799,2.41092545967808,-7.23277637903402
1580421550.48685,66.9871061264976,-1.9226367589838,-10.3456168459602
1580421550.49084,61.9821469443805,-5.46272983901736,-13.0922407873654
1580421550.49484,56.2447547112229,-9.12489509422448,-14.923323414969
1580421550.49883,50.4463263904781,-13.7026016632333,-15.8388647287709
1580421550.50283,45.3192950331882,-19.6841382467383,-16.2661173418783
1580421550.50682,42.0843823910886,-26.8863965819789,-16.5712977798123
1580421550.51081,40.5584802014189,-34.5159075303275,-16.8764782177461
1580421550.5148,40.8636606393529,-42.2674906538491,-17.3647669184404
1580421550.51879,42.5726710917829,-50.4463263904784,-17.9751277943083
1580421550.52279,45.1361867704279,-60.0900282291905,-18.4634164950025
1580421550.52678,48.1879911497672,-70.9544518196383,-18.9517051956968
1580421550.53077,50.202182040131,-82.2461280231937,-20.4165712977797
1580421550.53477,49.3476768139162,-92.7443350881208,-22.3697261005568
1580421550.53876,44.6478980697336,-101.350423437858,-24.5670252536811
1580421550.54275,36.530098420691,-108.552681773098,-26.5201800564582
1580421550.54675,26.6422522316318,-117.708094911116,-29.0226596475165
1580421550.55074,16.5712977798123,-130.830853742275,-31.8303196765089
1580421550.55474,7.90417334248878,-146.211947814145,-35.6755931944763
1580421550.55873,1.67849240863666,-161.104753185321,-41.168841077287
1580421550.56272,-2.22781719691761,-173.189898527505,-48.7373159380484
1580421550.56672,-2.89921416037237,-182.223239490349,-58.3199816891738
1580421550.57071,-1.61745632104976,-188.26581216144,-69.3064774547952
1580421550.5747,0.51880674448762,-192.843518730449,-81.0864423590447
1580421550.5787,6.5003433279926,-197.421225299458,-92.9884794384679
1580421550.58269,17.6699473563745,-204.562447547112,-103.425650415808
1580421550.58668,30.9147783627068,-211.886778057526,-111.970702677958
1580421550.59068,45.1972228580146,-216.342412451362,-117.769130998703
1580421550.5947,63.0197604333566,-215.915159838254,-120.149538414588
1580421550.59869,85.2979324025332,-213.90096894789,-118.684672312505
1580421550.60268,110.566872663462,-213.412680247196,-113.496604867628
1580421550.60668,135.896849011978,-213.595788509956,-104.402227817197
1580421550.61067,157.381551842527,-215.182726787213,-92.0119020370794
1580421550.61466,169.161516746776,-215.42687113756,-78.156710154879
1580421550.61866,167.208361943999,-211.398489356832,-64.2404821850919
1580421550.62265,150.850690470741,-205.905241474022,-51.3618677042803
1580421550.62664,125.825894560159,-203.402761882963,-39.3377584496834
1580421550.63064,101.716639963378,-205.539024948501,-28.2291905088882
1580421550.63463,86.152437628748,-208.224612802319,-17.9140917067216
1580421550.63862,79.8046845197223,-207.492179751278,-7.96520943007545
1580421550.64262,77.3022049286642,-205.416952773327,1.9226367589838
1580421550.64661,72.6024261844818,-203.830014496071,12.5429159990845
1580421550.6506,62.4704356450748,-204.257267109178,23.3463035019454
1580421550.6546,47.1503776607917,-206.88181887541,33.1120775158311
1580421550.65859,29.5109483482108,-209.750514991989,40.6195162890058
1580421550.66259,13.519493400473,-209.628442816815,44.2816815442129
1580421550.66658,2.53299763485165,-205.661097123674,43.3051041428243
1580421550.67057,-2.34988937209118,-199.435416189822,38.4222171358815
1580421550.67456,-2.59403372243833,-192.538338292515,31.7082475013351
1580421550.67855,-0.274662394140478,-186.678873884184,25.5436026550697
1580421550.68255,2.53299763485165,-182.711528191043,21.9424734874494
1580421550.68654,6.31723506523235,-180.025940337224,20.5996795605402
1580421550.69053,10.8339055466545,-177.584496833753,21.210040436408
1580421550.69453,15.6557564660104,-175.387197680629,23.0411230640116
1580421550.69852,20.355535210193,-173.800259403372,24.8722056916151
1580421550.70251,23.7125200274661,-172.88471808957,25.7267109178301
1580421550.70651,25.7877470054168,-172.579537651637,25.3604943923094
1580421550.7105,27.4357213702601,-172.823682001984,23.3463035019454
1580421550.71449,29.1447318226901,-173.067826352331,20.1113908598459
1580421550.71849,31.9523918516823,-172.762645914397,15.8999008163576
1580421550.72248,35.9807736324101,-172.213321126116,11.0780498970016
1580421550.72648,40.1312275883115,-171.114671549554,6.01205462729831
1580421550.73047,44.1596093690393,-169.405661097124,1.25123979552905
1580421550.73446,46.7231250476843,-167.208361944,-3.14335851071951
1580421550.73846,47.638666361486,-164.766918440528,-6.92759594110021
1580421550.74245,46.6620889600974,-162.569619287404,-9.91836423285258
1580421550.74644,43.9765011062789,-160.7385366598,-11.9935912108033
1580421550.75044,40.2532997634851,-159.151598382544,-13.4584573128861
1580421550.75442,35.7976653696496,-157.808804455635,-14.3129625391011
1580421550.75842,30.7316700999465,-156.466010528725,-14.6791790646218
1580421550.76241,24.9942778667887,-155.489433127336,-14.2519264515145
1580421550.7664,17.9140917067216,-154.695963988708,-13.6415655756466
1580421550.7704,9.24696726939806,-154.390783550774,-12.8480964370183
1580421550.77439,-1.0070954451819,-153.90249485008,-12.1766994735638
1580421550.77839,-12.9091325246052,-152.620737010757,-12.0546272983902
1580421550.78238,-26.0929274433508,-149.996185244526,-12.2987716487373
1580421550.78637,-40.1312275883117,-146.028839551385,-12.4818799114976
1580421550.79037,-55.0240329594874,-140.779736018921,-12.7870603494316
1580421550.79436,-69.916838330663,-134.493018997482,-13.0922407873654
1580421550.79835,-85.0537880521858,-127.290760662242,-12.9701686121919
1580421550.80235,-100.617990386816,-119.600213626307,-12.4208438239109
1580421550.80634,-117.097734035248,-111.787594415198,-11.5663385976959
1580421550.81033,-133.943694209201,-103.913939116503,-10.2845807583733
1580421550.81433,-151.522087434195,-96.5285725185017,-8.6366063935302
1580421550.81832,-169.344625009537,-89.570458533608,-7.17174029144735
1580421550.82231,-186.678873884184,-83.1006332494087,-5.82894636453807
1580421550.82631,-203.46379797055,-77.1190966659037,-4.97444113832307
1580421550.8303,-218.905928130007,-71.6868848706797,-4.60822461280236
1580421550.83432,-232.822156099794,-66.7429617761502,-4.30304417486832
1580421550.83831,-244.968337529564,-62.4704356450752,-4.48615243762879
1580421550.84231,-254.795147631037,-58.6861982146945,-4.91340505073617
1580421550.8463,-261.509117265583,-55.0850690470741,-5.40169375143046
1580421550.85029,-264.316777294575,-51.8501564049745,-5.03547722590974
1580421550.85429,-261.57015335317,-49.2866407263296,-2.83817807278547
1580421550.85828,-251.865415426871,-47.0283054856184,0.51880674448762
1580421550.86227,-234.653238727398,-43.8544289311055,5.03547722590974
1580421550.86627,-209.750514991989,-38.8494697489891,10.1014724956131
1580421550.87026,-177.8286411841,-32.0134279392691,15.2895399404897
1580421550.87425,-140.779736018921,-22.0035095750361,20.6607156481268
1580421550.87825,-100.862134737163,-7.41588464179449,26.1539635309375
1580421550.88224,-60.4562447547112,10.5897611963073,31.8913557640954
1580421550.88623,-22.3086900129701,30.1823453116654,37.384603646906
1580421550.89023,13.519493400473,49.2256046387424,42.9388876173036
1580421550.89422,48.3710994125277,66.4377813382166,48.5542076752877
1580421550.89822,84.0161745632108,80.9033340962847,54.4747081712062
1580421550.90221,120.088502327001,89.9366750591289,60.6393530174714
1580421550.9062,154.512855725948,93.2326237888151,67.0481422140842
1580421550.9102,184.481574731059,93.5378042267494,73.0296787975894
1580421550.91418,208.285648889906,93.8429846646832,78.3398184176394
1580421550.91818,226.169222552835,93.9650568398565,83.1006332494089
1580421550.92217,239.780270084688,94.0260929274436,86.3965819790951
1580421550.92616,250.217441062028,92.0729381246665,88.7159533073932
1580421550.93016,255.344472419318,85.1148241397727,90.1197833218894
1580421550.93415,250.156404974441,75.3490501258871,90.2418554970627
1580421550.93814,229.221026932174,70.2220187685971,88.4107728694594
1580421550.94214,189.303425650416,75.2880140383004,84.260318913558
1580421550.94613,130.464637216754,85.2979324025332,78.0956740672923
1580421550.95013,58.6861982146943,89.2652780956741,70.3440909437709
1580421550.95412,-13.3363851377126,80.7812619211109,62.7756160830095
1580421550.95811,-74.6166170748454,61.3717860685128,56.1226825360491
1580421550.96211,-118.01327534905,36.0418097199968,50.3852903028915
1580421550.9661,-142.12252994583,9.79629205767901,44.5868619821467
1580421550.97009,-149.813076981765,-12.359807736324,37.9339284351872
1580421550.97409,-146.639200427252,-26.2149996185244,29.5109483482108
1580421550.97808,-136.202029449912,-30.9147783627068,19.8062104219118
1580421550.98207,-121.43129625391,-28.2291905088882,9.85732814526591
1580421550.98607,-105.012588693065,-23.1631952391851,0.579842832074519
1580421550.99006,-89.2042420080872,-20.5386434729533,-7.17174029144735
1580421550.99408,-75.898374914168,-22.613870450904,-13.3974212252995
1580421550.99807,-64.7898069733731,-29.5719844357975,-18.4634164950025
1580421551.00207,-55.2071412222476,-39.8870832379646,-22.6749065384909
1580421551.00606,-45.5024032959489,-51.4839398794538,-26.5201800564582
1580421551.01005,-34.2717631799803,-64.5456626230259,-29.6940566109711
1580421551.01405,-20.050354772259,-79.9877927824825,-31.9523918516825
1580421551.01804,-2.7771419851988,-94.6364538033113,-32.5627527275503
1580421551.02203,16.3271534294652,-104.585336079957,-31.769283588922
1580421551.02603,36.0418097199968,-103.364614328222,-30.7316700999465
1580421551.03002,51.7280842298005,-87.1290150301365,-30.5485618371861
1580421551.03401,60.3952086671243,-59.6017395284962,-29.6330205233844
1580421551.03801,59.7848477912562,-20.050354772259,-25.2384222171358
1580421551.042,46.5400167849239,31.464103150988,-14.1908903639276
1580421551.04599,29.9382009613182,90.180819409476,4.36408026245522
1580421551.04999,28.1681544213016,144.197756923781,29.5719844357975
1580421551.05398,52.0332646677348,176.180666819257,59.9679560540167
1580421551.05797,97.8103303578241,174.77683680476,93.4767681391622
1580421551.06197,147.310597390707,142.854962996872,128.023193713283
1580421551.06596,171.17570763714,99.7024490730146,159.151598382543
1580421551.06996,142.061493858243,63.4470130464638,177.8286411841
1580421551.07394,55.8175020981153,37.3235675593194,173.434042877851
1580421551.07794,-54.1084916456855,20.355535210193,141.329060807202
1580421551.08193,-139.620050354772,16.8764782177461,91.4015411612118
1580421551.08592,-187.106126497292,28.046082246128,51.7891203173876
1580421551.08992,-199.008163576715,42.3285267414358,31.1589227130539
1580421551.09391,-181.979095140002,32.6848249027237,27.2526131074997
1580421551.0979,-158.480201419089,5.46272983901736,27.9850461585411
1580421551.1019,-141.634241245136,-13.3974212252995,23.773556115053
1580421551.10589,-138.216220340276,-18.0971999694818,12.9701686121919
1580421551.10988,-149.752040894179,-16.0219729915311,-3.50957503624022
1580421551.11388,-167.940794995041,-11.8715190356297,-23.4073395895323
1580421551.11787,-182.528419928283,-4.18097199969475,-43.4271763179981
1580421551.12187,-185.458152132448,6.92759594110021,-60.5783169298847
1580421551.12586,-172.51850156405,16.5102616922254,-73.7621118486304
1580421551.12985,-143.282215609979,22.1255817502097,-82.8564888990616
1580421551.13385,-100.434882124056,24.322880903334,-87.006942854963
1580421551.13784,-48.6152437628748,25.5436026550697,-86.0303654535744
1580421551.14183,3.63164721141379,30.1823453116654,-79.6826123445487
1580421551.14583,48.0048828870067,41.1688410772867,-68.2688639658197
1580421551.14982,77.607385366598,58.8693064774548,-53.4981307698176
1580421551.15381,92.5612268253608,79.9877927824828,-38.3001449607082
1580421551.1578,99.6414129854279,101.899748226139,-23.2242313267718
1580421551.16179,107.392996108949,122.652018005646,-7.59899290455473
1580421551.16579,119.783321889067,140.474555580987,8.69764248111687
1580421551.16978,131.868467231251,150.30136568246,26.1539635309375
1580421551.17378,131.807431143664,148.226138704509,45.6244754711222
1580421551.17777,114.473182269016,137.972075989929,66.3767452506295
1580421551.18176,88.4107728694594,125.825894560159,84.6875715266651
1580421551.18576,63.2639047837038,115.632867933165,95.9182116426337
1580421551.18975,42.0843823910886,110.566872663462,98.2986190585184
1580421551.19374,24.4449530785075,110.566872663462,93.9040207522698
1580421551.19774,7.72106507972831,112.336919203479,85.9082932784008
1580421551.20173,-6.13412680247188,112.825207904174,76.8139162279699
1580421551.20572,-16.632333867399,110.688944838636,68.0247196154728
1580421551.20972,-26.8863965819789,106.233310444801,59.6017395284962
1580421551.21371,-36.5300984206913,101.716639963378,52.3384451056686
1580421551.2177,-44.037537193866,99.275196459907,46.6010528725108
1580421551.2217,-47.1503776607919,99.3972686350808,42.9999237048903
1580421551.22569,-45.2582589456017,102.876325627527,40.6805523765925
1580421551.22968,-38.4832532234684,108.796826123445,38.9105058365758
1580421551.2337,-27.9240100709544,116.670481422141,36.4690623331044
1580421551.2377,-14.9843595025559,125.459678034638,33.1120775158311
1580421551.24169,-0.885023270008332,133.638513771267,28.8395513847561
1580421551.24568,13.0312046997788,139.742122529946,23.5904478522925
1580421551.24968,25.9098191805904,144.014648661021,17.8530556191347
1580421551.25367,37.5066758220796,146.578164339666,11.9325551232166
1580421551.25766,48.3710994125277,148.348210879682,6.62241550316617
1580421551.26166,58.0148012512395,149.629968719005,2.47196154726475
1580421551.26565,65.9494926375223,150.240329594873,-0.091554131380235
1580421551.26964,71.3817044327461,149.813076981765,-0.51880674448762
1580421551.27364,73.7010757610437,149.385824368658,0.885023270008332
1580421551.27763,72.7855344472423,148.836499580377,3.93682764934761
1580421551.28163,69.4895857175557,148.958571755551,8.14831769283592
1580421551.28562,64.2404821850923,148.958571755551,13.5805294880597
1580421551.28961,58.197909514,149.141680018311,19.5620660715647
1580421551.29361,52.5825894560157,149.141680018311,25.8487830930037
1580421551.2976,47.5165941863124,149.141680018311,31.3420309758144
1580421551.30159,42.3285267414358,148.77546349279,35.3093766689553
1580421551.30559,37.1404592965589,147.920958266575,37.9339284351872
1580421551.30958,32.4406805523765,147.493705653468,32.8068970778972
1580421551.31357,29.0226596475165,146.517128252079,16.4492256046387
1580421551.31756,29.3278400854504,143.099107347219,-11.6273746852826
1580421551.32155,22.6749065384909,146.639200427252,14.1908903639276
1580421551.32555,14.0077821011673,159.578850995651,30.2433813992523
1580421551.32954,6.86655985351331,153.231097886625,32.9900053406575
1580421551.33353,3.26543068589308,146.944380865186,32.0134279392689
1580421551.33753,1.98367284657047,148.104066529335,29.755092698558
1580421551.34152,1.49538414587619,150.850690470741,27.0084687571525
1580421551.34552,1.49538414587619,150.850690470741,22.9800869764247
1580421551.34951,1.67849240863666,148.348210879682,18.4023804074159
1580421551.3535,1.55642023346309,145.17433432517,13.8246738384069
1580421551.3575,1.43434805828952,141.084916456855,9.91836423285258
1580421551.36149,1.43434805828952,137.666895551995,6.56137941557949
1580421551.36548,2.7161058976119,135.896849011978,4.30304417486832
1580421551.36948,6.43930724040592,134.676127260243,3.14335851071951
1580421551.37347,12.1766994735638,133.333333333333,3.38750286106665
1580421551.37746,17.4258030060273,132.295719844358,5.34065766384379
1580421551.38146,21.3321126115816,132.539864194705,8.45349813076973
1580421551.38545,23.2852674143587,133.821622034028,12.7260242618447
1580421551.38944,23.9566643778132,135.347524223697,17.7309834439611
1580421551.39343,24.0177004654001,136.140993362325,23.2852674143587
1580421551.39743,23.2852674143587,135.835812924392,28.9616235599296
1580421551.40142,21.3321126115816,134.370946822309,34.3938353551537
1580421551.40541,18.4023804074159,131.746395056077,38.9105058365758
1580421551.40941,14.373998626688,128.206301976044,42.2674906538489
1580421551.4134,9.18593118181116,124.177920195315,44.4037537193865
1580421551.41739,3.63164721141379,119.72228580148,45.3192950331882
1580421551.42139,-1.31227588311594,115.449759670405,45.0141145952543
1580421551.42538,-4.42511635004189,111.482413977264,43.5492484931715
1580421551.42937,-5.03547722590974,107.881284809644,41.1688410772867
1580421551.43337,-2.59403372243833,104.402227817197,38.1780727855344
1580421551.43736,2.7161058976119,100.373846036469,34.3938353551537
1580421551.44135,10.1014724956131,95.6130312046998,29.9992370489051
1580421551.44535,19.7451743343252,90.1197833218894,24.8111696040282
1580421551.44934,30.609597924773,83.6499580376899,19.1348134584573
1580421551.45334,41.0467689021132,76.264591439689,13.2753490501259
1580421551.45733,48.8593881132219,68.5130083161671,7.84313725490188
1580421551.46132,52.8267338063629,60.8224612802319,3.50957503624022
1580421551.46531,53.7422751201648,53.8033112077514,0.396734569314049
1580421551.46931,52.9488059815362,47.8828107118331,-1.37331197070262
1580421551.47333,51.7280842298005,42.511635004196,-1.80056458381023
1580421551.47732,50.5073624780648,37.6287479972532,-1.49538414587619
1580421551.48131,49.042496375982,33.2951857785915,-0.70191500724809
1580421551.48531,47.6997024490729,29.6940566109711,0.213626306553806
1580421551.4893,46.5400167849239,26.5812161440451,1.0070954451819
1580421551.49329,46.0517280842296,23.5294117647059,1.73952849622333
1580421551.49729,46.7231250476843,19.6841382467383,2.04470893415737
1580421551.50128,49.5307850766762,14.923323414969,1.9226367589838
1580421551.50528,53.9864194705119,10.1625085831997,0.823987182421661
1580421551.50927,58.9913786526281,5.88998245212474,-0.946059357595232
1580421551.51326,63.3249408712904,1.73952849622333,-3.14335851071951
1580421551.51726,65.461203936828,-3.14335851071951,-5.40169375143046
1580421551.52125,65.1560234988938,-9.36903944457163,-7.23277637903402
1580421551.52524,62.8976882581828,-16.6933699549859,-9.00282291905091
1580421551.52924,59.2965590905619,-24.2008087281604,-10.7118333714809
1580421551.53323,55.8785381857019,-31.6472114137484,-12.664988174258
1580421551.53722,54.1084916456853,-38.7273975738156,-14.923323414969
1580421551.54122,53.8033112077514,-46.0517280842298,-17.4258030060273
1580421551.54521,53.6812390325777,-53.6812390325781,-20.6607156481268
1580421551.5492,52.2163729304948,-60.5172808422981,-24.4449530785075
1580421551.55319,50.0801098649576,-67.7805752651254,-28.7174792095825
1580421551.55718,49.1035324635691,-77.4242771038375,-32.9900053406577
1580421551.56118,49.1035324635691,-89.5094224460211,-37.0183871213856
1580421551.56517,47.5776302738993,-100.92317082475,-41.0467689021134
1580421551.56917,42.3285267414358,-110.505836575875,-45.3192950331884
1580421551.57316,35.0041962310215,-117.64705882353,-49.7749294270238
1580421551.57715,27.8629739833675,-125.154497596704,-54.4747081712062
1580421551.58115,22.1866178377966,-134.493018997482,-59.2355230029755
1580421551.58514,17.9140917067216,-143.587396047913,-63.8742656595712
1580421551.58913,14.6791790646218,-151.216906996262,-68.8181887541009
1580421551.59313,11.3832303349354,-158.968490119783,-74.0672922865645
1580421551.59712,6.74448767833974,-167.269398031586,-79.865720607309
1580421551.60111,1.43434805828952,-176.241702906844,-85.6031128404668
1580421551.60511,-0.274662394140478,-185.091935606928,-90.9132524605172
1580421551.6091,5.82894636453807,-192.782482642863,-95.1247425040056
1580421551.61309,19.8672465094987,-199.740596627756,-97.6272220950639
1580421551.61709,40.0091554131379,-204.98970016022,-98.3596551461053
1580421551.62108,63.9353017471581,-207.06492713817,-97.6882581826505
1580421551.62507,91.6456855115589,-207.553215838865,-95.4299229419396
1580421551.62907,120.698863202869,-205.966277561608,-91.5236133363851
1580421551.63309,146.822308690013,-205.294880598154,-85.9082932784008
1580421551.63708,165.011062790875,-205.844205386435,-77.9125658045318
1580421551.64107,170.687418936446,-206.515602349889,-67.6585030899519
1580421551.64507,160.433356221866,-203.830014496071,-55.9395742732891
1580421551.64906,132.295719844358,-200.839246204318,-44.037537193866
1580421551.65305,88.8380254825665,-201.083390554665,-32.8068970778975
1580421551.65705,37.4456397344929,-206.942854962997,-22.5528343633173
1580421551.66104,-9.24696726939806,-217.746242465858,-12.6039520866711
1580421551.66504,-41.9012741283284,-228.91584649424,-3.75371938658736
1580421551.66903,-58.4420538643474,-235.812924391547,3.26543068589308
1580421551.67302,-61.4328221560997,-237.399862668803,9.12489509422448
1580421551.67701,-55.3292133974212,-236.911573968109,15.2895399404897
1580421551.68101,-45.3803311207753,-235.385671778439,21.759365224689
1580421551.685,-36.5300984206913,-233.615625238422,26.7032883192187
1580421551.689,-30.4875257495994,-230.80796520943,28.5954070344089
1580421551.69299,-26.337071793698,-224.582284275578,26.5201800564582
1580421551.69698,-21.3931486991683,-215.671015487907,21.5152208743418
1580421551.70098,-13.8857099259938,-206.515602349889,15.6557564660104
1580421551.70497,-4.97444113832307,-199.069199664302,11.2001220721752
1580421551.70896,4.11993591210808,-193.698023956664,8.94178683146401
1580421551.71295,12.664988174258,-189.059281300069,10.2235446707866
1580421551.71694,20.2334630350194,-184.66468299382,14.2519264515145
1580421551.72094,25.8487830930037,-180.819409475853,19.6231021591516
1580421551.72493,27.4357213702601,-178.133821622034,25.2994583047225
1580421551.72892,24.628061341268,-177.523460746166,29.755092698558
1580421551.73292,18.8296330205233,-178.744182497902,32.2575722896161
1580421551.73691,12.5429159990845,-179.964904249638,32.6848249027237
1580421551.74091,8.75867856870377,-180.636301213092,31.2199588006408
1580421551.7449,9.73525597009234,-180.086976424811,28.5954070344089
1580421551.74889,16.0219729915311,-178.561074235142,24.7501335164416
1580421551.75289,26.8253604943923,-175.448233768215,19.9282825970854
1580421551.75688,39.948119325551,-171.114671549554,15.228503852903
1580421551.76087,53.620202944991,-166.353856717785,10.4066529335469
1580421551.76487,66.1326009002823,-160.921644922561,5.7068741893645
1580421551.76886,76.3866636148623,-155.489433127336,1.61745632104976
1580421551.77285,84.0772106507975,-150.545510032807,-1.55642023346309
1580421551.77685,88.5938811322194,-146.456092164492,-3.44853894865332
1580421551.78084,90.2418554970627,-142.915999084459,-4.7913328755626
1580421551.78483,88.7769893949799,-139.986266880293,-5.21858548867021
1580421551.78883,83.9551384756237,-137.117570763714,-6.19516289005878
1580421551.79282,76.0814831769285,-134.798199435416,-7.47692072938116
1580421551.79681,64.85084306096,-133.089188982986,-7.96520943007545
1580421551.8008,50.6904707408253,-131.50225070573,-7.66002899214163
1580421551.8048,34.2107270923932,-130.037384603647,-7.11070420386045
1580421551.80879,16.5102616922254,-128.26733806363,-6.13412680247188
1580421551.81278,-1.9226367589838,-126.009002822919,-4.73029678797593
1580421551.81678,-20.050354772259,-122.774090180819,-3.08232242313261
1580421551.82077,-37.4456397344932,-118.257419699397,-1.61745632104976
1580421551.82476,-54.3526359960326,-112.458991378653,-0.091554131380235
1580421551.82876,-70.9544518196383,-105.561913481346,1.0070954451819
1580421551.83275,-87.7393759060044,-98.2986190585184,1.73952849622333
1580421551.83674,-105.439841306172,-90.6080720225832,2.7161058976119
1580421551.84074,-123.689631494621,-82.1850919356068,4.42511635004189
1580421551.84473,-142.183566033417,-74.189364461738,6.37827115281902
1580421551.84872,-160.799572747387,-67.4143587396047,9.00282291905091
1580421551.85272,-179.964904249638,-61.3107499809262,11.5663385976959
1580421551.85671,-199.618524452583,-54.1695277332724,13.519493400473
1580421551.8607,-221.713588158999,-45.5024032959489,14.1298542763409
1580421551.8647,-250.705729762722,-35.9807736324103,12.2987716487373
1580421551.86869,-294.346532387274,-28.7174792095825,4.30304417486832
1580421551.87271,-357.946135652705,-28.1071183337147,-9.30800335698473
1580421551.8767,-433.203631647212,-35.6755931944763,-17.9751277943083
1580421551.8807,-492.408636606394,-37.6897840848403,-21.0269321736475
1580421551.88469,-509.498741130694,-20.2944991226061,-23.0411230640116
1580421551.88868,-477.576867322805,9.97940032043948,-26.0318913557639
1580421551.89268,-400.610360875868,41.1688410772867,-30.2433813992523
1580421551.89667,-290.62333104448,66.1326009002823,-32.3796444647899
1580421551.90067,-168.551155870909,82.551308461128,-29.8161287861446
1580421551.90466,-56.3057907988098,92.3170824750136,-22.1866178377966
1580421551.90865,33.4172579537651,98.2375829709317,-11.0170138094147
1580421551.91265,100.92317082475,102.815289539941,3.02128633554594
1580421551.91664,154.512855725948,105.561913481346,19.195849546044
1580421551.92063,202.792401007096,105.561913481346,36.8963149462118
1580421551.92463,249.790188448921,100.984206912337,54.8409246967267
1580421551.92862,292.942702372778,90.1197833218894,71.3817044327461
1580421551.93261,324.498359655146,74.006256198978,84.8096437018389
1580421551.93661,334.8744945449,57.2213321126114,93.4767681391622
1580421551.9406,317.96749828336,47.089341573205,96.4675364309151
1580421551.94459,274.204623483635,49.7749294270234,93.1105516136417
1580421551.94859,210.238803692684,66.9871061264976,84.0161745632108
1580421551.95257,131.50225070573,91.0353246356908,72.480354009308
1580421551.95657,44.0375371938658,106.477454795148,62.7145799954224
1580421551.96056,-37.9339284351875,104.524299992371,58.0148012512395
1580421551.96456,-99.275196459907,87.0069428549632,59.2965590905619
1580421551.96855,-129.304951552605,64.3625543602657,65.7663843747619
1580421551.97254,-123.14030670634,47.2724498359653,75.1049057755399
1580421551.97654,-85.8472571908139,38.239108873121,85.7862211032275
1580421551.98053,-33.2951857785918,33.7224383916989,97.2610055695432
1580421551.98452,17.9140917067216,29.6940566109711,108.430609597925
1580421551.98852,57.8316929884791,28.2291905088882,116.243228809034
1580421551.99251,80.4150453955904,33.7224383916989,119.233997100786
1580421551.9965,85.0537880521861,46.3569085221636,116.792553597315
1580421552.0005,73.7010757610437,63.752193484398,110.139620050355
1580421552.00449,51.911192492561,78.9501792935075,100.129701686122
1580421552.00848,25.6046387426566,86.0303654535746,87.4952315556575
1580421552.01248,0.335698481727377,83.3447775997561,72.6634622720685
1580421552.01647,-20.1724269474325,72.9686427100023,55.8175020981153
1580421552.02046,-34.2107270923934,58.3199816891733,37.2625314717325
1580421552.02446,-41.9623102159153,40.9246967269396,17.9140917067216
1580421552.02845,-44.6478980697339,20.7217517357137,-0.640878919661191
1580421552.03247,-44.1596093690396,-1.9226367589838,-17.1816586556802
1580421552.03646,-42.5726710917831,-24.9332417792018,-30.7316700999465
1580421552.04046,-40.9246967269398,-45.1361867704281,-40.8026245517663
1580421552.04445,-40.8026245517663,-59.4796673533226,-47.0893415732053
1580421552.04844,-44.037537193866,-65.4001678492409,-50.2021820401312
1580421552.05244,-51.5449759670405,-62.6535439078355,-50.4463263904784
1580421552.05643,-60.7614251926452,-53.9864194705119,-47.8828107118334
1580421552.06043,-66.193636987869,-40.3753719386589,-43.183031967651
1580421552.06442,-63.3249408712902,-19.9282825970854,-36.9573510337989
1580421552.06841,-50.019073777371,2.65506981002522,-28.6564431219958
1580421552.0724,-28.900587472343,23.3463035019454,-18.5854886701761
1580421552.0764,-6.01205462729831,39.2156862745096,-6.43930724040592
1580421552.08039,11.2001220721752,53.7422751201648,6.80552376592664
1580421552.08439,18.8296330205233,68.6350804913409,19.8672465094987
1580421552.08838,16.8764782177461,79.5605401693751,32.318608377203
1580421552.09237,11.505302510109,81.8188754100865,44.4037537193865
1580421552.09637,11.2611581597619,75.2880140383004,57.038223849851
1580421552.10036,14.373998626688,63.5690852216376,71.1985961699856
1580421552.10435,12.4818799114976,50.9346150911724,85.1758602273594
1580421552.10835,2.16678110933094,38.7884336614022,97.3830777447165
1580421552.11233,-14.068818188754,27.6798657206073,105.806057831693
1580421552.11633,-31.8913557640956,17.2426947432668,109.407186999314
1580421552.12032,-49.164568551156,7.90417334248878,106.294346532387
1580421552.12432,-65.5832761120012,-1.31227588311594,95.7351033798736
1580421552.12831,-81.2695506218051,-11.6273746852826,78.7060349431604
1580421552.1323,-97.5051499198903,-20.1113908598459,57.8927290760662
1580421552.1363,-117.036697947662,-23.773556115053,36.4080262455175
1580421552.14029,-139.681086442359,-21.8814373998625,15.5336842908368
1580421552.14428,-160.494392309453,-15.228503852903,-4.91340505073617
1580421552.14828,-172.33539330129,-6.01205462729831,-24.5670252536811
1580421552.15227,-166.292820630198,4.8523689631495,-42.5116350041963
1580421552.15626,-137.422751201648,17.7309834439611,-56.4278629739833
1580421552.16026,-87.861448081178,30.9147783627068,-64.9118791485466
1580421552.16425,-25.4215304798961,41.4129854276339,-67.7805752651254
1580421552.16824,40.1922636758982,48.6152437628748,-65.2780956740673
1580421552.17224,99.1531242847336,55.1461051346605,-58.9303425650417
1580421552.17623,143.709468223087,63.6911573968109,-51.2397955291067
1580421552.18022,169.832913710231,75.5931944762342,-44.6478980697339
1580421552.18422,179.842832074464,91.7677576867322,-40.314335851072
1580421552.18821,183.199816891737,111.543450064851,-37.750820172427
1580421552.1922,192.233157854582,132.845044632639,-35.7976653696498
1580421552.19619,210.11673151751,151.155870908675,-32.6848249027239
1580421552.20019,223.300526436255,159.090562294957,-26.2149996185244
1580421552.20418,205.905241474022,147.615777828641,-11.4442664225223
1580421552.20817,147.310597390707,122.590981918059,13.6415655756466
1580421552.21217,70.4051270313576,99.2141603723203,40.7415884641794
1580421552.21616,10.4066529335469,88.8380254825665,56.9771877622643
1580421552.22015,-16.2661173418783,90.3639276722365,58.8082703898676
1580421552.22415,-24.1397726405737,96.1013199053941,52.2774090180819
1580421552.22814,-28.4733348592354,96.9558251316093,45.6855115587089
1580421552.23213,-35.0652323186084,91.9508659494927,40.6195162890058
1580421552.23613,-47.0283054856184,85.4810406652937,35.7976653696496
1580421552.24012,-61.1886778057526,81.5136949721523,31.7692835889218
1580421552.24411,-73.4569314106966,81.6968032349127,29.5109483482108
1580421552.24811,-81.0864423590447,84.3823910887313,29.1447318226901
1580421552.2521,-83.1616693369954,88.4718089570461,30.0602731364918
1580421552.2561,-80.5981536583504,93.0495155260551,31.5251392385746
1580421552.26009,-75.043869687953,97.9934386205846,33.0510414282444
1580421552.26408,-67.2312504768445,103.242542153048,34.027618829633
1580421552.26808,-57.5875486381324,108.369573510338,34.6990157930875
1580421552.27209,-46.9672693980317,113.679713130388,34.6990157930875
1580421552.27609,-36.4690623331046,119.111924925612,34.2717631799801
1580421552.28008,-26.0929274433508,124.299992370489,33.2951857785915
1580421552.28408,-15.9609369039445,129.121843289845,31.464103150988
1580421552.28807,-5.82894636453807,133.455405508507,28.9616235599296
1580421552.29206,4.7913328755626,137.117570763714,26.0318913557639
1580421552.29605,15.8388647287709,140.23041123064,22.4917982757304
1580421552.30005,26.0929274433508,142.610818646525,18.8906691081102
1580421552.30404,34.5159075303272,144.441901274128,15.4726482032502
1580421552.30804,40.0701915007246,144.991226062409,12.6039520866711
1580421552.31203,42.6947432669565,144.197756923781,10.7118333714809
1580421552.31602,43.3051041428243,142.977035172045,9.18593118181116
1580421552.32002,43.0609597924772,141.93942168307,8.75867856870377
1580421552.32401,42.5726710917829,141.145952544442,6.37827115281902
1580421552.328,42.4505989166094,140.23041123064,1.43434805828952
1580421552.332,43.7933928435186,139.681086442359,-8.88075074387734
1580421552.33599,48.1879911497672,138.277256427863,-31.8303196765089
1580421552.33998,44.1596093690393,140.962844281682,-2.7161058976119
1580421552.34398,36.8963149462118,152.498664835584,15.3505760280766
1580421552.34797,31.1589227130539,148.470283054856,23.773556115053
1580421552.35199,27.7409018081939,145.784695201038,25.8487830930037
1580421552.35598,26.6422522316318,148.287174792096,27.5577935454337
1580421552.35998,27.0695048447394,153.047989623865,27.9850461585411
1580421552.36397,28.1681544213016,155.61150530251,27.4357213702601
1580421552.36796,28.5954070344089,156.832227054246,26.0318913557639
1580421552.37196,27.5577935454337,156.771190966659,24.628061341268
1580421552.37595,25.1773861295489,156.038757915618,22.4917982757304
1580421552.37994,21.4541847867551,154.024567025253,19.9893186846723
1580421552.38394,16.8764782177461,152.315556572823,17.4258030060273
1580421552.38793,12.1156633859769,149.935149156939,14.6791790646218
1580421552.39192,7.59899290455473,146.395056076905,12.359807736324
1580421552.39592,4.05889982452118,141.878385595483,10.2235446707866
1580421552.39991,1.43434805828952,137.178606851301,8.51453421835663
1580421552.4039,-0.091554131380235,133.028152895399,6.92759594110021
1580421552.4079,-0.640878919661191,130.342565041581,5.76791027695117
1580421552.41189,0.091554131380235,128.816662851911,4.91340505073617
1580421552.41589,1.55642023346309,127.779049362936,4.48615243762879
1580421552.41988,3.14335851071951,127.229724574655,4.73029678797593
1580421552.42387,4.30304417486832,126.741435873961,5.58480201419093
1580421552.42787,4.7913328755626,126.497291523614,6.86655985351331
1580421552.43185,3.93682764934761,126.009002822919,8.75867856870377
1580421552.43585,2.28885328450451,125.459678034638,11.0780498970016
1580421552.43984,-0.152590218966907,124.605172808423,13.7636377508202
1580421552.44383,-2.89921416037237,123.14030670634,16.5102616922254
1580421552.44783,-5.88998245212474,121.24818799115,19.195849546044
1580421552.45182,-8.94178683146401,119.295033188373,21.759365224689
1580421552.45581,-11.9325551232166,117.158770122835,24.0177004654001
1580421552.45981,-14.068818188754,114.41214618143,25.7267109178301
1580421552.4638,-14.8012512397954,111.055161364156,26.9474326695658
1580421552.46779,-13.9467460135804,107.392996108949,27.3746852826732
1580421552.47179,-11.5663385976959,103.852903028916,27.191577019913
1580421552.47578,-7.23277637903402,100.129701686122,25.9708552681773
1580421552.47978,-0.70191500724809,96.1623559929808,24.0787365529868
1580421552.48377,7.96520943007545,92.0119020370794,21.8204013122759
1580421552.48776,18.1582360570687,87.0679789425499,19.195849546044
1580421552.49176,28.046082246128,80.9643701838713,16.3881895170518
1580421552.49575,35.4314488441289,73.7010757610437,13.214312962539
1580421552.49974,38.7884336614022,66.4988174258033,9.67421988250544
1580421552.50374,38.1170366979475,59.8458838788433,5.82894636453807
1580421552.50773,34.882124055848,54.4747081712062,1.98367284657047
1580421552.51175,31.2199588006408,50.7515068284119,-1.67849240863666
1580421552.51574,29.0226596475165,48.1269550621805,-5.15754940108332
1580421552.51974,29.0226596475165,45.8686198214693,-7.66002899214163
1580421552.52373,30.7927061875332,44.220645456626,-9.18593118181116
1580421552.52772,34.2107270923932,43.2440680552374,-9.24696726939806
1580421552.53172,38.9105058365758,42.7557793545432,-8.45349813076973
1580421552.53571,44.2816815442129,41.9623102159151,-6.74448767833974
1580421552.5397,49.65285725185,39.7039749752039,-4.48615243762879
1580421552.5437,54.0474555580986,36.4690623331044,-2.22781719691761
1580421552.54769,56.7330434119172,32.8068970778972,-0.640878919661191
1580421552.55168,58.6861982146943,28.900587472343,0.274662394140478
1580421552.55568,59.7238117036695,24.5670252536811,0.213626306553806
1580421552.55967,60.1510643167771,20.1113908598459,-0.51880674448762
1580421552.56366,59.4796673533224,15.4116121156633,-1.67849240863666
1580421552.56766,58.0758373388262,10.2845807583733,-3.02128633554594
1580421552.57165,55.8175020981153,5.21858548867021,-4.73029678797593
1580421552.57564,52.8877698939496,0.396734569314049,-6.5003433279926
1580421552.57964,49.2256046387424,-4.48615243762879,-8.33142595559616
1580421552.58363,45.5634393835353,-11.505302510109,-9.73525597009234
1580421552.58763,43.1219958800639,-21.5762569619287,-11.0170138094147
1580421552.59161,42.0233463035017,-34.0276188296332,-12.0546272983902
1580421552.59561,41.5350576028075,-46.601052872511,-13.6415655756466
1580421552.5996,41.2298771648736,-57.648584725719,-15.5947203784237
1580421552.60359,40.6195162890058,-68.2688639658197,-17.792019531548
1580421552.60759,39.2156862745096,-79.2553597314411,-20.2334630350194
1580421552.61158,36.7132066834515,-90.9132524605172,-22.7359426260775
1580421552.61557,32.3796444647896,-101.655603875792,-26.0929274433508
1580421552.61957,26.0318913557639,-109.407186999313,-30.7927061875332
1580421552.62356,20.355535210193,-112.947280079347,-36.7742427710384
1580421552.62755,18.2192721446554,-113.984893568322,-43.4271763179981
1580421552.63155,20.5386434729533,-115.022507057298,-50.5683985656519
1580421552.63554,25.2384222171358,-117.586022735943,-57.0992599374381
1580421552.63954,29.0226596475165,-121.004043640803,-63.2639047837033
1580421552.64353,30.2433813992523,-124.84931715877,-69.0012970168611
1580421552.64752,31.5861753261615,-131.136034180209,-73.884184023804
1580421552.65152,36.0418097199968,-140.962844281682,-77.7294575417716
1580421552.65551,43.9154650186922,-152.37659266041,-80.7812619211109
1580421552.6595,51.9722285801477,-164.950026703288,-82.8564888990616
1580421552.6635,56.7330434119172,-177.401388570993,-84.6875715266651
1580421552.66749,55.9395742732891,-188.754100862135,-85.8472571908139
1580421552.67151,49.7749294270234,-200.106813153277,-85.1758602273594
1580421552.6755,41.1078049897001,-209.933623254749,-82.3682001983673
1580421552.67949,33.6614023041122,-213.473716334783,-77.7904936293583
1580421552.68349,30.609597924773,-208.712901503014,-71.8699931334402
1580421552.68748,34.9431601434346,-198.764019226368,-65.0949874113069
1580421552.69148,47.4555580987258,-187.106126497292,-58.2589456015869
1580421552.69547,66.1326009002823,-175.570305943389,-50.8125429159991
1580421552.69946,85.7251850156408,-163.729304951553,-41.168841077287
1580421552.70346,101.655603875792,-152.19348439765,-28.1681544213016
1580421552.70745,111.055161364156,-141.75631342031,-11.5663385976959
1580421552.71144,112.092774853132,-134.981307698177,7.29381246662092
1580421552.71544,104.646372167544,-133.882658121614,26.0929274433508
1580421552.71943,88.7769893949799,-139.131761654078,42.0843823910886
1580421552.72342,64.7898069733733,-150.30136568246,53.620202944991
1580421552.72742,33.2951857785915,-165.316243228809,59.4186312657357
1580421552.73141,-2.10574502174404,-180.575265125505,59.7238117036695
1580421552.7354,-35.7976653696498,-193.39284351873,54.6578164339662
1580421552.7394,-62.5314717326619,-203.28068970779,45.2582589456015
1580421552.74339,-79.8046845197223,-209.628442816815,33.4782940413518
1580421552.74739,-88.5328450446325,-211.032272831312,21.2710765239947
1580421552.75137,-90.3028915846494,-207.492179751278,11.3221942473488
1580421552.75537,-86.2745098039215,-200.595101853971,4.91340505073617
1580421552.75936,-76.752880140383,-192.599374380102,2.10574502174404
1580421552.76335,-63.0807965209431,-186.068513008316,1.80056458381023
1580421552.76735,-45.9296559090562,-181.795986877241,2.96025024795904
1580421552.77134,-27.0695048447394,-179.171435111009,4.42511635004189
1580421552.77533,-8.20935378042259,-177.096208133059,5.76791027695117
1580421552.77933,8.27038986800949,-175.265125505455,6.68345159075307
1580421552.78332,21.0269321736475,-173.250934615091,7.11070420386045
1580421552.78731,29.3888761730373,-171.480888075075,7.23277637903402
1580421552.79131,33.7224383916989,-170.138094148165,7.04966811627378
1580421552.7953,35.0652323186082,-168.91737239643,6.62241550316617
1580421552.79929,34.8210879682611,-167.39147020676,6.5003433279926
1580421552.80329,34.0886549172196,-165.194171053636,6.56137941557949
1580421552.80728,33.7224383916989,-162.569619287404,6.62241550316617
1580421552.81128,34.1496910048065,-159.578850995651,6.37827115281902
1580421552.81527,35.3093766689553,-156.710154879072,5.88998245212474
1580421552.81926,36.9573510337987,-154.024567025254,4.7913328755626
1580421552.82326,38.6663614862287,-151.644159609369,3.38750286106665
1580421552.82725,40.1312275883115,-149.568932631418,1.73952849622333
1580421552.83124,40.6195162890058,-148.043030441749,-0.152590218966907
1580421552.83523,39.4598306248567,-146.944380865187,-2.22781719691761
1580421552.83922,36.4080262455175,-145.845731288624,-4.36408026245522
1580421552.84322,31.4030670634011,-144.808117799649,-6.01205462729831
1580421552.84721,24.322880903334,-143.46532387274,-7.41588464179449
1580421552.8512,15.6557564660104,-141.878385595483,-8.51453421835663
1580421552.8552,5.15754940108332,-139.375906004425,-9.24696726939806
1580421552.85919,-6.5003433279926,-136.446173800259,-9.55214770733187
1580421552.86319,-19.1348134584573,-132.967116807813,-9.4300755321583
1580421552.86718,-32.0134279392691,-129.243915465019,-9.12489509422448
1580421552.87117,-44.9530785076677,-125.215533684291,-8.88075074387734
1580421552.87517,-57.3434042877852,-121.126115815976,-8.33142595559616
1580421552.87916,-69.0012970168611,-117.097734035248,-7.59899290455473
1580421552.88315,-79.7436484321354,-112.88624399176,-6.86655985351331
1580421552.88715,-89.4483863584344,-108.186465247578,-6.5003433279926
1580421552.89114,-98.1765468833448,-103.303578240635,-6.01205462729831
1580421552.89513,-106.233310444801,-98.1765468833448,-5.76791027695117
1580421552.89913,-113.435568780041,-92.5612268253603,-5.7068741893645
1580421552.90312,-120.210574502174,-86.7627985046158,-5.52376592660403
1580421552.90711,-125.886930647745,-80.6591897459373,-5.52376592660403
1580421552.91113,-130.647745479515,-74.7997253376059,-5.6458381017776
1580421552.91513,-133.882658121614,-69.062333104448,-5.95101853971164
1580421552.91912,-135.164415960937,-63.4470130464638,-6.62241550316617
1580421552.92311,-134.431982909895,-58.2589456015869,-7.47692072938116
1580421552.92711,-131.68535896849,-53.437094682231,-8.75867856870377
1580421552.9311,-126.680399786374,-49.2866407263296,-10.2235446707866
1580421552.93509,-120.393682764935,-45.9296559090562,-11.9935912108033
1580421552.93909,-112.88624399176,-43.2440680552377,-13.8857099259938
1580421552.94308,-105.012588693065,-41.2298771648739,-15.5336842908368
1580421552.94707,-97.3830777447167,-39.3987945372703,-16.7544060425726
1580421552.95107,-90.3639276722361,-37.5677119096667,-17.3647669184404
1580421552.95506,-83.7720302128632,-35.3704127565425,-17.1816586556802
1580421552.95905,-77.4853131914244,-32.9900053406577,-15.8388647287709
1580421552.96305,-70.771343556878,-29.4499122606239,-13.519493400473
1580421552.96704,-63.0807965209431,-24.322880903334,-9.61318379491877
1580421552.97104,-53.8033112077517,-17.2426947432668,-4.24200808728165
1580421552.97503,-42.5726710917831,-8.94178683146401,2.10574502174404
1580421552.97902,-29.8771648737315,0.579842832074519,8.94178683146401
1580421552.98302,-16.5712977798123,11.9935912108033,15.7167925535973
1580421552.98701,-3.57061112382689,24.0177004654001,21.5762569619287
1580421552.991,8.51453421835663,36.8963149462118,26.2149996185244
1580421552.99499,19.2568856336309,50.1411459525443,29.8771648737315
1580421552.99898,29.5719844357975,61.9211108567938,32.8679331654839
1580421553.00298,40.6805523765925,71.6868848706799,35.1873044937818
1580421553.00697,55.0240329594872,79.6215762569623,37.8728923476003
1580421553.01096,74.7386892500194,85.603112840467,41.1688410772867
1580421553.01496,100.373846036469,89.4483863584346,45.1361867704279
1580421553.01895,130.769817654688,91.1573968108646,50.4463263904781
1580421553.02294,162.386511024643,90.9132524605175,56.7940794995038
1580421553.02694,190.707255664912,89.3873502708479,63.3859769588771
1580421553.03093,213.107499809262,85.2368963149465,69.428549629969
1580421553.03493,228.976882581826,76.3256275272756,74.0672922865647
1580421553.03892,239.963378347448,58.9303425650414,77.4853131914247
1580421553.04291,245.639734493019,33.2341496910046,79.9877927824828
1580421553.04691,240.573739223316,6.31723506523235,80.4150453955904
1580421553.0509,212.741283283742,-13.3974212252995,78.6449988555737
1580421553.05489,153.475242236972,-24.8111696040282,74.3724727244985
1580421553.05889,68.5740444037538,-30.9758144502937,69.1844052796218
1580421553.06288,-22.2476539253832,-33.478294041352,64.9729152361338
1580421553.06687,-101.777676050965,-29.5109483482108,62.592507820249
1580421553.07086,-160.250247959106,-19.9282825970854,61.9821469443805
1580421553.07485,-194.430457007706,-9.55214770733187,62.1652552071409
1580421553.07885,-207.553215838865,-1.12916762035547,62.1652552071409
1580421553.08284,-206.69871061265,5.15754940108332,61.0055695429919
1580421553.08683,-198.886091401541,9.06385900663759,57.3434042877848
1580421553.09083,-187.716487373159,10.4066529335469,50.6294346532386
1580421553.09482,-174.105439841306,9.85732814526591,41.2909132524603
1580421553.09882,-158.358129243916,7.23277637903402,29.1447318226901
1580421553.10281,-142.183566033417,3.14335851071951,16.1440451667047
1580421553.1068,-127.595941100175,-4.36408026245522,3.93682764934761
1580421553.1108,-117.280842298009,-14.1298542763409,-6.31723506523235
1580421553.11479,-111.055161364157,-25.7267109178301,-13.7636377508202
1580421553.11878,-107.820248722057,-37.5677119096667,-18.5854886701761
1580421553.12278,-106.233310444801,-47.6997024490731,-20.6607156481268
1580421553.12677,-102.937361715114,-57.2213321126117,-19.4399938963911
1580421553.13076,-93.1105516136415,-61.066605630579,-14.0077821011673
1580421553.13476,-68.8181887541009,-56.7940794995041,-5.82894636453807
1580421553.13875,-24.5059891660944,-56.1226825360495,4.42511635004189
1580421553.14275,26.3981078812847,-53.5591668574045,15.5336842908368
1580421553.14674,60.9445334554052,-44.1596093690396,26.0929274433508
1580421553.15076,62.0431830319676,-29.5109483482108,35.7976653696496
1580421553.15475,25.4215304798961,-0.579842832074519,45.6244754711222
1580421553.15874,-35.187304493782,47.5776302738993,55.6954299229419
1580421553.16274,-84.8096437018387,96.5285725185017,63.4470130464638
1580421553.16673,-96.9558251316091,121.004043640803,66.3157091630428
1580421553.17072,-64.3625543602654,110.200656137942,66.3157091630428
1580421553.17472,-6.98863202868688,76.6308079652094,70.2830548561838
1580421553.17871,38.7884336614022,39.6429388876172,81.8799114976732
1580421553.1827,39.0325780117494,17.5478751812009,96.2233920805679
1580421553.1867,-16.8764782177461,8.14831769283592,105.745021744106
1580421553.19069,-106.904707408255,1.31227588311594,99.2141603723203
1580421553.19468,-179.232471198596,2.89921416037237,63.2639047837038
1580421553.19868,-187.838559548333,1.37331197070262,25.8487830930037
1580421553.20267,-147.188525215534,-8.14831769283592,10.2235446707866
1580421553.20667,-98.6037994964524,-17.5478751812009,12.0546272983902
1580421553.21066,-67.902647440299,-21.0879682612344,16.8154421301595
1580421553.21465,-49.4697489890898,-16.6933699549859,15.5336842908368
1580421553.21865,-42.5726710917831,-8.51453421835663,5.95101853971164
1580421553.22264,-55.0240329594874,-1.8616006713969,-10.8949416342411
1580421553.22663,-80.1098649576561,1.37331197070262,-31.4641031509882
1580421553.23062,-103.303578240635,2.41092545967808,-51.7891203173876
1580421553.23461,-114.961470969711,2.7771419851988,-67.7195391775388
1580421553.23861,-110.078583962768,1.31227588311594,-76.3866636148623
1580421553.2426,-89.0211337453268,-2.7161058976119,-77.8515297169452
1580421553.24659,-56.6720073243305,-6.01205462729831,-73.5179674982833
1580421553.25059,-21.9424734874494,-4.30304417486832,-64.1794460975052
1580421553.25458,6.19516289005878,6.74448767833974,-50.019073777371
1580421553.25858,24.8111696040282,28.046082246128,-33.7224383916991
1580421553.26257,38.7273975738153,54.8409246967267,-17.9751277943083
1580421553.26656,57.4044403753719,82.4292362859542,-4.24200808728165
1580421553.27056,87.4952315556575,109.712367437247,7.84313725490188
1580421553.27455,126.619363698787,134.126802471962,19.2568856336309
1580421553.27854,159.273670557717,147.615777828641,30.7316700999465
1580421553.28254,162.691691462577,143.343251697566,43.4882124055846
1580421553.28653,130.891889829862,125.642786297398,56.6109712367434
1580421553.29052,81.5747310597394,105.073624780652,66.0715648126957
1580421553.29452,35.1262684061951,91.5236133363851,69.3064774547952
1580421553.29851,3.38750286106665,87.861448081178,68.2078278782333
1580421553.3025,-15.777828641184,91.5236133363851,64.9729152361338
1580421553.3065,-28.3512626840618,94.0260929274436,60.8224612802319
1580421553.31052,-35.7976653696498,90.7911802853437,55.6954299229419
1580421553.31451,-42.6337071793698,84.7486076142523,49.5918211642634
1580421553.3185,-49.1035324635691,79.3774319066151,43.9154650186922
1580421553.3225,-53.6812390325781,76.9970244907304,40.4974441138322
1580421553.32649,-54.9629968719005,77.7904936293585,39.7039749752039
1580421553.33048,-51.728084229801,81.5136949721523,40.6195162890058
1580421553.33448,-43.8544289311055,87.678339818418,42.0843823910886
1580421553.33847,-32.928969253071,95.6740672922865,43.1219958800639
1580421553.34246,-19.9282825970854,104.585336079957,43.2440680552374
1580421553.34646,-6.62241550316617,113.008316166934,42.2674906538489
1580421553.35045,5.95101853971164,119.478141451133,39.7650110627908
1580421553.35444,17.486839093614,123.872739757382,36.2249179827572
1580421553.35844,27.4967574578468,126.985580224308,32.0134279392689
1580421553.36243,36.5911345082779,128.877698939498,27.5577935454337
1580421553.36643,44.6478980697336,130.037384603647,23.2242313267718
1580421553.37042,53.07087815671,131.258106355383,19.501029983978
1580421553.37441,62.2262912947276,132.661936369879,16.937514305333
1580421553.37841,71.9920653086137,134.615091172656,15.1064316777295
1580421553.3824,82.1240558480204,136.81239032578,14.4960708018616
1580421553.38639,91.0963607232779,138.887617303731,15.5947203784237
1580421553.39038,97.9934386205846,141.573205157549,17.7309834439611
1580421553.39437,103.303578240635,143.709468223087,20.4776073853666
1580421553.39837,107.148851758602,145.235370412756,23.2242313267718
1580421553.40236,109.4682230869,146.517128252079,26.2760357061111
1580421553.40635,109.4682230869,147.859922178988,29.3888761730373
1580421553.41035,107.209887846189,148.226138704509,29.4499122606239
1580421553.41434,103.059433890288,147.310597390707,25.8487830930037
1580421553.41833,97.8103303578241,145.845731288624,17.1816586556802
1580421553.42233,95.9792477302208,143.160143434806,-9.79629205767901
1580421553.42632,90.8522163729308,141.084916456855,8.75867856870377
1580421553.43032,81.3916227969789,154.512855725948,29.5109483482108
1580421553.43431,74.6166170748456,150.362401770046,34.4548714427403
1580421553.4383,71.7479209582666,141.084916456855,35.4314488441289
1580421553.4423,72.1141374837875,142.854962996872,36.1028458075837
1580421553.44629,73.5790035858704,147.249561303121,36.0418097199968
1580421553.45028,75.4711223010609,149.691004806592,34.9431601434346
1580421553.45428,77.1190966659037,152.19348439765,33.4172579537651
1580421553.45827,78.1567101548794,154.329747463188,31.4030670634011
1580421553.46226,78.8281071183337,155.184252689402,28.8395513847561
1580421553.46626,78.8281071183337,154.573891813535,25.6656748302432
1580421553.47024,78.0346379797056,153.841458762493,22.2476539253832
1580421553.47424,76.7528801403832,152.986953536278,18.5244525825894
1580421553.47823,74.9217975127794,151.827267872129,14.923323414969
1580421553.48223,73.0907148851761,150.48447394522,11.7494468604561
1580421553.48622,70.7103074692914,148.958571755551,9.12489509422448
1580421553.49021,67.5974670023652,147.06645304036,7.11070420386045
1580421553.49421,63.752193484398,145.113298237583,5.76791027695117
1580421553.4982,59.1134508278019,142.854962996872,5.34065766384379
1580421553.50219,54.3526359960324,140.169375143053,5.82894636453807
1580421553.50619,50.4463263904781,136.995498588541,7.23277637903402
1580421553.51018,47.4555580987258,133.699549858854,9.4300755321583
1580421553.51417,45.3803311207751,131.013962005035,12.1766994735638
1580421553.51817,44.0985732814524,128.816662851911,14.8622873273823
1580421553.52216,43.3051041428243,127.229724574655,17.486839093614
1580421553.52615,42.0843823910886,125.764858472572,19.5620660715647
1580421553.53015,39.2767223620965,123.811703669795,21.3931486991683
1580421553.53414,34.2107270923932,121.187151903563,22.4307621881437
1580421553.53813,26.9474326695658,117.891203173876,22.7359426260775
1580421553.54213,17.6699473563745,114.106965743496,22.4917982757304
1580421553.54612,6.68345159075307,110.261692225528,21.759365224689
1580421553.55014,-4.18097199969475,106.538490882735,20.6607156481268
1580421553.55413,-13.3363851377126,102.63218127718,19.3179217212175
1580421553.55813,-18.5854886701761,99.2141603723203,17.9751277943083
1580421553.56212,-19.0737773708704,95.857175555047,16.632333867399
1580421553.56611,-14.8012512397954,92.439154650187,14.923323414969
1580421553.57011,-6.98863202868688,88.4107728694594,13.214312962539
1580421553.5741,2.89921416037237,83.5889219501032,11.3832303349354
1580421553.57809,13.0312046997788,78.4008545052266,9.4300755321583
1580421553.58209,22.4917982757304,72.7244983596552,7.47692072938116
1580421553.58608,31.1589227130539,67.1091783016709,5.34065766384379
1580421553.59008,38.9105058365758,61.7380025940333,3.44853894865332
1580421553.59407,45.1361867704279,57.5265125505452,1.61745632104976
1580421553.59806,49.2866407263291,54.5967803463795,-0.335698481727377
1580421553.60206,51.1177233539329,52.0943007553215,-1.9226367589838
1580421553.60605,51.4229037918667,50.0801098649576,-3.02128633554594
1580421553.61004,50.5073624780648,48.493171587701,-4.05889982452118
1580421553.61404,48.8593881132219,46.6010528725108,-4.7913328755626
1580421553.61803,46.7231250476843,44.4647898069732,-5.21858548867021
1580421553.62202,44.3427176317996,42.511635004196,-5.52376592660403
1580421553.62602,42.511635004196,40.4364080262453,-5.27962157625689
1580421553.63,41.2298771648736,37.9949645227739,-5.03547722590974
1580421553.634,40.8636606393529,34.5769436179139,-4.54718852521546
1580421553.63799,41.3519493400472,30.5485618371861,-4.05889982452118
1580421553.64198,42.7557793545432,26.1539635309375,-3.69268329900046
1580421553.64598,44.7089341573203,22.064545662623,-3.63164721141379
1580421553.64997,46.6010528725108,18.646524757763,-3.99786373693451
1580421553.65397,48.3100633249405,15.2895399404897,-4.36408026245522
1580421553.65796,50.1411459525443,11.5663385976959,-4.7913328755626
1580421553.66195,52.0332646677348,7.29381246662092,-5.52376592660403
1580421553.66595,54.1084916456853,2.7161058976119,-5.88998245212474
1580421553.66994,56.2447547112229,-1.98367284657047,-6.19516289005878
1580421553.67393,58.3199816891733,-7.11070420386045,-6.25619897764545
1580421553.67793,59.7238117036695,-12.4208438239109,-6.07309071488521
1580421553.68192,60.7614251926448,-18.5244525825894,-5.76791027695117
1580421553.68591,60.7003891050581,-23.6514839398794,-5.95101853971164
1580421553.68991,58.747234302281,-27.7409018081939,-6.25619897764545
1580421553.6939,56.2447547112229,-31.7082475013353,-6.62241550316617
1580421553.69789,54.0474555580986,-37.2625314717327,-6.86655985351331
1580421553.70189,51.4229037918667,-45.2582589456017,-6.80552376592664
1580421553.70588,47.5165941863124,-55.0240329594874,-6.68345159075307
1580421553.7099,41.5350576028075,-64.9118791485466,-6.92759594110021
1580421553.71389,34.5159075303272,-75.593194476234,-8.08728160524902
1580421553.71789,26.8863965819789,-87.3121232928968,-10.5897611963073
1580421553.72188,19.1348134584573,-99.0920881971467,-14.6181429770352
1580421553.72587,11.8715190356297,-108.491645685512,-20.5386434729533
1580421553.72987,6.92759594110021,-114.290074006256,-28.1681544213016
1580421553.73386,5.82894636453807,-118.01327534905,-36.5300984206913
1580421553.73785,10.1014724956131,-121.492332341497,-45.441367208362
1580421553.74185,18.341344319829,-126.131074998093,-54.0474555580988
1580421553.74584,25.3604943923094,-130.952925917449,-62.2262912947281
1580421553.74984,29.5719844357975,-136.018921187152,-69.7337300679026
1580421553.75383,30.6706340123596,-141.695277332723,-76.2645914396887
1580421553.75782,29.2057679102768,-148.59235523003,-81.4526588845654
1580421553.76181,27.6188296330204,-156.95429922942,-85.3589684901197
1580421553.76581,29.0836957351032,-167.208361944,-87.3731593804837
1580421553.7698,33.8445105668725,-178.866254673075,-87.3121232928968
1580421553.7738,41.1688410772867,-189.60860608835,-85.3589684901197
1580421553.77779,49.3476768139162,-196.81086442359,-82.1240558480201
1580421553.78178,57.2213321126114,-199.069199664302,-78.3398184176394
1580421553.78578,65.7053482871752,-196.62775616083,-74.3114366369116
1580421553.78976,74.6166170748456,-191.378652628367,-70.0999465934233
1580421553.79376,84.443427176318,-184.237430380713,-65.0949874113069
1580421553.79775,95.6740672922865,-176.241702906844,-58.0758373388267
1580421553.80174,108.796826123445,-168.734264133669,-48.4931715877012
1580421553.80574,122.95719844358,-162.325474937057,-35.7366292820632
1580421553.80973,136.079957274739,-157.930876630808,-19.8672465094987
1580421553.81372,144.136720836194,-155.062180514229,-2.34988937209118
1580421553.81772,144.991226062409,-153.414206149386,14.6791790646218
1580421553.82171,137.361715114061,-153.109025711452,29.2057679102768
1580421553.82571,120.698863202869,-154.695963988708,40.0701915007246
1580421553.8297,96.5896086060884,-159.02952620737,47.089341573205
1580421553.83369,68.1467917906466,-165.377279316396,50.0801098649576
1580421553.83769,38.5442893110551,-171.663996337835,48.9814602883953
1580421553.84168,11.4442664225223,-176.058594644083,45.1972228580146
1580421553.84567,-10.650797283894,-177.950713359274,39.3377584496832
1580421553.84967,-25.9098191805904,-177.8286411841,32.8068970778972
1580421553.85366,-34.0886549172199,-176.485847257191,26.2760357061111
1580421553.85765,-36.4690623331046,-174.41062027924,20.2334630350194
1580421553.86165,-34.6990157930877,-171.908140688182,15.1064316777295
1580421553.86564,-30.4875257495994,-169.28358892195,10.4066529335469
1580421553.86963,-24.8722056916151,-166.536964980545,6.92759594110021
1580421553.87362,-18.7075608453497,-164.095521477073,4.18097199969475
1580421553.87762,-12.7260242618447,-162.08133058671,2.04470893415737
1580421553.88161,-7.47692072938116,-160.494392309453,0.51880674448762
1580421553.8856,-3.50957503624022,-159.212634470131,-0.640878919661191
1580421553.8896,-1.67849240863666,-158.724345769436,-1.43434805828952
1580421553.89359,-2.22781719691761,-158.480201419089,-2.04470893415737
1580421553.89758,-4.54718852521546,-158.480201419089,-2.59403372243833
1580421553.90158,-7.7821011673152,-158.907454032197,-3.20439459830618
1580421553.90557,-10.8339055466545,-158.724345769436,-3.81475547417404
1580421553.90956,-12.664988174258,-157.442587930114,-4.18097199969475
1580421553.91356,-12.8480964370183,-154.695963988708,-4.8523689631495
1580421553.91755,-11.2001220721752,-150.423437857633,-5.27962157625689
1580421553.92154,-8.08728160524902,-144.869153887236,-5.58480201419093
1580421553.92554,-3.69268329900046,-138.887617303731,-5.88998245212474
1580421553.92953,1.25123979552905,-133.150225070573,-6.01205462729831
1580421553.93352,5.6458381017776,-128.694590676738,-6.19516289005878
1580421553.93752,9.00282291905091,-125.276569771878,-6.25619897764545
1580421553.94151,10.5897611963073,-122.713054093233,-6.56137941557949
1580421553.9455,10.8339055466545,-121.919584954604,-5.88998245212474
1580421553.94952,12.7870603494316,-122.774090180819,2.34988937209118
1580421553.95352,19.6231021591516,-120.698863202869,11.4442664225223
1580421553.95751,27.7409018081939,-115.632867933165,15.4726482032502
1580421553.9615,28.5343709468223,-112.092774853132,9.67421988250544
1580421553.9655,23.9566643778132,-106.355382619974,-3.02128633554594
1580421553.96949,18.4023804074159,-99.8855573357748,-15.2895399404897
1580421553.97348,13.0922407873654,-96.5896086060884,-22.8580148012511
1580421553.97748,6.92759594110021,-102.327000839246,-24.0787365529868
1580421553.98147,-5.15754940108332,-113.801785305562,-21.4541847867551
1580421553.98546,-29.2057679102768,-116.060120546273,-17.5478751812009
1580421553.98946,-65.0949874113069,-98.1765468833448,-13.519493400473
1580421553.99345,-99.7634851606012,-68.3909361409933,-10.7728694590676
1580421553.99745,-116.609445334554,-50.019073777371,-10.0404364080262
1580421554.00144,-109.28511482414,-53.9864194705119,-10.5897611963073
1580421554.00543,-87.006942854963,-70.6492713817045,-10.8339055466545
1580421554.00943,-63.0197604333562,-85.8472571908139,-10.650797283894
1580421554.01342,-46.9062333104448,-91.9508659494925,-10.2845807583733
1580421554.01741,-43.2440680552377,-88.4718089570458,-9.79629205767901
1580421554.02141,-51.728084229801,-79.3774319066147,-9.67421988250544
1580421554.0254,-68.8792248416876,-69.1844052796216,-9.97940032043948
1580421554.02939,-88.9600976577401,-60.9445334554055,-10.5897611963073
1580421554.03338,-106.599526970321,-55.3292133974212,-11.3221942473488
1580421554.03737,-118.867780575265,-51.5449759670405,-12.4208438239109
1580421554.04137,-125.093461509117,-48.2490272373541,-13.3363851377126
1580421554.04536,-126.314183260853,-44.2816815442131,-14.1908903639276
1580421554.04936,-123.567559319448,-39.459830624857,-14.9843595025559
1580421554.05335,-117.769130998703,-33.6614023041125,-15.8999008163576
1580421554.05734,-110.017547875181,-27.4967574578468,-16.2661173418783
1580421554.06134,-100.984206912337,-20.4165712977797,-16.3271534294652
1580421554.06533,-91.279468986038,-12.8480964370183,-15.777828641184
1580421554.06932,-81.6357671473259,-4.73029678797593,-14.0077821011673
1580421554.07332,-72.480354009308,3.75371938658736,-11.2001220721752
1580421554.07731,-64.1794460975052,12.2377355611504,-6.68345159075307
1580421554.0813,-57.4654764629588,19.9893186846723,-0.946059357595232
1580421554.0853,-52.7046616311895,26.5201800564582,6.25619897764545
1580421554.08929,-50.7515068284124,31.2809948882275,14.6791790646218
1580421554.09328,-51.5449759670405,34.882124055848,24.0177004654001
1580421554.09728,-54.5967803463798,37.2625314717325,33.6614023041122
