Timestamp_seconds,Accel_X_g,Accel_Y_g,Accel_Z_g
1580417139.20814,-0.516365300984207,0.845471885252156,0.107179369802395
1580417139.21214,-0.517341878385595,0.840100709544519,0.104737926298924
1580417139.21614,-0.519783321889067,0.84254215304799,0.106202792401007
1580417139.22014,-0.515877012283513,0.843030441748684,0.102784771496147
1580417139.22414,-0.515877012283513,0.844007019150073,0.105226214999618
1580417139.22814,-0.517341878385595,0.84596017395285,0.0988784618905925
1580417139.23213,-0.514900434882124,0.850354772259099,0.0969253070878153
1580417139.23615,-0.512458991378653,0.851331349660487,0.0979018844892039
1580417139.24014,-0.514900434882124,0.850354772259099,0.0939955748836496
1580417139.24414,-0.51441214618143,0.848401617456322,0.0910658426794839
1580417139.24814,-0.516853589684901,0.850843060959793,0.0935072861829553
1580417139.25214,-0.515388723582818,0.850354772259099,0.0930189974822611
1580417139.25614,-0.513923857480735,0.847913328755627,0.0891126878767068
1580417139.26014,-0.51441214618143,0.846448462653544,0.0939955748836496
1580417139.26414,-0.513435568780041,0.847913328755627,0.0949721522850382
1580417139.26813,-0.515877012283513,0.842053864347296,0.0935072861829553
1580417139.27213,-0.518806744487678,0.844983596551462,0.096437018387121
1580417139.27613,-0.519295033188373,0.844007019150073,0.0969253070878153
1580417139.28013,-0.517341878385595,0.844495307850767,0.0939955748836496
1580417139.28413,-0.518318455786984,0.848889906157016,0.0930189974822611
1580417139.28813,-0.51441214618143,0.85279621576257,0.0920424200808725
1580417139.29213,-0.514900434882124,0.854261081864653,0.0905775539787896
1580417139.29613,-0.516853589684901,0.856702525368124,0.0910658426794839
1580417139.30012,-0.513923857480735,0.853772793163959,0.0886243991760125
1580417139.30412,-0.513923857480735,0.85621423666743,0.0896009765774011
1580417139.30812,-0.513923857480735,0.855725947966736,0.0910658426794839
1580417139.31212,-0.515877012283513,0.85279621576257,0.0881361104753182
1580417139.3161,-0.514900434882124,0.851819638361182,0.0954604409857325
1580417139.3201,-0.515388723582818,0.84937819485771,0.0935072861829553
1580417139.3241,-0.516853589684901,0.852307927061876,0.0871595330739297
1580417139.3281,-0.516365300984207,0.848401617456322,0.0896009765774011
1580417139.3321,-0.519295033188373,0.84937819485771,0.0905775539787896
1580417139.33609,-0.515877012283513,0.850354772259099,0.0871595330739297
1580417139.34009,-0.515877012283513,0.850843060959793,0.0949721522850382
1580417139.34409,-0.517341878385595,0.847913328755627,0.0925307087815668
1580417139.34809,-0.517341878385595,0.85279621576257,0.0876478217746239
1580417139.35209,-0.515388723582818,0.853284504463264,0.0847180895704582
1580417139.35609,-0.514900434882124,0.855725947966736,0.0856946669718468
1580417139.36009,-0.513923857480735,0.85621423666743,0.0866712443732354
1580417139.36409,-0.513923857480735,0.859143968871596,0.0847180895704582
1580417139.36808,-0.513923857480735,0.859143968871596,0.0856946669718468
1580417139.37208,-0.511482413977264,0.860608834973679,0.0866712443732354
1580417139.37608,-0.51441214618143,0.858655680170902,0.0896009765774011
1580417139.38008,-0.515877012283513,0.858655680170902,0.0930189974822611
1580417139.38408,-0.515877012283513,0.857190814068819,0.0983901731898982
1580417139.38808,-0.519783321889067,0.857190814068819,0.0988784618905925
1580417139.39208,-0.515388723582818,0.850354772259099,0.0915541313801782
1580417139.39609,-0.515877012283513,0.850843060959793,0.096437018387121
1580417139.40009,-0.516853589684901,0.852307927061876,0.102784771496147
1580417139.40408,-0.515877012283513,0.850843060959793,0.101808194094758
1580417139.40808,-0.515388723582818,0.853284504463264,0.101319905394064
1580417139.41208,-0.515388723582818,0.85279621576257,0.103761348897535
1580417139.41608,-0.515388723582818,0.852307927061876,0.103273060196841
1580417139.42008,-0.515388723582818,0.85621423666743,0.107179369802395
1580417139.42408,-0.519295033188373,0.851819638361182,0.108155947203784
1580417139.42808,-0.520271610589761,0.851331349660487,0.111573968108644
1580417139.43208,-0.519783321889067,0.84937819485771,0.113527122911421
1580417139.43607,-0.52124818799115,0.849866483558404,0.11792172121767
1580417139.44007,-0.520759899290455,0.84937819485771,0.113038834210727
1580417139.44407,-0.521736476691844,0.84937819485771,0.115968566414892
1580417139.44807,-0.519295033188373,0.84937819485771,0.117433432516975
1580417139.45207,-0.521736476691844,0.850354772259099,0.11792172121767
1580417139.45607,-0.526131074998093,0.851331349660487,0.119874876020447
1580417139.46007,-0.522224765392538,0.847913328755627,0.128175783932249
1580417139.46407,-0.520759899290455,0.84596017395285,0.128664072632944
1580417139.46807,-0.522224765392538,0.843030441748684,0.129152361333638
1580417139.47206,-0.519295033188373,0.839612420843824,0.135988403143358
1580417139.47607,-0.517341878385595,0.838635843442436,0.130617227435721
1580417139.48007,-0.516853589684901,0.841077286945907,0.129640650034332
1580417139.48407,-0.515877012283513,0.841565575646602,0.125246051728084
1580417139.48807,-0.516365300984207,0.84254215304799,0.116945143816281
1580417139.49207,-0.514900434882124,0.845471885252156,0.114015411612115
1580417139.49607,-0.514900434882124,0.846448462653544,0.103761348897535
1580417139.50007,-0.51441214618143,0.844983596551462,0.101808194094758
1580417139.50407,-0.510017547875181,0.850843060959793,0.0983901731898982
1580417139.50806,-0.513923857480735,0.849866483558404,0.0939955748836496
1580417139.51206,-0.511970702677958,0.851331349660487,0.0861829556725411
1580417139.51606,-0.511970702677958,0.851819638361182,0.0817883573662925
1580417139.52006,-0.513435568780041,0.85279621576257,0.0783703364614325
1580417139.52406,-0.515388723582818,0.855237659266042,0.0793469138628211
1580417139.52806,-0.512458991378653,0.85279621576257,0.077393759060044
1580417139.53206,-0.512458991378653,0.855237659266042,0.080811779964904
1580417139.53605,-0.512458991378653,0.854749370565347,0.077393759060044
1580417139.54005,-0.512458991378653,0.853772793163959,0.0764171816586554
1580417139.54405,-0.512458991378653,0.855237659266042,0.0749523155565726
1580417139.54805,-0.511970702677958,0.851331349660487,0.0720225833524069
1580417139.55205,-0.510017547875181,0.853284504463264,0.0700694285496297
1580417139.55603,-0.510505836575875,0.848401617456322,0.0642099641412983
1580417139.56003,-0.511482413977264,0.852307927061876,0.0642099641412983
1580417139.56403,-0.506599526970321,0.855725947966736,0.0583504997329669
1580417139.56803,-0.506599526970321,0.858655680170902,0.0651865415426869
1580417139.57202,-0.505622949568933,0.859143968871596,0.0612802319371326
1580417139.57602,-0.509529259174487,0.86305027847715,0.0617685206378269
1580417139.58002,-0.51099412527657,0.862561989776456,0.0578622110322726
1580417139.58402,-0.512458991378653,0.85963225757229,0.0583504997329669
1580417139.58802,-0.509040970473793,0.858167391470207,0.0593270771343555
1580417139.59202,-0.510505836575875,0.853284504463264,0.0554207675288012
1580417139.59602,-0.50757610437171,0.851819638361182,0.0539559014267184
1580417139.60002,-0.50757610437171,0.85279621576257,0.060303654535744
1580417139.60401,-0.506599526970321,0.85279621576257,0.0534676127260241
1580417139.60801,-0.511482413977264,0.855725947966736,0.0510261692225527
1580417139.61201,-0.511482413977264,0.854749370565347,0.0471198596169984
1580417139.61601,-0.51099412527657,0.857679102769513,0.0549324788281069
1580417139.62001,-0.51099412527657,0.855237659266042,0.0632333867399097
1580417139.62401,-0.510505836575875,0.855237659266042,0.0607919432364383
1580417139.62801,-0.509040970473793,0.855237659266042,0.0656748302433812
1580417139.63201,-0.510017547875181,0.850843060959793,0.0744640268558783
1580417139.63602,-0.50757610437171,0.854261081864653,0.073975738155184
1580417139.64001,-0.510505836575875,0.84937819485771,0.0817883573662925
1580417139.64401,-0.511482413977264,0.848889906157016,0.0837415121690697
1580417139.64801,-0.508552681773098,0.847913328755627,0.0871595330739297
1580417139.65201,-0.512458991378653,0.846448462653544,0.0944838635843439
1580417139.65601,-0.513435568780041,0.84596017395285,0.0920424200808725
1580417139.66001,-0.51783016708629,0.844983596551462,0.100343327992675
1580417139.66401,-0.517341878385595,0.841565575646602,0.100343327992675
1580417139.66801,-0.519295033188373,0.840100709544519,0.103273060196841
1580417139.672,-0.518806744487678,0.843518730449379,0.096437018387121
1580417139.676,-0.51783016708629,0.848889906157016,0.0915541313801782
1580417139.68,-0.518318455786984,0.850354772259099,0.0944838635843439
1580417139.684,-0.519783321889067,0.855725947966736,0.0925307087815668
1580417139.688,-0.524177920195315,0.859143968871596,0.0900892652780954
1580417139.692,-0.521736476691844,0.861585412375067,0.0954604409857325
1580417139.696,-0.524177920195315,0.86305027847715,0.10083161669337
1580417139.7,-0.525642786297398,0.863538567177844,0.106691081101701
1580417139.70399,-0.52466620889601,0.862073701075762,0.105714503700312
1580417139.70799,-0.522224765392538,0.864026855878539,0.108644235904478
1580417139.71199,-0.523689631494621,0.860608834973679,0.10766765850309
1580417139.716,-0.525154497596704,0.857679102769513,0.108644235904478
1580417139.72,-0.524177920195315,0.858167391470207,0.106691081101701
1580417139.724,-0.52808422980087,0.853772793163959,0.11450370031281
1580417139.728,-0.52808422980087,0.854261081864653,0.118898298619058
1580417139.732,-0.520759899290455,0.853284504463264,0.106691081101701
1580417139.736,-0.520759899290455,0.851819638361182,0.107179369802395
1580417139.74,-0.518806744487678,0.853772793163959,0.101319905394064
1580417139.74399,-0.522713054093233,0.848889906157016,0.100343327992675
1580417139.74799,-0.530037384603647,0.846936751354239,0.101808194094758
1580417139.75199,-0.532478828107118,0.844983596551462,0.110597390707255
1580417139.75599,-0.532478828107118,0.843030441748684,0.118410009918364
1580417139.75999,-0.526619363698787,0.839612420843824,0.118410009918364
1580417139.76399,-0.519783321889067,0.834241245136187,0.110597390707255
1580417139.76799,-0.522224765392538,0.838635843442436,0.100343327992675
1580417139.77199,-0.526619363698787,0.848401617456322,0.0988784618905925
1580417139.77598,-0.526131074998093,0.850843060959793,0.105226214999618
1580417139.77998,-0.525154497596704,0.850843060959793,0.104737926298924
1580417139.78398,-0.521736476691844,0.850354772259099,0.102296482795452
1580417139.78798,-0.52466620889601,0.850354772259099,0.099855039291981
1580417139.79198,-0.52466620889601,0.848401617456322,0.0959487296864268
1580417139.79596,-0.525154497596704,0.855237659266042,0.096437018387121
1580417139.79996,-0.525642786297398,0.856702525368124,0.10083161669337
1580417139.80396,-0.526131074998093,0.854261081864653,0.107179369802395
1580417139.80796,-0.525154497596704,0.85279621576257,0.0993667505912867
1580417139.81195,-0.519295033188373,0.851331349660487,0.099855039291981
1580417139.81595,-0.520271610589761,0.850843060959793,0.0959487296864268
1580417139.81995,-0.523201342793927,0.854261081864653,0.0944838635843439
1580417139.82395,-0.520759899290455,0.855725947966736,0.10083161669337
1580417139.82795,-0.520759899290455,0.854749370565347,0.0939955748836496
1580417139.83195,-0.525154497596704,0.854261081864653,0.100343327992675
1580417139.83595,-0.519783321889067,0.852307927061876,0.0969253070878153
1580417139.83994,-0.518806744487678,0.851819638361182,0.0993667505912867
1580417139.84394,-0.516853589684901,0.851819638361182,0.0939955748836496
1580417139.84794,-0.518806744487678,0.847425040054933,0.101319905394064
1580417139.85194,-0.515877012283513,0.847425040054933,0.0979018844892039
1580417139.85594,-0.516853589684901,0.842053864347296,0.102296482795452
1580417139.85994,-0.516365300984207,0.844983596551462,0.0993667505912867
1580417139.86394,-0.519295033188373,0.841565575646602,0.101319905394064
1580417139.86794,-0.520759899290455,0.84254215304799,0.099855039291981
1580417139.87193,-0.519295033188373,0.843030441748684,0.099855039291981
1580417139.87595,-0.51783016708629,0.84254215304799,0.0974135957885096
1580417139.87994,-0.518806744487678,0.840100709544519,0.101319905394064
1580417139.88394,-0.519295033188373,0.84254215304799,0.100343327992675
1580417139.88794,-0.518318455786984,0.840588998245213,0.102296482795452
1580417139.89194,-0.518806744487678,0.842053864347296,0.101319905394064
1580417139.89594,-0.51783016708629,0.841565575646602,0.0979018844892039
1580417139.89994,-0.51783016708629,0.839612420843824,0.0959487296864268
1580417139.90394,-0.52124818799115,0.843518730449379,0.0974135957885096
1580417139.90794,-0.519295033188373,0.840588998245213,0.0949721522850382
1580417139.91193,-0.517341878385595,0.844495307850767,0.0979018844892039
1580417139.91593,-0.518318455786984,0.844983596551462,0.0944838635843439
1580417139.91993,-0.51783016708629,0.850354772259099,0.0905775539787896
1580417139.92393,-0.519295033188373,0.846936751354239,0.0993667505912867
1580417139.92793,-0.520759899290455,0.850354772259099,0.0959487296864268
1580417139.93193,-0.51783016708629,0.850843060959793,0.0930189974822611
1580417139.93593,-0.518318455786984,0.850843060959793,0.0988784618905925
1580417139.93993,-0.519783321889067,0.849866483558404,0.0974135957885096
1580417139.94392,-0.519295033188373,0.849866483558404,0.0939955748836496
1580417139.94792,-0.520271610589761,0.851331349660487,0.0925307087815668
1580417139.95192,-0.518806744487678,0.847913328755627,0.0930189974822611
1580417139.9559,-0.522713054093233,0.847913328755627,0.0959487296864268
1580417139.9599,-0.523689631494621,0.841565575646602,0.0925307087815668
1580417139.9639,-0.52466620889601,0.843518730449379,0.0944838635843439
1580417139.9679,-0.526131074998093,0.844007019150073,0.0954604409857325
1580417139.9719,-0.525154497596704,0.843030441748684,0.0939955748836496
1580417139.9759,-0.527595941100175,0.843518730449379,0.0910658426794839
1580417139.97989,-0.526619363698787,0.846448462653544,0.0871595330739297
1580417139.98389,-0.527595941100175,0.84937819485771,0.0925307087815668
1580417139.98789,-0.527595941100175,0.85279621576257,0.0949721522850382
1580417139.99189,-0.529060807202258,0.852307927061876,0.0935072861829553
1580417139.99589,-0.526131074998093,0.854749370565347,0.0856946669718468
1580417139.99989,-0.526619363698787,0.855725947966736,0.0881361104753182
1580417140.00389,-0.525154497596704,0.854749370565347,0.0852063782711525
1580417140.00789,-0.523689631494621,0.854261081864653,0.0910658426794839
1580417140.01188,-0.523201342793927,0.855725947966736,0.0920424200808725
1580417140.01588,-0.522224765392538,0.854749370565347,0.0891126878767068
1580417140.01988,-0.522713054093233,0.853772793163959,0.0920424200808725
1580417140.02388,-0.520759899290455,0.853772793163959,0.0939955748836496
1580417140.02788,-0.520759899290455,0.849866483558404,0.0959487296864268
1580417140.03188,-0.521736476691844,0.849866483558404,0.0974135957885096
1580417140.03589,-0.520271610589761,0.850354772259099,0.0959487296864268
1580417140.03989,-0.51783016708629,0.851331349660487,0.0944838635843439
1580417140.04389,-0.519783321889067,0.845471885252156,0.0944838635843439
1580417140.04788,-0.519783321889067,0.850843060959793,0.0920424200808725
1580417140.05188,-0.519295033188373,0.84937819485771,0.0891126878767068
1580417140.05588,-0.517341878385595,0.846936751354239,0.0930189974822611
1580417140.05988,-0.520271610589761,0.850843060959793,0.0939955748836496
1580417140.06388,-0.522224765392538,0.847913328755627,0.0900892652780954
1580417140.06788,-0.522224765392538,0.84596017395285,0.0993667505912867
1580417140.07188,-0.521736476691844,0.848401617456322,0.0954604409857325
1580417140.07588,-0.521736476691844,0.84596017395285,0.0969253070878153
1580417140.07987,-0.52466620889601,0.844983596551462,0.0979018844892039
1580417140.08387,-0.52808422980087,0.846936751354239,0.0993667505912867
1580417140.08787,-0.527107652399481,0.844983596551462,0.0988784618905925
1580417140.09187,-0.522713054093233,0.846448462653544,0.099855039291981
1580417140.09587,-0.519783321889067,0.847425040054933,0.0954604409857325
1580417140.09987,-0.521736476691844,0.843518730449379,0.0969253070878153
1580417140.10387,-0.519783321889067,0.84254215304799,0.0935072861829553
1580417140.10787,-0.51783016708629,0.844007019150073,0.0974135957885096
1580417140.11187,-0.518806744487678,0.843518730449379,0.0974135957885096
1580417140.11588,-0.519783321889067,0.84596017395285,0.0959487296864268
1580417140.11987,-0.521736476691844,0.844007019150073,0.0969253070878153
1580417140.12387,-0.519783321889067,0.846936751354239,0.0900892652780954
1580417140.12787,-0.51783016708629,0.843030441748684,0.0930189974822611
1580417140.13187,-0.51783016708629,0.841565575646602,0.0959487296864268
1580417140.13587,-0.517341878385595,0.844495307850767,0.0925307087815668
1580417140.13987,-0.521736476691844,0.844495307850767,0.0881361104753182
1580417140.14387,-0.522224765392538,0.846936751354239,0.0905775539787896
1580417140.14786,-0.521736476691844,0.850354772259099,0.0881361104753182
1580417140.15186,-0.523201342793927,0.850354772259099,0.0847180895704582
1580417140.15586,-0.518806744487678,0.848889906157016,0.0817883573662925
1580417140.15986,-0.519295033188373,0.853772793163959,0.0813000686655982
1580417140.16386,-0.518806744487678,0.853284504463264,0.0764171816586554
1580417140.16786,-0.519783321889067,0.851819638361182,0.0778820477607383
1580417140.17186,-0.519783321889067,0.851331349660487,0.073975738155184
1580417140.17586,-0.519295033188373,0.854261081864653,0.0725108720531011
1580417140.17985,-0.520271610589761,0.855237659266042,0.077393759060044
1580417140.18385,-0.518806744487678,0.848889906157016,0.0729991607537954
1580417140.18785,-0.520759899290455,0.848401617456322,0.0720225833524069
1580417140.19185,-0.519783321889067,0.848889906157016,0.0754406042572668
1580417140.19583,-0.520271610589761,0.847913328755627,0.0715342946517126
1580417140.19983,-0.518806744487678,0.846936751354239,0.0749523155565726
1580417140.20383,-0.518318455786984,0.847425040054933,0.070557717250324
1580417140.20783,-0.51783016708629,0.850354772259099,0.0661631189440754
1580417140.21183,-0.518806744487678,0.854261081864653,0.0715342946517126
1580417140.21582,-0.520759899290455,0.848889906157016,0.0695811398489354
1580417140.21982,-0.523689631494621,0.851819638361182,0.070557717250324
1580417140.22382,-0.523689631494621,0.855725947966736,0.073975738155184
1580417140.22782,-0.520759899290455,0.85621423666743,0.0710460059510183
1580417140.23182,-0.52124818799115,0.853772793163959,0.0661631189440754
1580417140.23582,-0.519783321889067,0.855725947966736,0.0729991607537954
1580417140.23982,-0.519783321889067,0.85621423666743,0.0700694285496297
1580417140.24382,-0.520271610589761,0.858167391470207,0.0646982528419926
1580417140.24781,-0.521736476691844,0.861097123674373,0.0656748302433812
1580417140.25181,-0.52124818799115,0.860120546272984,0.0715342946517126
1580417140.25581,-0.522224765392538,0.860608834973679,0.0695811398489354
1580417140.25981,-0.522713054093233,0.862561989776456,0.0744640268558783
1580417140.26381,-0.521736476691844,0.862073701075762,0.0788586251621268
1580417140.26781,-0.523689631494621,0.859143968871596,0.0778820477607383
1580417140.27181,-0.519783321889067,0.859143968871596,0.0793469138628211
1580417140.27582,-0.523689631494621,0.860608834973679,0.0886243991760125
1580417140.27982,-0.522224765392538,0.859143968871596,0.0871595330739297
1580417140.28381,-0.520271610589761,0.85963225757229,0.0817883573662925
1580417140.28781,-0.522224765392538,0.85621423666743,0.0813000686655982
1580417140.29181,-0.522224765392538,0.855725947966736,0.0876478217746239
1580417140.29581,-0.526619363698787,0.858655680170902,0.0896009765774011
1580417140.29981,-0.523201342793927,0.855725947966736,0.0886243991760125
1580417140.30381,-0.522713054093233,0.855237659266042,0.0891126878767068
1580417140.30781,-0.523689631494621,0.853284504463264,0.0959487296864268
1580417140.31181,-0.523201342793927,0.852307927061876,0.101319905394064
1580417140.3158,-0.523201342793927,0.853772793163959,0.101319905394064
1580417140.3198,-0.522224765392538,0.85279621576257,0.101808194094758
1580417140.3238,-0.522713054093233,0.850354772259099,0.0974135957885096
1580417140.3278,-0.520759899290455,0.850354772259099,0.101319905394064
1580417140.3318,-0.523201342793927,0.848401617456322,0.101319905394064
1580417140.3358,-0.52124818799115,0.848889906157016,0.101319905394064
1580417140.3398,-0.523201342793927,0.848889906157016,0.100343327992675
1580417140.3438,-0.519295033188373,0.844983596551462,0.10424963759823
1580417140.3478,-0.520271610589761,0.844495307850767,0.101808194094758
1580417140.35179,-0.519783321889067,0.84254215304799,0.102296482795452
1580417140.3558,-0.520759899290455,0.84254215304799,0.106691081101701
1580417140.3598,-0.519783321889067,0.841565575646602,0.103761348897535
1580417140.3638,-0.520759899290455,0.843518730449379,0.103761348897535
1580417140.3678,-0.522224765392538,0.845471885252156,0.104737926298924
1580417140.3718,-0.51783016708629,0.84937819485771,0.101808194094758
1580417140.3758,-0.520271610589761,0.84937819485771,0.0925307087815668
1580417140.3798,-0.519783321889067,0.853772793163959,0.0944838635843439
1580417140.3838,-0.520759899290455,0.852307927061876,0.096437018387121
1580417140.38779,-0.523201342793927,0.850843060959793,0.0954604409857325
1580417140.39179,-0.523201342793927,0.854261081864653,0.0939955748836496
1580417140.39579,-0.520759899290455,0.852307927061876,0.0969253070878153
1580417140.39979,-0.519783321889067,0.850354772259099,0.096437018387121
1580417140.40379,-0.524177920195315,0.850843060959793,0.0935072861829553
1580417140.40779,-0.522713054093233,0.847425040054933,0.102784771496147
1580417140.41179,-0.523201342793927,0.844983596551462,0.108155947203784
1580417140.41578,-0.522224765392538,0.845471885252156,0.103273060196841
1580417140.41978,-0.52466620889601,0.843518730449379,0.102784771496147
1580417140.42378,-0.524177920195315,0.841565575646602,0.0920424200808725
1580417140.42778,-0.523201342793927,0.848889906157016,0.0852063782711525
1580417140.43178,-0.525154497596704,0.850843060959793,0.0861829556725411
1580417140.43576,-0.520271610589761,0.850843060959793,0.0847180895704582
1580417140.43976,-0.525154497596704,0.853772793163959,0.0861829556725411
1580417140.44376,-0.522224765392538,0.854261081864653,0.0832532234683754
1580417140.44776,-0.52466620889601,0.853772793163959,0.0871595330739297
1580417140.45176,-0.523201342793927,0.851331349660487,0.0769054703593497
1580417140.45575,-0.521736476691844,0.850354772259099,0.0842298008697639
1580417140.45975,-0.522224765392538,0.853772793163959,0.077393759060044
1580417140.46375,-0.520271610589761,0.857190814068819,0.0729991607537954
1580417140.46775,-0.519783321889067,0.857190814068819,0.0734874494544897
1580417140.47175,-0.51783016708629,0.858167391470207,0.0695811398489354
1580417140.47575,-0.519295033188373,0.859143968871596,0.0729991607537954
1580417140.47975,-0.516853589684901,0.856702525368124,0.0759288929579611
1580417140.48374,-0.516365300984207,0.854261081864653,0.077393759060044
1580417140.48774,-0.515388723582818,0.85621423666743,0.0798352025635154
1580417140.49174,-0.514900434882124,0.853284504463264,0.0817883573662925
1580417140.49574,-0.516365300984207,0.849866483558404,0.0842298008697639
1580417140.49974,-0.513435568780041,0.848889906157016,0.0817883573662925
1580417140.50374,-0.512458991378653,0.850354772259099,0.0871595330739297
1580417140.50774,-0.510505836575875,0.848401617456322,0.0871595330739297
1580417140.51174,-0.514900434882124,0.843518730449379,0.0886243991760125
1580417140.51575,-0.51441214618143,0.848889906157016,0.0896009765774011
1580417140.51974,-0.512458991378653,0.846936751354239,0.0832532234683754
1580417140.52374,-0.512458991378653,0.844495307850767,0.0813000686655982
1580417140.52774,-0.509529259174487,0.844007019150073,0.0817883573662925
1580417140.53174,-0.508552681773098,0.844495307850767,0.080811779964904
1580417140.53574,-0.509529259174487,0.848401617456322,0.0837415121690697
1580417140.53974,-0.509529259174487,0.847425040054933,0.0886243991760125
1580417140.54374,-0.512458991378653,0.850843060959793,0.080811779964904
1580417140.54774,-0.510505836575875,0.846936751354239,0.0793469138628211
1580417140.55174,-0.51099412527657,0.851819638361182,0.0749523155565726
1580417140.55573,-0.509040970473793,0.852307927061876,0.0788586251621268
1580417140.55973,-0.510505836575875,0.854261081864653,0.0788586251621268
1580417140.56373,-0.510017547875181,0.853284504463264,0.0725108720531011
1580417140.56773,-0.509529259174487,0.853284504463264,0.0690928511482412
1580417140.57173,-0.440680552376593,0.860608834973679,0.0949721522850382
1580417140.57573,-0.417242694743267,0.829846646829939,0.222415503166246
1580417140.57973,-0.566170748455024,0.758068207827879,0.0231937132829785
1580417140.58373,-0.406988632028687,0.666758220798048,-0.0920424200808725
1580417140.58772,-0.493415732051576,0.933852140077821,-0.0573739223315783
1580417140.59172,-0.605233844510566,1.07789730678263,0.0949721522850382
1580417140.59567,-0.584725719081407,1.01197833218891,0.124269474326695
1580417140.59967,-0.55201037613489,0.888441290913253,0.106202792401007
1580417140.60367,-0.522224765392538,0.806408789196613,-0.150148775463492
1580417140.60767,-0.485603112840467,0.775646601052873,-0.073975738155184
1580417140.61167,-0.51099412527657,0.772228580148013,0.121828030823224
1580417140.61567,-0.516853589684901,0.794201571679256,0.154543373769741
1580417140.61966,-0.512458991378653,0.846936751354239,0.0778820477607383
1580417140.62366,-0.505622949568933,0.852307927061876,0.0559090562294955
1580417140.62766,-0.502204928664073,0.829846646829939,0.0798352025635154
1580417140.63166,-0.51099412527657,0.821057450217442,0.103273060196841
1580417140.63566,-0.500251773861295,0.84596017395285,0.102784771496147
1580417140.63966,-0.488044556343938,0.851819638361182,0.115480277714198
1580417140.64366,-0.523689631494621,0.865491721980622,0.0959487296864268
1580417140.64766,-0.528572518501564,0.855237659266042,0.104737926298924
1580417140.65165,-0.529549095902953,0.851331349660487,0.102784771496147
1580417140.65565,-0.507087815671015,0.843518730449379,0.120851453421835
1580417140.65965,-0.511482413977264,0.855725947966736,0.133546959639887
1580417140.66365,-0.507087815671015,0.880628671702144,0.101319905394064
1580417140.66765,-0.52124818799115,0.887464713511864,0.0759288929579611
1580417140.67165,-0.526131074998093,0.885999847409781,0.0944838635843439
1580417140.67566,-0.527107652399481,0.88355840390631,0.10083161669337
1580417140.67966,-0.511482413977264,0.86988632028687,0.102296482795452
1580417140.68366,-0.526131074998093,0.879652094300756,0.10083161669337
1580417140.68765,-0.526131074998093,0.861097123674373,0.106691081101701
1580417140.69165,-0.527107652399481,0.858655680170902,0.11108567940795
1580417140.69565,-0.522713054093233,0.846448462653544,0.116456855115587
1580417140.69965,-0.529060807202258,0.851819638361182,0.119386587319752
1580417140.70365,-0.522224765392538,0.850354772259099,0.126710917830167
1580417140.70765,-0.519295033188373,0.849866483558404,0.115480277714198
1580417140.71165,-0.513435568780041,0.851331349660487,0.122316319523918
1580417140.71565,-0.518318455786984,0.855237659266042,0.125246051728084
1580417140.71965,-0.51099412527657,0.848401617456322,0.143312733653772
1580417140.72364,-0.514900434882124,0.849866483558404,0.143312733653772
1580417140.72764,-0.516365300984207,0.836682688639659,0.121828030823224
1580417140.73164,-0.520271610589761,0.830823224231327,0.106202792401007
1580417140.73564,-0.52124818799115,0.833752956435493,0.105714503700312
1580417140.73964,-0.522224765392538,0.832776379034105,0.106202792401007
1580417140.74364,-0.526131074998093,0.824475471122302,0.127199206530861
1580417140.74764,-0.522713054093233,0.810803387502862,0.129640650034332
1580417140.75163,-0.515388723582818,0.814221408407722,0.116456855115587
1580417140.75565,-0.515388723582818,0.823010605020219,0.112062256809338
1580417140.75964,-0.515388723582818,0.831311512932022,0.0993667505912867
1580417140.76364,-0.523201342793927,0.844007019150073,0.0847180895704582
1580417140.76764,-0.523201342793927,0.850354772259099,0.0881361104753182
1580417140.77164,-0.525154497596704,0.855237659266042,0.0886243991760125
1580417140.77564,-0.53150225070573,0.849866483558404,0.0896009765774011
1580417140.77964,-0.523689631494621,0.844007019150073,0.0935072861829553
1580417140.78364,-0.513923857480735,0.841077286945907,0.099855039291981
1580417140.78763,-0.511482413977264,0.84254215304799,0.117433432516975
1580417140.79163,-0.505134660868238,0.83570611123827,0.131593804837109
1580417140.79563,-0.515388723582818,0.828381780727856,0.128175783932249
1580417140.79963,-0.523689631494621,0.831799801632716,0.114015411612115
1580417140.80363,-0.536385137712672,0.844007019150073,0.0813000686655982
1580417140.80763,-0.535896849011978,0.855237659266042,0.0495613031204698
1580417140.81163,-0.526619363698787,0.867933165484093,0.0383306630045013
1580417140.81563,-0.522224765392538,0.871839475089647,0.0471198596169984
1580417140.81962,-0.51783016708629,0.860120546272984,0.0788586251621268
1580417140.82362,-0.512947280079347,0.830823224231327,0.110109102006561
1580417140.82762,-0.507087815671015,0.809826810101473,0.125734340428778
1580417140.83162,-0.513923857480735,0.809826810101473,0.118898298619058
1580417140.8356,-0.513923857480735,0.826428625925079,0.10083161669337
1580417140.8396,-0.518318455786984,0.846936751354239,0.0803234912642097
1580417140.8436,-0.522224765392538,0.868909742885482,0.0822766460669868
1580417140.8476,-0.520271610589761,0.878187228198673,0.0939955748836496
1580417140.8516,-0.519295033188373,0.875257495994507,0.0993667505912867
1580417140.85559,-0.520759899290455,0.870862897688259,0.0988784618905925
1580417140.85959,-0.52124818799115,0.867933165484093,0.0920424200808725
1580417140.86359,-0.522713054093233,0.867444876783399,0.0842298008697639
1580417140.86759,-0.526131074998093,0.861097123674373,0.0793469138628211
1580417140.87159,-0.530037384603647,0.852307927061876,0.0861829556725411
1580417140.87559,-0.525642786297398,0.852307927061876,0.0827649347676811
1580417140.87959,-0.519295033188373,0.849866483558404,0.0778820477607383
1580417140.88359,-0.51783016708629,0.851819638361182,0.0588387884336612
1580417140.88758,-0.521736476691844,0.867444876783399,0.0646982528419926
1580417140.89158,-0.522713054093233,0.866956588082704,0.0832532234683754
1580417140.89558,-0.51783016708629,0.855725947966736,0.0935072861829553
1580417140.89958,-0.506599526970321,0.849866483558404,0.0876478217746239
1580417140.90358,-0.504646372167544,0.847913328755627,0.0764171816586554
1580417140.90758,-0.509529259174487,0.852307927061876,0.0681162737468526
1580417140.91158,-0.510505836575875,0.861097123674373,0.0656748302433812
1580417140.91559,-0.509040970473793,0.859143968871596,0.0700694285496297
1580417140.91959,-0.511482413977264,0.866956588082704,0.0778820477607383
1580417140.92359,-0.511482413977264,0.865491721980622,0.0822766460669868
1580417140.92758,-0.509040970473793,0.867444876783399,0.0749523155565726
1580417140.93158,-0.510505836575875,0.860608834973679,0.0778820477607383
1580417140.93558,-0.501716639963378,0.84596017395285,0.0769054703593497
1580417140.93958,-0.492927443350881,0.834241245136187,0.0720225833524069
1580417140.94358,-0.498298619058518,0.834241245136187,0.0778820477607383
1580417140.94758,-0.504646372167544,0.838635843442436,0.080811779964904
1580417140.95158,-0.518318455786984,0.846448462653544,0.0769054703593497
1580417140.95558,-0.518806744487678,0.855725947966736,0.0842298008697639
1580417140.95957,-0.52124818799115,0.86646829938201,0.077393759060044
1580417140.96357,-0.527107652399481,0.879163805600061,0.0734874494544897
1580417140.96757,-0.527595941100175,0.889417868314641,0.0734874494544897
1580417140.97157,-0.526131074998093,0.89381246662089,0.0749523155565726
1580417140.97557,-0.520759899290455,0.890882734416724,0.0783703364614325
1580417140.97957,-0.513923857480735,0.879163805600061,0.0822766460669868
1580417140.98357,-0.516853589684901,0.865980010681316,0.0925307087815668
1580417140.98757,-0.522224765392538,0.862561989776456,0.0944838635843439
1580417140.99156,-0.520759899290455,0.853772793163959,0.0954604409857325
1580417140.99554,-0.522713054093233,0.851331349660487,0.0944838635843439
1580417140.99954,-0.516365300984207,0.844495307850767,0.0861829556725411
1580417141.00354,-0.518806744487678,0.848401617456322,0.0866712443732354
1580417141.00754,-0.515388723582818,0.841565575646602,0.0793469138628211
1580417141.01154,-0.516365300984207,0.84596017395285,0.0769054703593497
1580417141.01554,-0.514900434882124,0.844983596551462,0.0695811398489354
1580417141.01954,-0.511970702677958,0.849866483558404,0.0686045624475469
1580417141.02354,-0.510505836575875,0.854749370565347,0.0710460059510183
1580417141.02753,-0.512947280079347,0.84254215304799,0.0686045624475469
1580417141.03153,-0.512947280079347,0.84254215304799,0.0676279850461583
1580417141.03553,-0.513435568780041,0.836194399938964,0.0710460059510183
1580417141.03953,-0.513923857480735,0.839612420843824,0.0715342946517126
1580417141.04353,-0.512458991378653,0.830334935530633,0.0695811398489354
1580417141.04753,-0.514900434882124,0.830334935530633,0.067139696345464
1580417141.05153,-0.513923857480735,0.82887006942855,0.0778820477607383
1580417141.05552,-0.518806744487678,0.832776379034105,0.073975738155184
1580417141.05952,-0.518318455786984,0.831311512932022,0.0793469138628211
1580417141.06352,-0.51099412527657,0.834241245136187,0.0769054703593497
1580417141.06752,-0.515877012283513,0.833264667734799,0.073975738155184
1580417141.07152,-0.513435568780041,0.831311512932022,0.0788586251621268
1580417141.07553,-0.513435568780041,0.83570611123827,0.0778820477607383
1580417141.07953,-0.510505836575875,0.838635843442436,0.0720225833524069
1580417141.08353,-0.510505836575875,0.839612420843824,0.067139696345464
1580417141.08753,-0.512947280079347,0.84596017395285,0.0690928511482412
1580417141.09153,-0.51441214618143,0.842053864347296,0.0710460059510183
1580417141.09552,-0.509040970473793,0.835217822537576,0.0695811398489354
1580417141.09952,-0.505622949568933,0.830334935530633,0.067139696345464
1580417141.10352,-0.50757610437171,0.831799801632716,0.0617685206378269
1580417141.10752,-0.511970702677958,0.830334935530633,0.0529793240253298
1580417141.11152,-0.517341878385595,0.840588998245213,0.0500495918211641
1580417141.11552,-0.51099412527657,0.837170977340353,0.0441901274128327
1580417141.11952,-0.430426489662013,0.82545204852369,0.0227054245822842
1580417141.12352,-0.420172426947433,0.79810788128481,0.0280766002899213
1580417141.12751,-0.474372472724498,0.805432211795225,-0.0104982070649271
1580417141.13151,-0.519783321889067,0.790783550774396,-0.0192874036774242
1580417141.13551,-0.554451819638361,0.735606927595942,0.235111009384298
1580417141.13951,-0.606210421911955,0.833752956435493,0.0988784618905925
1580417141.14351,-0.53833829251545,0.842053864347296,-0.165285725185015
1580417141.14751,-0.53833829251545,0.892347600518807,-0.0813000686655982
1580417141.15151,-0.519295033188373,0.885511558709087,0.0339360646982527
1580417141.15552,-0.488532845044633,0.852307927061876,0.0598153658350498
1580417141.15952,-0.51783016708629,0.855725947966736,0.0896009765774011
1580417141.16351,-0.563729304951552,0.884534981307699,0.0856946669718468
1580417141.16751,-0.606698710612649,0.925062943465324,0.0627450980392155
1580417141.17151,-0.608651865415426,0.946059357595178,0.0515144579232469
1580417141.17551,-0.589120317387655,0.928480964370184,0.0852063782711525
1580417141.17951,-0.552498664835584,0.897718776226444,0.135988403143358
1580417141.18351,-0.53150225070573,0.857190814068819,0.167238879987792
1580417141.18751,-0.526619363698787,0.83912413214313,0.170168612191958
1580417141.19151,-0.51783016708629,0.84254215304799,0.167238879987792
1580417141.1955,-0.521736476691844,0.855725947966736,0.154055085069047
1580417141.1995,-0.537361715114061,0.859143968871596,0.141359578850995
1580417141.2035,-0.537850003814755,0.85621423666743,0.141359578850995
1580417141.2075,-0.54175631342031,0.84937819485771,0.151613641565575
1580417141.2115,-0.552986953536278,0.836194399938964,0.159426260776684
1580417141.2155,-0.553963530937667,0.823010605020219,0.160891126878766
1580417141.2195,-0.557869840543221,0.816174563210499,0.157473105973907
1580417141.2235,-0.550057221332112,0.810315098802167,0.150148775463492
1580417141.22749,-0.547615777828641,0.813733119707027,0.148195620660715
1580417141.23149,-0.550545510032807,0.811291676203556,0.149172198062104
1580417141.23547,-0.546639200427252,0.809338521400779,0.156496528572518
1580417141.23947,-0.545662623025864,0.813733119707027,0.156496528572518
1580417141.24347,-0.549080643930724,0.807873655298696,0.156984817273212
1580417141.24747,-0.547615777828641,0.810315098802167,0.152101930266269
1580417141.25147,-0.551522087434195,0.81519798580911,0.147219043259327
1580417141.25547,-0.532967116807813,0.812268253604945,0.137941557946135
1580417141.25947,-0.53150225070573,0.813733119707027,0.130617227435721
1580417141.26346,-0.537361715114061,0.807873655298696,0.132570382238498
1580417141.26746,-0.546639200427252,0.824963759822996,0.135500114442664
1580417141.27146,-0.563729304951552,0.828381780727856,0.127687495231555
1580417141.27546,-0.561776150148775,0.847913328755627,0.123292896925307
1580417141.27946,-0.509040970473793,0.829358358129245,0.114991989013504
1580417141.28346,-0.496345464255741,0.805432211795225,0.115968566414892
1580417141.28746,-0.520759899290455,0.814221408407722,0.129152361333638
1580417141.29146,-0.546639200427252,0.838635843442436,0.129640650034332
1580417141.29545,-0.573006790264744,0.856702525368124,0.11450370031281
1580417141.29945,-0.547127489127947,0.86988632028687,0.0847180895704582
1580417141.30345,-0.501716639963378,0.834241245136187,0.0676279850461583
1580417141.30745,-0.49390402075227,0.823498893720913,0.0803234912642097
1580417141.31145,-0.503669794766155,0.827893492027162,0.0803234912642097
1580417141.31546,-0.529549095902953,0.846936751354239,0.0676279850461583
1580417141.31946,-0.540291447318227,0.863538567177844,0.0495613031204698
1580417141.32346,-0.52466620889601,0.853772793163959,0.0441901274128327
1580417141.32746,-0.526619363698787,0.838147554741742,0.0461432822156098
1580417141.33145,-0.537850003814755,0.83912413214313,0.0539559014267184
1580417141.33545,-0.549080643930724,0.851819638361182,0.0451667048142212
1580417141.33945,-0.551522087434195,0.871839475089647,0.0368657969024184
1580417141.34345,-0.544686045624475,0.870862897688259,0.0427252613107498
1580417141.34745,-0.549080643930724,0.87330434119173,0.0568856336308841
1580417141.35145,-0.552986953536278,0.876234073395896,0.0544441901274126
1580417141.35545,-0.546150911726558,0.870862897688259,0.0476081483176927
1580417141.35945,-0.540779736018921,0.87330434119173,0.0373540856031127
1580417141.36345,-0.537850003814755,0.869398031586176,0.0397955291065841
1580417141.36744,-0.541268024719615,0.867933165484093,0.037842374303807
1580417141.37144,-0.539314869916838,0.864515144579233,0.0295414663920042
1580417141.37544,-0.547127489127947,0.864515144579233,0.0207522697795071
1580417141.37944,-0.548104066529335,0.865491721980622,0.0168459601739528
1580417141.38344,-0.544686045624475,0.857679102769513,0.0178225375753414
1580417141.38744,-0.541268024719615,0.849866483558404,0.0124513618677042
1580417141.39144,-0.533455405508507,0.846936751354239,0.00854505226214997
1580417141.39542,-0.526131074998093,0.843518730449379,-0.000732433051041426
1580417141.39942,-0.526131074998093,0.846936751354239,-0.00708018616006711
1580417141.40341,-0.525154497596704,0.846936751354239,-0.00170901045242999
1580417141.40741,-0.523689631494621,0.841565575646602,0.000244144350347142
1580417141.41141,-0.518806744487678,0.836682688639659,-0.00219729915312428
1580417141.41541,-0.520271610589761,0.836194399938964,0.00561532005798426
1580417141.41941,-0.520271610589761,0.841077286945907,0.00122072175173571
1580417141.42341,-0.519295033188373,0.840588998245213,-0.00170901045242999
1580417141.42741,-0.518318455786984,0.846448462653544,-0.0104982070649271
1580417141.4314,-0.519295033188373,0.848401617456322,-0.0109864957656214
1580417141.4354,-0.523689631494621,0.847425040054933,-0.0109864957656214
1580417141.4394,-0.52466620889601,0.844495307850767,-0.000732433051041426
1580417141.4434,-0.522224765392538,0.843518730449379,0.00415045395590141
1580417141.4474,-0.528572518501564,0.841077286945907,0.00708018616006711
1580417141.4514,-0.530037384603647,0.84254215304799,-0.00415045395590141
1580417141.4554,-0.527595941100175,0.844007019150073,-0.0124513618677042
1580417141.4594,-0.524177920195315,0.846448462653544,-0.0212405584802013
1580417141.46339,-0.530525673304341,0.851331349660487,-0.00952162966353853
1580417141.46739,-0.535408560311284,0.857190814068819,0.00854505226214997
1580417141.47139,-0.536873426413367,0.860120546272984,0.0173342488746471
1580417141.4754,-0.530037384603647,0.865491721980622,0.0124513618677042
1580417141.4794,-0.52466620889601,0.877698939497979,-0.0075684748607614
1580417141.4834,-0.516853589684901,0.882093537804227,-0.0222171358815899
1580417141.4874,-0.510505836575875,0.884046692607004,-0.0349126420996413
1580417141.4914,-0.514900434882124,0.879163805600061,-0.0324711985961699
1580417141.4954,-0.516365300984207,0.876234073395896,-0.0212405584802013
1580417141.49939,-0.512458991378653,0.871351186388953,-0.0329594872968642
1580417141.50339,-0.510017547875181,0.865491721980622,-0.0422369726100555
1580417141.50739,-0.509529259174487,0.86305027847715,-0.0441901274128327
1580417141.51139,-0.507087815671015,0.85963225757229,-0.0339360646982527
1580417141.51539,-0.504646372167544,0.851331349660487,-0.0266117341878385
1580417141.51939,-0.50415808346685,0.841565575646602,-0.0187991149767299
1580417141.52339,-0.501228351262684,0.837659266041047,-0.0075684748607614
1580417141.52739,-0.500251773861295,0.834729533836882,-0.00122072175173571
1580417141.53138,-0.499275196459907,0.830334935530633,0.00170901045242999
1580417141.53538,-0.49732204165713,0.836682688639659,0.00610360875867855
1580417141.53938,-0.504646372167544,0.837659266041047,0.00659189745937283
1580417141.54338,-0.506599526970321,0.83570611123827,0.0124513618677042
1580417141.54738,-0.51099412527657,0.837170977340353,0.0139162279697871
1580417141.55138,-0.518318455786984,0.83570611123827,0.0158693827725642
1580417141.55539,-0.525154497596704,0.840588998245213,0.0158693827725642
1580417141.55939,-0.526619363698787,0.836682688639659,0.0231937132829785
1580417141.56339,-0.531013962005035,0.835217822537576,0.0368657969024184
1580417141.56738,-0.53833829251545,0.831311512932022,0.0476081483176927
1580417141.57138,-0.536873426413367,0.831799801632716,0.048096437018387
1580417141.57538,-0.53150225070573,0.82887006942855,0.0485847257190812
1580417141.57938,-0.535896849011978,0.836194399938964,0.0422369726100555
1580417141.58338,-0.539314869916838,0.845471885252156,0.0393072404058898
1580417141.58738,-0.540291447318227,0.84596017395285,0.0334477759975584
1580417141.59138,-0.539314869916838,0.844983596551462,0.0363775082017241
1580417141.59538,-0.538826581216144,0.847913328755627,0.0388189517051956
1580417141.59938,-0.536385137712672,0.850843060959793,0.0305180437933927
1580417141.60337,-0.529060807202258,0.855237659266042,0.0231937132829785
1580417141.60737,-0.526131074998093,0.863538567177844,0.0187991149767299
1580417141.61137,-0.525642786297398,0.870862897688259,0.0153810940718699
1580417141.61537,-0.521736476691844,0.869398031586176,0.0178225375753414
1580417141.61937,-0.518318455786984,0.868909742885482,0.00122072175173571
1580417141.62337,-0.513923857480735,0.868421454184787,-0.0144045166704814
1580417141.62737,-0.512458991378653,0.867933165484093,-0.0187991149767299
1580417141.63136,-0.511970702677958,0.870862897688259,-0.0197756923781185
1580417141.63534,-0.519295033188373,0.870374608987564,-0.0183108262760356
1580417141.63934,-0.519295033188373,0.865980010681316,-0.0153810940718699
1580417141.64334,-0.522224765392538,0.862561989776456,-0.00854505226214997
1580417141.64734,-0.52466620889601,0.859143968871596,0.000244144350347142
1580417141.65134,-0.527595941100175,0.85279621576257,0.00805676356145568
1580417141.65534,-0.523689631494621,0.851819638361182,0.0148928053711757
1580417141.65934,-0.52466620889601,0.842053864347296,0.0222171358815899
1580417141.66334,-0.519783321889067,0.845471885252156,0.024170290684367
1580417141.66734,-0.52808422980087,0.847913328755627,0.037842374303807
1580417141.67133,-0.53150225070573,0.847913328755627,0.0437018387121384
1580417141.67533,-0.533943694209201,0.847913328755627,0.0583504997329669
1580417141.67933,-0.53492027161059,0.847425040054933,0.0729991607537954
1580417141.68333,-0.546150911726558,0.842053864347296,0.0876478217746239
1580417141.68733,-0.555916685740444,0.83912413214313,0.101808194094758
1580417141.69133,-0.556404974441138,0.82887006942855,0.102296482795452
1580417141.69533,-0.545662623025864,0.819592584115359,0.0910658426794839
1580417141.69932,-0.539314869916838,0.830334935530633,0.077393759060044
1580417141.70332,-0.537850003814755,0.844007019150073,0.0588387884336612
1580417141.70732,-0.528572518501564,0.850354772259099,0.048096437018387
1580417141.71132,-0.525154497596704,0.857190814068819,0.0383306630045013
1580417141.71533,-0.522224765392538,0.855725947966736,0.0427252613107498
1580417141.71933,-0.519295033188373,0.858655680170902,0.0397955291065841
1580417141.72333,-0.515877012283513,0.857190814068819,0.0358892195010299
1580417141.72733,-0.517341878385595,0.851819638361182,0.0427252613107498
1580417141.73133,-0.523201342793927,0.849866483558404,0.034424353398947
1580417141.73532,-0.522224765392538,0.848401617456322,0.0246585793850613
1580417141.73932,-0.523689631494621,0.851819638361182,0.00854505226214997
1580417141.74332,-0.522713054093233,0.847913328755627,0.00903334096284425
1580417141.74732,-0.524177920195315,0.837659266041047,0.0251468680857556
1580417141.75132,-0.535408560311284,0.840588998245213,0.0441901274128327
1580417141.75532,-0.543709468223087,0.83912413214313,0.0632333867399097
1580417141.75932,-0.547615777828641,0.843030441748684,0.0710460059510183
1580417141.76332,-0.543709468223087,0.849866483558404,0.0632333867399097
1580417141.76731,-0.542244602121004,0.862073701075762,0.0524910353246355
1580417141.77131,-0.54175631342031,0.871351186388953,0.048096437018387
1580417141.77531,-0.544686045624475,0.875745784695201,0.0393072404058898
1580417141.77931,-0.550057221332112,0.879652094300756,0.0246585793850613
1580417141.78331,-0.543709468223087,0.876234073395896,0.00903334096284425
1580417141.78731,-0.54175631342031,0.879163805600061,-0.0100099183642328
1580417141.79131,-0.531013962005035,0.881116960402839,-0.0256351567864499
1580417141.79532,-0.53150225070573,0.884046692607004,-0.0329594872968642
1580417141.79932,-0.53150225070573,0.891371023117419,-0.0222171358815899
1580417141.80332,-0.537361715114061,0.887953002212559,-0.0207522697795071
1580417141.80731,-0.53492027161059,0.885023270008393,-0.0158693827725642
1580417141.81131,-0.535408560311284,0.884534981307699,-0.0227054245822842
1580417141.81531,-0.537361715114061,0.877210650797284,-0.0124513618677042
1580417141.81931,-0.544197756923781,0.867444876783399,0.0109864957656214
1580417141.82331,-0.547615777828641,0.855237659266042,0.0329594872968642
1580417141.82731,-0.550057221332112,0.840100709544519,0.0358892195010299
1580417141.83131,-0.553963530937667,0.825940337224385,0.031006332494087
1580417141.83531,-0.551522087434195,0.814221408407722,0.0266117341878385
1580417141.8393,-0.543709468223087,0.805920500495919,0.0192874036774242
1580417141.8433,-0.541268024719615,0.803479056992447,0.0212405584802013
1580417141.8473,-0.53492027161059,0.807385366598002,0.0187991149767299
1580417141.8513,-0.530525673304341,0.807385366598002,0.0163576714732585
1580417141.8553,-0.523201342793927,0.814221408407722,0.0231937132829785
1580417141.8593,-0.518806744487678,0.817639429312582,0.0231937132829785
1580417141.8633,-0.518318455786984,0.820080872816053,0.0349126420996413
1580417141.8673,-0.518806744487678,0.823010605020219,0.0485847257190812
1580417141.87129,-0.519295033188373,0.827893492027162,0.0495613031204698
1580417141.87527,-0.524177920195315,0.836194399938964,0.0456549935149155
1580417141.87927,-0.527107652399481,0.843030441748684,0.044678416113527
1580417141.88327,-0.527595941100175,0.842053864347296,0.0422369726100555
1580417141.88727,-0.525642786297398,0.837170977340353,0.041260395208667
1580417141.89127,-0.525154497596704,0.833264667734799,0.0285648889906156
1580417141.89527,-0.530037384603647,0.829358358129245,0.0261234454871442
1580417141.89927,-0.526619363698787,0.824475471122302,0.0285648889906156
1580417141.90327,-0.525154497596704,0.819104295414665,0.0349126420996413
1580417141.90726,-0.529549095902953,0.814709697108416,0.0524910353246355
1580417141.91126,-0.532967116807813,0.810803387502862,0.0617685206378269
1580417141.91526,-0.534431982909895,0.809338521400779,0.0725108720531011
1580417141.91926,-0.537361715114061,0.810315098802167,0.0803234912642097
1580417141.92326,-0.538826581216144,0.81177996490425,0.0979018844892039
1580417141.92726,-0.537850003814755,0.81861600671397,0.0881361104753182
1580417141.93126,-0.537361715114061,0.82203402761883,0.0759288929579611
1580417141.93526,-0.534431982909895,0.827405203326467,0.0612802319371326
1580417141.93925,-0.535408560311284,0.834729533836882,0.0441901274128327
1580417141.94325,-0.533943694209201,0.841077286945907,0.0373540856031127
1580417141.94725,-0.533943694209201,0.844983596551462,0.031006332494087
1580417141.95125,-0.533943694209201,0.85279621576257,0.0251468680857556
1580417141.95526,-0.53492027161059,0.858167391470207,0.0187991149767299
1580417141.95926,-0.529060807202258,0.862561989776456,0.00512703135728998
1580417141.96326,-0.529060807202258,0.863538567177844,0.00170901045242999
1580417141.96726,-0.532967116807813,0.86988632028687,-0.00317387655451284
1580417141.97126,-0.537361715114061,0.876234073395896,0.00317387655451284
1580417141.97526,-0.541268024719615,0.876234073395896,-0.000244144350347142
1580417141.97925,-0.546150911726558,0.874280918593119,-0.00122072175173571
1580417141.98325,-0.546150911726558,0.875745784695201,0.00268558785381856
1580417141.98725,-0.546150911726558,0.871351186388953,-0.00219729915312428
1580417141.99125,-0.547127489127947,0.867444876783399,0.00366216525520713
1580417141.99525,-0.54859235523003,0.86305027847715,0.00512703135728998
1580417141.99925,-0.547615777828641,0.860608834973679,0.00561532005798426
1580417142.00325,-0.539314869916838,0.857190814068819,0.0104982070649271
1580417142.00724,-0.53833829251545,0.850843060959793,0.0183108262760356
1580417142.01124,-0.53492027161059,0.850843060959793,0.0271000228885327
1580417142.01524,-0.53492027161059,0.850354772259099,0.037842374303807
1580417142.01924,-0.536873426413367,0.847913328755627,0.0476081483176927
1580417142.02324,-0.535896849011978,0.83912413214313,0.0451667048142212
1580417142.02724,-0.536873426413367,0.834729533836882,0.0500495918211641
1580417142.03124,-0.530037384603647,0.832776379034105,0.0549324788281069
1580417142.03522,-0.527107652399481,0.834241245136187,0.0529793240253298
1580417142.03922,-0.523689631494621,0.840588998245213,0.0607919432364383
1580417142.04321,-0.518318455786984,0.844495307850767,0.0593270771343555
1580417142.04721,-0.512458991378653,0.848889906157016,0.0627450980392155
1580417142.05121,-0.50415808346685,0.851331349660487,0.0495613031204698
1580417142.05521,-0.50415808346685,0.857679102769513,0.0314946211947813
1580417142.05921,-0.511970702677958,0.857679102769513,0.0349126420996413
1580417142.06321,-0.520271610589761,0.854261081864653,0.0451667048142212
1580417142.06721,-0.52808422980087,0.860608834973679,0.0495613031204698
1580417142.07121,-0.537850003814755,0.870862897688259,0.0456549935149155
1580417142.0752,-0.539803158617532,0.870374608987564,0.0383306630045013
1580417142.0792,-0.538826581216144,0.862073701075762,0.0388189517051956
1580417142.0832,-0.539314869916838,0.846448462653544,0.0485847257190812
1580417142.0872,-0.532967116807813,0.836194399938964,0.0539559014267184
1580417142.0912,-0.532478828107118,0.840100709544519,0.037842374303807
1580417142.0952,-0.523201342793927,0.846448462653544,0.0163576714732585
1580417142.0992,-0.52124818799115,0.854261081864653,0.00219729915312428
1580417142.1032,-0.516365300984207,0.85621423666743,0.00317387655451284
1580417142.10719,-0.513435568780041,0.855725947966736,0.00561532005798426
1580417142.11119,-0.51099412527657,0.855725947966736,-0.00415045395590141
1580417142.1152,-0.512947280079347,0.854261081864653,-0.00268558785381856
1580417142.1192,-0.519783321889067,0.853772793163959,0.00415045395590141
1580417142.1232,-0.523689631494621,0.852307927061876,0.0192874036774242
1580417142.1272,-0.529060807202258,0.848889906157016,0.0280766002899213
1580417142.1312,-0.532967116807813,0.848401617456322,0.0319829098954756
1580417142.1352,-0.53492027161059,0.846448462653544,0.0354009308003356
1580417142.1392,-0.536385137712672,0.844983596551462,0.041260395208667
1580417142.14319,-0.537361715114061,0.843030441748684,0.0334477759975584
1580417142.14719,-0.533943694209201,0.844007019150073,0.0349126420996413
1580417142.15119,-0.532967116807813,0.847913328755627,0.0300297550926985
1580417142.15519,-0.535896849011978,0.850354772259099,0.0246585793850613
1580417142.15919,-0.535896849011978,0.851331349660487,0.0183108262760356
1580417142.16319,-0.535896849011978,0.854261081864653,0.01196307316701
1580417142.16719,-0.535896849011978,0.852307927061876,0.0114747844663157
1580417142.17119,-0.535896849011978,0.847913328755627,0.0100099183642328
1580417142.17518,-0.53833829251545,0.848401617456322,0.01196307316701
1580417142.17918,-0.536873426413367,0.844495307850767,0.00903334096284425
1580417142.18318,-0.539803158617532,0.843030441748684,0.00170901045242999
1580417142.18718,-0.540291447318227,0.844495307850767,-0.00903334096284425
1580417142.19118,-0.538826581216144,0.844495307850767,-0.0100099183642328
1580417142.19519,-0.546150911726558,0.843030441748684,0.00708018616006711
1580417142.19919,-0.54175631342031,0.842053864347296,0.0114747844663157
1580417142.20319,-0.540291447318227,0.840100709544519,0.00659189745937283
1580417142.20719,-0.537850003814755,0.841565575646602,0.00610360875867855
1580417142.21118,-0.537850003814755,0.843030441748684,0.00952162966353853
1580417142.21518,-0.539314869916838,0.843030441748684,0.0124513618677042
1580417142.21918,-0.539803158617532,0.840588998245213,0.0158693827725642
1580417142.22318,-0.534431982909895,0.842053864347296,0.0163576714732585
1580417142.22718,-0.531990539406424,0.842053864347296,0.0222171358815899
1580417142.23118,-0.528572518501564,0.843030441748684,0.027588311589227
1580417142.23518,-0.531013962005035,0.845471885252156,0.0266117341878385
1580417142.23918,-0.530525673304341,0.84254215304799,0.0319829098954756
1580417142.24318,-0.53150225070573,0.839612420843824,0.0305180437933927
1580417142.24717,-0.534431982909895,0.841077286945907,0.0358892195010299
1580417142.25117,-0.534431982909895,0.838635843442436,0.0349126420996413
1580417142.25517,-0.533455405508507,0.838147554741742,0.041260395208667
1580417142.25917,-0.531990539406424,0.841077286945907,0.0476081483176927
1580417142.26317,-0.530525673304341,0.841077286945907,0.0456549935149155
1580417142.26717,-0.532478828107118,0.841565575646602,0.0476081483176927
1580417142.27117,-0.532478828107118,0.844495307850767,0.048096437018387
1580417142.27515,-0.532478828107118,0.84254215304799,0.0422369726100555
1580417142.27915,-0.533455405508507,0.845471885252156,0.0363775082017241
1580417142.28314,-0.53150225070573,0.845471885252156,0.0339360646982527
1580417142.28714,-0.533943694209201,0.846936751354239,0.0373540856031127
1580417142.29114,-0.536385137712672,0.84596017395285,0.0319829098954756
1580417142.29514,-0.533455405508507,0.84596017395285,0.0295414663920042
1580417142.29914,-0.530525673304341,0.846936751354239,0.027588311589227
1580417142.30314,-0.532967116807813,0.846448462653544,0.0192874036774242
1580417142.30714,-0.528572518501564,0.84596017395285,0.0148928053711757
1580417142.31113,-0.527595941100175,0.850354772259099,0.0129396505683985
1580417142.31513,-0.527595941100175,0.847425040054933,0.0163576714732585
1580417142.31913,-0.52466620889601,0.847425040054933,0.0173342488746471
1580417142.32313,-0.52466620889601,0.847913328755627,0.0178225375753414
1580417142.32713,-0.528572518501564,0.844495307850767,0.0236820019836728
1580417142.33113,-0.52808422980087,0.842053864347296,0.0290531776913099
1580417142.33513,-0.52808422980087,0.838635843442436,0.0290531776913099
1580417142.33913,-0.533455405508507,0.83912413214313,0.0319829098954756
1580417142.34312,-0.531013962005035,0.840100709544519,0.0388189517051956
1580417142.34712,-0.529549095902953,0.840588998245213,0.0393072404058898
1580417142.35112,-0.533455405508507,0.844007019150073,0.0373540856031127
1580417142.35513,-0.535896849011978,0.843518730449379,0.041260395208667
1580417142.35913,-0.534431982909895,0.845471885252156,0.0397955291065841
1580417142.36313,-0.539803158617532,0.84937819485771,0.034424353398947
1580417142.36713,-0.536873426413367,0.847425040054933,0.0349126420996413
1580417142.37113,-0.537361715114061,0.84937819485771,0.0329594872968642
1580417142.37513,-0.532478828107118,0.84937819485771,0.0314946211947813
1580417142.37912,-0.531990539406424,0.850843060959793,0.0285648889906156
1580417142.38312,-0.527595941100175,0.853284504463264,0.0261234454871442
1580417142.38712,-0.527107652399481,0.852307927061876,0.0295414663920042
1580417142.39112,-0.530037384603647,0.848889906157016,0.0290531776913099
1580417142.39512,-0.530525673304341,0.848889906157016,0.027588311589227
1580417142.39912,-0.529549095902953,0.848401617456322,0.0300297550926985
1580417142.40312,-0.53492027161059,0.84937819485771,0.027588311589227
1580417142.40712,-0.532967116807813,0.851819638361182,0.0329594872968642
1580417142.41111,-0.535896849011978,0.853284504463264,0.0285648889906156
1580417142.41511,-0.536385137712672,0.84937819485771,0.0280766002899213
1580417142.41911,-0.538826581216144,0.850843060959793,0.0280766002899213
1580417142.42311,-0.539314869916838,0.847913328755627,0.0227054245822842
1580417142.42711,-0.537361715114061,0.850843060959793,0.0285648889906156
1580417142.43111,-0.53492027161059,0.846936751354239,0.0207522697795071
1580417142.43509,-0.536873426413367,0.847425040054933,0.0222171358815899
1580417142.43909,-0.537361715114061,0.848889906157016,0.0271000228885327
1580417142.44309,-0.53833829251545,0.84596017395285,0.0222171358815899
1580417142.44708,-0.538826581216144,0.847425040054933,0.0202639810788128
1580417142.45108,-0.53833829251545,0.85279621576257,0.024170290684367
1580417142.45508,-0.538826581216144,0.848889906157016,0.0271000228885327
1580417142.45908,-0.540779736018921,0.846936751354239,0.0324711985961699
1580417142.46308,-0.547127489127947,0.846936751354239,0.034424353398947
1580417142.46708,-0.552498664835584,0.844495307850767,0.0222171358815899
1580417142.47108,-0.554940108339055,0.84596017395285,0.0163576714732585
1580417142.47508,-0.554451819638361,0.846448462653544,0.0173342488746471
1580417142.47907,-0.546150911726558,0.844495307850767,0.01196307316701
1580417142.48307,-0.542732890821698,0.844495307850767,0.0183108262760356
1580417142.48707,-0.537850003814755,0.844007019150073,0.0285648889906156
1580417142.49107,-0.54175631342031,0.840588998245213,0.037842374303807
1580417142.49507,-0.54859235523003,0.844495307850767,0.0393072404058898
1580417142.49907,-0.547615777828641,0.846448462653544,0.0354009308003356
1580417142.50307,-0.546150911726558,0.847425040054933,0.0373540856031127
1580417142.50707,-0.547615777828641,0.846936751354239,0.0383306630045013
1580417142.51107,-0.542732890821698,0.853772793163959,0.0432135500114441
1580417142.51507,-0.540779736018921,0.853284504463264,0.0466315709163041
1580417142.51907,-0.542244602121004,0.84937819485771,0.0515144579232469
1580417142.52307,-0.535896849011978,0.850843060959793,0.0500495918211641
1580417142.52707,-0.536385137712672,0.851331349660487,0.0476081483176927
1580417142.53107,-0.534431982909895,0.850843060959793,0.0476081483176927
1580417142.53507,-0.530037384603647,0.850354772259099,0.0388189517051956
1580417142.53907,-0.529549095902953,0.850354772259099,0.0441901274128327
1580417142.54307,-0.528572518501564,0.846448462653544,0.041260395208667
1580417142.54707,-0.531990539406424,0.847425040054933,0.0437018387121384
1580417142.55106,-0.530037384603647,0.847425040054933,0.0329594872968642
1580417142.55506,-0.530525673304341,0.849866483558404,0.0490730144197755
1580417142.55906,-0.529060807202258,0.85279621576257,0.0554207675288012
1580417142.56306,-0.534431982909895,0.851819638361182,0.0559090562294955
1580417142.56706,-0.534431982909895,0.853284504463264,0.0578622110322726
1580417142.57106,-0.541268024719615,0.854749370565347,0.0573739223315783
1580417142.57506,-0.544686045624475,0.851331349660487,0.0676279850461583
1580417142.57905,-0.547615777828641,0.850354772259099,0.0627450980392155
1580417142.58305,-0.547127489127947,0.847913328755627,0.073975738155184
1580417142.58705,-0.546150911726558,0.847913328755627,0.0778820477607383
1580417142.59105,-0.546150911726558,0.842053864347296,0.0769054703593497
1580417142.59506,-0.547615777828641,0.836682688639659,0.0783703364614325
1580417142.59906,-0.549080643930724,0.834729533836882,0.0886243991760125
1580417142.60306,-0.550057221332112,0.827893492027162,0.0969253070878153
1580417142.60706,-0.551033798733501,0.816662851911193,0.101808194094758
1580417142.61106,-0.550545510032807,0.81519798580911,0.110109102006561
1580417142.61506,-0.549568932631418,0.80836194399939,0.103273060196841
1580417142.61905,-0.547615777828641,0.809826810101473,0.101808194094758
1580417142.62305,-0.549568932631418,0.806408789196613,0.0939955748836496
1580417142.62705,-0.551522087434195,0.803479056992447,0.0988784618905925
1580417142.63105,-0.54859235523003,0.797131303883422,0.0935072861829553
1580417142.63505,-0.535408560311284,0.801037613488976,0.0847180895704582
1580417142.63905,-0.527595941100175,0.806897077897307,0.0725108720531011
1580417142.64305,-0.522713054093233,0.810315098802167,0.0622568093385212
1580417142.64705,-0.524177920195315,0.812268253604945,0.0534676127260241
1580417142.65104,-0.523201342793927,0.821545738918136,0.037842374303807
1580417142.65504,-0.517341878385595,0.826428625925079,0.0192874036774242
1580417142.65904,-0.509040970473793,0.838147554741742,0.0134279392690928
1580417142.66304,-0.508064393072404,0.843030441748684,0.0134279392690928
1580417142.66704,-0.51441214618143,0.852307927061876,0.0192874036774242
1580417142.67104,-0.519295033188373,0.861585412375067,0.0129396505683985
1580417142.67502,-0.521736476691844,0.875257495994507,0.0075684748607614
1580417142.67902,-0.528572518501564,0.886488136110476,-0.00122072175173571
1580417142.68301,-0.539803158617532,0.895277332722973,0.00366216525520713
1580417142.68701,-0.535408560311284,0.89723048752575,0.00610360875867855
1580417142.69101,-0.543221179522392,0.89723048752575,0.00268558785381856
1580417142.69501,-0.539803158617532,0.898695353627833,0.00805676356145568
1580417142.69901,-0.544686045624475,0.901625085831999,0.00805676356145568
1580417142.70301,-0.550057221332112,0.911390859845884,0.00219729915312428
1580417142.70701,-0.547615777828641,0.912855725947967,-0.00610360875867855
1580417142.71101,-0.548104066529335,0.912367437247273,-0.0129396505683985
1580417142.715,-0.543709468223087,0.91090257114519,-0.0124513618677042
1580417142.719,-0.536873426413367,0.90748455024033,-0.0158693827725642
1580417142.723,-0.536385137712672,0.898207064927139,-0.0207522697795071
1580417142.727,-0.535896849011978,0.889906157015336,-0.0192874036774242
1580417142.731,-0.530037384603647,0.87672236209659,-0.0100099183642328
1580417142.735,-0.52808422980087,0.864515144579233,0.00561532005798426
1580417142.739,-0.522224765392538,0.847425040054933,0.0144045166704814
1580417142.743,-0.516365300984207,0.840588998245213,0.0202639810788128
1580417142.747,-0.515877012283513,0.840100709544519,0.0285648889906156
1580417142.75099,-0.512458991378653,0.83570611123827,0.0397955291065841
1580417142.755,-0.509040970473793,0.838147554741742,0.0456549935149155
1580417142.759,-0.516853589684901,0.84254215304799,0.041260395208667
1580417142.763,-0.51441214618143,0.848889906157016,0.0339360646982527
1580417142.767,-0.511970702677958,0.852307927061876,0.0290531776913099
1580417142.771,-0.506111238269627,0.853284504463264,0.0227054245822842
1580417142.775,-0.504646372167544,0.855725947966736,0.00122072175173571
1580417142.779,-0.500251773861295,0.859143968871596,-0.0158693827725642
1580417142.783,-0.494392309452964,0.862073701075762,-0.0280766002899213
1580417142.78699,-0.488532845044633,0.867444876783399,-0.0383306630045013
1580417142.79099,-0.482673380636301,0.862073701075762,-0.0329594872968642
1580417142.79499,-0.48364995803769,0.857679102769513,-0.034424353398947
1580417142.79899,-0.484138246738384,0.86305027847715,-0.0334477759975584
1580417142.80299,-0.489509422446021,0.862073701075762,-0.0300297550926985
1580417142.80699,-0.495368886854353,0.857679102769513,-0.0324711985961699
1580417142.81099,-0.500251773861295,0.855725947966736,-0.0373540856031127
1580417142.81499,-0.49390402075227,0.847425040054933,-0.0314946211947813
1580417142.81898,-0.494392309452964,0.844983596551462,-0.0187991149767299
1580417142.82298,-0.493415732051576,0.841565575646602,-0.00170901045242999
1580417142.82698,-0.492439154650187,0.846936751354239,0.00952162966353853
1580417142.83098,-0.491950865949493,0.855237659266042,0.0163576714732585
1580417142.83496,-0.48706797894255,0.864026855878539,0.01196307316701
1580417142.83896,-0.48706797894255,0.86646829938201,0.00659189745937283
1580417142.84296,-0.492439154650187,0.872816052491036,-0.0163576714732585
1580417142.84696,-0.487556267643244,0.86988632028687,-0.0339360646982527
1580417142.85096,-0.486579690241856,0.860608834973679,-0.0397955291065841
1580417142.85495,-0.488044556343938,0.860608834973679,-0.0334477759975584
1580417142.85895,-0.495368886854353,0.86646829938201,-0.0349126420996413
1580417142.86295,-0.500251773861295,0.86988632028687,-0.0280766002899213
1580417142.86695,-0.498786907759213,0.872327763790341,-0.0256351567864499
1580417142.87095,-0.501716639963378,0.872327763790341,-0.0285648889906156
1580417142.87495,-0.506111238269627,0.874280918593119,-0.0354009308003356
1580417142.87895,-0.50074006256199,0.867444876783399,-0.0368657969024184
1580417142.88295,-0.491462577248798,0.85279621576257,-0.0393072404058898
1580417142.88694,-0.49390402075227,0.84254215304799,-0.0500495918211641
1580417142.89094,-0.492927443350881,0.833752956435493,-0.070557717250324
1580417142.89494,-0.486579690241856,0.820080872816053,-0.0939955748836496
1580417142.89894,-0.472907606622416,0.810803387502862,-0.0920424200808725
1580417142.90294,-0.464606698710613,0.805432211795225,-0.0798352025635154
1580417142.90694,-0.46655985351339,0.803479056992447,-0.0520027466239412
1580417142.91094,-0.465583276112001,0.802990768291753,-0.0339360646982527
1580417142.91495,-0.460700389105059,0.80494392309453,-0.0187991149767299
1580417142.91895,-0.459235523002976,0.801037613488976,-0.024170290684367
1580417142.92295,-0.462165255207141,0.800549324788282,-0.0349126420996413
1580417142.92694,-0.465583276112001,0.802502479591059,-0.037842374303807
1580417142.93094,-0.468024719615473,0.810803387502862,-0.0329594872968642
1580417142.93494,-0.475837338826581,0.815686274509805,-0.0373540856031127
1580417142.93894,-0.472907606622416,0.824963759822996,-0.0432135500114441
1580417142.94294,-0.476325627527276,0.82203402761883,-0.0388189517051956
1580417142.94694,-0.475349050125887,0.821057450217442,-0.0388189517051956
1580417142.95094,-0.477302204928664,0.830823224231327,-0.0305180437933927
1580417142.95493,-0.479255359731441,0.851331349660487,-0.034424353398947
1580417142.95893,-0.482185091935607,0.870862897688259,-0.0490730144197755
1580417142.96293,-0.485603112840467,0.89381246662089,-0.0852063782711525
1580417142.96693,-0.482673380636301,0.906507972838941,-0.126222629129472
1580417142.97093,-0.470954451819638,0.910414282444496,-0.156496528572518
1580417142.97493,-0.46655985351339,0.923109788662547,-0.149660486762798
1580417142.97893,-0.472907606622416,0.944594491493095,-0.142336156252384
1580417142.98293,-0.477790493629358,0.957778286411841,-0.159426260776684
1580417142.98692,-0.485114824139773,0.965102616922255,-0.167238879987792
1580417142.99092,-0.491462577248798,0.966567483024338,-0.169680323491264
1580417142.99493,-0.495857175555047,0.963637750820173,-0.167238879987792
1580417142.99893,-0.502204928664073,0.954360265506981,-0.156984817273212
1580417143.00293,-0.519783321889067,0.954848554207675,-0.138918135347524
1580417143.00693,-0.512947280079347,0.949965667200733,-0.127687495231555
1580417143.01093,-0.513923857480735,0.95533684290837,-0.119386587319752
1580417143.01493,-0.515388723582818,0.958266575112535,-0.148683909361409
1580417143.01893,-0.503181506065461,0.948012512397955,-0.168703746089875
1580417143.02292,-0.498786907759213,0.959731441214618,-0.127687495231555
1580417143.02692,-0.503181506065461,0.969497215228504,-0.105714503700312
1580417143.03092,-0.507087815671015,0.978774700541695,-0.096437018387121
1580417143.03492,-0.496345464255741,0.973891813534753,-0.101808194094758
1580417143.03892,-0.49390402075227,0.961196307316701,-0.0852063782711525
1580417143.04292,-0.488044556343938,0.948012512397955,-0.0686045624475469
1580417143.04692,-0.488044556343938,0.932387273975738,-0.0500495918211641
1580417143.05092,-0.486579690241856,0.915785458152133,-0.0295414663920042
1580417143.05491,-0.49732204165713,0.90406652933547,-0.000244144350347142
1580417143.05891,-0.499763485160601,0.89039444571603,0.0168459601739528
1580417143.06291,-0.501716639963378,0.891371023117419,0.0114747844663157
1580417143.06691,-0.494880598153658,0.885999847409781,0.0197756923781185
1580417143.07091,-0.496833752956436,0.877698939497979,0.0568856336308841
1580417143.07489,-0.495857175555047,0.884534981307699,0.0578622110322726
1580417143.07889,-0.494880598153658,0.884534981307699,0.0534676127260241
1580417143.08289,-0.494880598153658,0.881116960402839,0.0534676127260241
1580417143.08689,-0.503181506065461,0.878187228198673,0.0593270771343555
1580417143.09088,-0.502693217364767,0.88014038300145,0.0593270771343555
1580417143.09488,-0.508064393072404,0.876234073395896,0.0524910353246355
1580417143.09888,-0.508064393072404,0.864515144579233,0.0588387884336612
1580417143.10288,-0.514900434882124,0.853284504463264,0.0524910353246355
1580417143.10688,-0.516365300984207,0.84937819485771,0.0617685206378269
1580417143.11088,-0.509529259174487,0.846936751354239,0.0622568093385212
1580417143.11488,-0.503181506065461,0.839612420843824,0.0593270771343555
1580417143.11888,-0.503669794766155,0.840100709544519,0.0627450980392155
1580417143.12287,-0.502693217364767,0.840100709544519,0.0598153658350498
1580417143.12687,-0.498786907759213,0.839612420843824,0.060303654535744
1580417143.13087,-0.49732204165713,0.83570611123827,0.0607919432364383
1580417143.13487,-0.495368886854353,0.830334935530633,0.0617685206378269
1580417143.13887,-0.489997711146716,0.80836194399939,0.0539559014267184
1580417143.14287,-0.486579690241856,0.801037613488976,0.0656748302433812
1580417143.14687,-0.487556267643244,0.793713282978562,0.080811779964904
1580417143.15087,-0.484626535439078,0.790783550774396,0.0852063782711525
1580417143.15488,-0.488044556343938,0.789806973373008,0.100343327992675
1580417143.15887,-0.49390402075227,0.785900663767453,0.11450370031281
1580417143.16287,-0.494392309452964,0.782482642862593,0.116456855115587
1580417143.16687,-0.492439154650187,0.772716868848708,0.121828030823224
1580417143.17087,-0.492439154650187,0.760997940032045,0.127687495231555
1580417143.17487,-0.491462577248798,0.748302433813993,0.128175783932249
1580417143.17887,-0.485114824139773,0.735606927595942,0.141847867551689
1580417143.18287,-0.483161669336996,0.741466392004273,0.130128938735027
1580417143.18687,-0.485114824139773,0.754650186923019,0.12475776302739
1580417143.19087,-0.489997711146716,0.768322270542459,0.113038834210727
1580417143.19486,-0.486579690241856,0.774670023651485,0.0915541313801782
1580417143.19886,-0.48706797894255,0.778576333257039,0.0852063782711525
1580417143.20286,-0.486579690241856,0.780041199359122,0.073975738155184
1580417143.20686,-0.48364995803769,0.792248416876479,0.0642099641412983
1580417143.21086,-0.483161669336996,0.800549324788282,0.0354009308003356
1580417143.21486,-0.48023193713283,0.820569161516747,0.00170901045242999
1580417143.21886,-0.472419317921721,0.835217822537576,-0.0202639810788128
1580417143.22285,-0.470954451819638,0.850354772259099,-0.0456549935149155
1580417143.22685,-0.461188677805753,0.865980010681316,-0.0588387884336612
1580417143.23085,-0.460212100404364,0.883070115205616,-0.0544441901274126
1580417143.23486,-0.456794079499504,0.895765621423667,-0.0563973449301898
1580417143.23886,-0.460700389105059,0.908461127641718,-0.0578622110322726
1580417143.24286,-0.464606698710613,0.909437705043107,-0.0656748302433812
1580417143.24686,-0.472907606622416,0.914808880750744,-0.0666514076447697
1580417143.25086,-0.48364995803769,0.921644922560464,-0.0617685206378269
1580417143.25486,-0.490974288548104,0.92799267566949,-0.048096437018387
1580417143.25885,-0.498786907759213,0.931898985275044,-0.0368657969024184
1580417143.26285,-0.502204928664073,0.942153047989624,-0.0314946211947813
1580417143.26685,-0.50757610437171,0.947035934996567,-0.0339360646982527
1580417143.27085,-0.503181506065461,0.954848554207675,-0.044678416113527
1580417143.27485,-0.501716639963378,0.950453955901427,-0.0607919432364383
1580417143.27885,-0.495857175555047,0.948989089799344,-0.0666514076447697
1580417143.28285,-0.492439154650187,0.950942244602121,-0.0568856336308841
1580417143.28685,-0.489997711146716,0.958266575112535,-0.0559090562294955
1580417143.29084,-0.49048599984741,0.960708018616007,-0.0632333867399097
1580417143.29484,-0.488532845044633,0.956313420309758,-0.0661631189440754
1580417143.29884,-0.489509422446021,0.947524223697261,-0.0695811398489354
1580417143.30284,-0.491462577248798,0.932387273975738,-0.0617685206378269
1580417143.30684,-0.492927443350881,0.925062943465324,-0.0476081483176927
1580417143.31084,-0.494880598153658,0.916273746852827,-0.037842374303807
1580417143.31482,-0.488532845044633,0.907972838941024,-0.0437018387121384
1580417143.31882,-0.48364995803769,0.895277332722973,-0.044678416113527
1580417143.32282,-0.481696803234913,0.883070115205616,-0.0373540856031127
1580417143.32681,-0.48023193713283,0.872327763790341,-0.037842374303807
1580417143.33081,-0.481696803234913,0.87330434119173,-0.0271000228885327
1580417143.33481,-0.486579690241856,0.864026855878539,-0.00854505226214997
1580417143.33881,-0.489509422446021,0.863538567177844,0.0148928053711757
1580417143.34281,-0.49048599984741,0.861097123674373,0.027588311589227
1580417143.34681,-0.500251773861295,0.852307927061876,0.0314946211947813
1580417143.35081,-0.500251773861295,0.844495307850767,0.0373540856031127
1580417143.35481,-0.496833752956436,0.837659266041047,0.0324711985961699
1580417143.3588,-0.491462577248798,0.83912413214313,0.041260395208667
1580417143.3628,-0.493415732051576,0.829358358129245,0.0510261692225527
1580417143.3668,-0.495368886854353,0.818127718013276,0.0642099641412983
1580417143.3708,-0.496345464255741,0.818127718013276,0.0529793240253298
1580417143.3748,-0.495368886854353,0.819104295414665,0.048096437018387
1580417143.3788,-0.494880598153658,0.829846646829939,0.0397955291065841
1580417143.3828,-0.494880598153658,0.829846646829939,0.0246585793850613
1580417143.3868,-0.494392309452964,0.832776379034105,0.0153810940718699
1580417143.39079,-0.488532845044633,0.844007019150073,0.00268558785381856
1580417143.39481,-0.488044556343938,0.857679102769513,0.00512703135728998
1580417143.3988,-0.48364995803769,0.869398031586176,-0.0139162279697871
1580417143.4028,-0.484138246738384,0.871839475089647,-0.024170290684367
1580417143.4068,-0.484138246738384,0.876234073395896,-0.0271000228885327
1580417143.4108,-0.487556267643244,0.877210650797284,-0.0207522697795071
1580417143.4148,-0.486579690241856,0.879652094300756,-0.0134279392690928
1580417143.4188,-0.489509422446021,0.874769207293813,0.00219729915312428
1580417143.4228,-0.49048599984741,0.868909742885482,0.0256351567864499
1580417143.4268,-0.497810330357824,0.865003433279927,0.0368657969024184
1580417143.43079,-0.497810330357824,0.86646829938201,0.0476081483176927
1580417143.43479,-0.49048599984741,0.866956588082704,0.034424353398947
1580417143.43879,-0.486579690241856,0.867444876783399,0.0207522697795071
1580417143.44279,-0.484626535439078,0.865491721980622,0.01196307316701
1580417143.44679,-0.485114824139773,0.869398031586176,0.00415045395590141
1580417143.45079,-0.48706797894255,0.86988632028687,-0.0114747844663157
1580417143.45479,-0.489021133745327,0.875257495994507,-0.0231937132829785
1580417143.45879,-0.489021133745327,0.88697642481117,-0.034424353398947
1580417143.46278,-0.491462577248798,0.899671931029221,-0.0417486839093613
1580417143.46678,-0.488044556343938,0.899671931029221,-0.0515144579232469
1580417143.47078,-0.488044556343938,0.905043106736859,-0.0490730144197755
1580417143.47476,-0.482185091935607,0.90748455024033,-0.0534676127260241
1580417143.47876,-0.486091401541161,0.899183642328527,-0.0520027466239412
1580417143.48276,-0.493415732051576,0.899183642328527,-0.0295414663920042
1580417143.48676,-0.504646372167544,0.907972838941024,-0.01196307316701
1580417143.49076,-0.500251773861295,0.915297169451438,-0.027588311589227
1580417143.49476,-0.490974288548104,0.901625085831999,-0.0539559014267184
1580417143.49875,-0.475349050125887,0.895277332722973,-0.0607919432364383
1580417143.50275,-0.481696803234913,0.892347600518807,-0.0490730144197755
1580417143.50675,-0.486579690241856,0.886488136110476,-0.0363775082017241
1580417143.51075,-0.492927443350881,0.885999847409781,-0.0222171358815899
1580417143.51475,-0.49732204165713,0.879163805600061,-0.0173342488746471
1580417143.51875,-0.50074006256199,0.882093537804227,-0.0109864957656214
1580417143.52275,-0.498786907759213,0.881605249103533,0.00561532005798426
1580417143.52674,-0.50074006256199,0.879163805600061,0.0207522697795071
1580417143.53074,-0.497810330357824,0.872327763790341,0.0256351567864499
1580417143.53474,-0.497810330357824,0.870862897688259,0.0236820019836728
1580417143.53874,-0.499763485160601,0.881605249103533,0.0173342488746471
1580417143.54274,-0.500251773861295,0.894789044022279,0.00659189745937283
1580417143.54674,-0.491462577248798,0.899183642328527,0.00805676356145568
1580417143.55074,-0.489021133745327,0.895765621423667,0.00219729915312428
1580417143.55475,-0.485114824139773,0.89039444571603,0.00512703135728998
1580417143.55875,-0.481696803234913,0.89381246662089,-0.000244144350347142
1580417143.56275,-0.472907606622416,0.892347600518807,-0.00659189745937283
1580417143.56674,-0.477790493629358,0.891859311818113,-0.0222171358815899
1580417143.57074,-0.480720225833524,0.889417868314641,-0.0207522697795071
1580417143.57474,-0.482185091935607,0.887953002212559,-0.0246585793850613
1580417143.57874,-0.485114824139773,0.88697642481117,-0.0358892195010299
1580417143.58274,-0.479255359731441,0.884046692607004,-0.0466315709163041
1580417143.58674,-0.480720225833524,0.88014038300145,-0.0495613031204698
1580417143.59074,-0.479255359731441,0.872816052491036,-0.0524910353246355
1580417143.59474,-0.484626535439078,0.875745784695201,-0.0549324788281069
1580417143.59873,-0.484626535439078,0.881116960402839,-0.0539559014267184
1580417143.60273,-0.484138246738384,0.885999847409781,-0.0593270771343555
1580417143.60673,-0.481208514534218,0.890882734416724,-0.0686045624475469
1580417143.61073,-0.477790493629358,0.89039444571603,-0.0749523155565726
1580417143.61473,-0.477302204928664,0.88014038300145,-0.0710460059510183
1580417143.61873,-0.488532845044633,0.873792629892424,-0.0583504997329669
1580417143.62273,-0.489509422446021,0.868909742885482,-0.0495613031204698
1580417143.62673,-0.492927443350881,0.872327763790341,-0.044678416113527
1580417143.63072,-0.492439154650187,0.865491721980622,-0.0285648889906156
1580417143.63473,-0.489021133745327,0.862561989776456,-0.0134279392690928
1580417143.63873,-0.497810330357824,0.858167391470207,0.00366216525520713
1580417143.64273,-0.507087815671015,0.85279621576257,0.0158693827725642
1580417143.64673,-0.50757610437171,0.860608834973679,0.0261234454871442
1580417143.65073,-0.51099412527657,0.864026855878539,0.0290531776913099
1580417143.65473,-0.506111238269627,0.862561989776456,0.0324711985961699
1580417143.65873,-0.510017547875181,0.854261081864653,0.0427252613107498
1580417143.66273,-0.50415808346685,0.847425040054933,0.0451667048142212
1580417143.66672,-0.49732204165713,0.844495307850767,0.034424353398947
1580417143.67072,-0.50074006256199,0.850354772259099,0.0539559014267184
1580417143.67472,-0.504646372167544,0.87330434119173,0.0476081483176927
1580417143.67872,-0.508064393072404,0.892347600518807,0.0485847257190812
1580417143.68272,-0.50757610437171,0.904554818036164,0.0314946211947813
1580417143.68672,-0.491462577248798,0.895765621423667,0.0144045166704814
1580417143.69072,-0.479255359731441,0.869398031586176,0.037842374303807
1580417143.69472,-0.472907606622416,0.833752956435493,0.0607919432364383
1580417143.69871,-0.481696803234913,0.822522316319525,0.0720225833524069
1580417143.70271,-0.491950865949493,0.829846646829939,0.067139696345464
1580417143.70671,-0.505622949568933,0.850843060959793,0.0563973449301898
1580417143.71071,-0.50415808346685,0.860608834973679,0.0417486839093613
1580417143.71469,-0.508552681773098,0.865980010681316,0.0471198596169984
1580417143.71869,-0.509529259174487,0.860120546272984,0.0456549935149155
1580417143.72269,-0.511970702677958,0.851819638361182,0.0554207675288012
1580417143.72669,-0.506599526970321,0.859143968871596,0.0441901274128327
1580417143.73069,-0.501716639963378,0.863538567177844,0.0388189517051956
1580417143.73468,-0.498298619058518,0.86988632028687,0.0305180437933927
1580417143.73868,-0.501228351262684,0.871839475089647,0.0300297550926985
1580417143.74268,-0.500251773861295,0.868909742885482,0.0271000228885327
1580417143.74668,-0.499275196459907,0.869398031586176,0.00805676356145568
1580417143.75068,-0.491950865949493,0.871351186388953,0.00219729915312428
1580417143.75468,-0.49048599984741,0.882581826504921,-0.00708018616006711
1580417143.75868,-0.492439154650187,0.880628671702144,-0.00805676356145568
1580417143.76268,-0.489021133745327,0.889906157015336,0.00268558785381856
1580417143.76667,-0.482185091935607,0.888929579613947,0.00659189745937283
1580417143.77067,-0.474860761425193,0.881116960402839,-0.0075684748607614
1580417143.77467,-0.462165255207141,0.87672236209659,-0.0124513618677042
1580417143.77867,-0.462653543907836,0.87672236209659,-0.0178225375753414
1580417143.78267,-0.46997787441825,0.881116960402839,-0.00415045395590141
1580417143.78667,-0.478278782330053,0.880628671702144,0.00512703135728998
1580417143.79067,-0.481208514534218,0.885023270008393,0.00952162966353853
1580417143.79468,-0.480720225833524,0.885023270008393,0.0144045166704814
1580417143.79868,-0.47339589532311,0.878187228198673,0.00512703135728998
1580417143.80268,-0.471442740520333,0.871839475089647,-0.0114747844663157
1580417143.80667,-0.464606698710613,0.866956588082704,-0.00708018616006711
1580417143.81067,-0.467048142214084,0.85621423666743,-0.00512703135728998
1580417143.81467,-0.463630121309224,0.852307927061876,-0.024170290684367
1580417143.81867,-0.462165255207141,0.855725947966736,-0.0461432822156098
1580417143.82267,-0.465583276112001,0.86305027847715,-0.0715342946517126
1580417143.82667,-0.467048142214084,0.868909742885482,-0.0837415121690697
1580417143.83067,-0.470954451819638,0.868421454184787,-0.080811779964904
1580417143.83466,-0.477790493629358,0.870862897688259,-0.0769054703593497
1580417143.83866,-0.484626535439078,0.881116960402839,-0.070557717250324
1580417143.84266,-0.481696803234913,0.891859311818113,-0.0725108720531011
1580417143.84666,-0.487556267643244,0.896742198825056,-0.0788586251621268
1580417143.85066,-0.486091401541161,0.894300755321584,-0.0754406042572668
1580417143.85466,-0.488532845044633,0.89039444571603,-0.060303654535744
1580417143.85866,-0.492439154650187,0.885999847409781,-0.0529793240253298
1580417143.86266,-0.487556267643244,0.887464713511864,-0.044678416113527
1580417143.86665,-0.486579690241856,0.88697642481117,-0.0373540856031127
1580417143.87065,-0.481696803234913,0.876234073395896,-0.0187991149767299
1580417143.87463,-0.480720225833524,0.857190814068819,0.00415045395590141
1580417143.87863,-0.486091401541161,0.85963225757229,0.0144045166704814
1580417143.88263,-0.482185091935607,0.858655680170902,0.0300297550926985
1580417143.88663,-0.483161669336996,0.864026855878539,0.0505378805218584
1580417143.89063,-0.477790493629358,0.874280918593119,0.0568856336308841
1580417143.89463,-0.477302204928664,0.874769207293813,0.0642099641412983
1580417143.89863,-0.46997787441825,0.858167391470207,0.0686045624475469
1580417143.90262,-0.47339589532311,0.851331349660487,0.0886243991760125
1580417143.90662,-0.472419317921721,0.851331349660487,0.0915541313801782
1580417143.91062,-0.471442740520333,0.850843060959793,0.0837415121690697
1580417143.91462,-0.474860761425193,0.85963225757229,0.0686045624475469
1580417143.91862,-0.474860761425193,0.865491721980622,0.0539559014267184
1580417143.92262,-0.47681391622797,0.867444876783399,0.0300297550926985
1580417143.92662,-0.476325627527276,0.873792629892424,0.0271000228885327
1580417143.93062,-0.480720225833524,0.874280918593119,0.0280766002899213
1580417143.93461,-0.489021133745327,0.872816052491036,0.037842374303807
1580417143.93861,-0.496833752956436,0.876234073395896,0.0363775082017241
1580417143.94261,-0.496833752956436,0.883070115205616,0.0319829098954756
1580417143.94661,-0.492439154650187,0.886488136110476,0.034424353398947
1580417143.95061,-0.498298619058518,0.885511558709087,0.0349126420996413
1580417143.95462,-0.504646372167544,0.880628671702144,0.0490730144197755
1580417143.95862,-0.508064393072404,0.88014038300145,0.0549324788281069
1580417143.96262,-0.510505836575875,0.879163805600061,0.0529793240253298
1580417143.96662,-0.503181506065461,0.873792629892424,0.0476081483176927
1580417143.97061,-0.499275196459907,0.878187228198673,0.0407721065079727
1580417143.97461,-0.498786907759213,0.878675516899367,0.0266117341878385
1580417143.97861,-0.496833752956436,0.879652094300756,0.0109864957656214
1580417143.98261,-0.490974288548104,0.867444876783399,-0.00170901045242999
1580417143.98661,-0.48364995803769,0.864026855878539,-0.0129396505683985
1580417143.99061,-0.483161669336996,0.865980010681316,-0.0168459601739528
1580417143.99461,-0.48364995803769,0.87330434119173,-0.0163576714732585
1580417143.99861,-0.488044556343938,0.87672236209659,-0.0129396505683985
1580417144.0026,-0.486579690241856,0.881116960402839,-0.0100099183642328
1580417144.0066,-0.48364995803769,0.877698939497979,0.00854505226214997
1580417144.0106,-0.485603112840467,0.870374608987564,0.0139162279697871
1580417144.0146,-0.48023193713283,0.866956588082704,0.0227054245822842
1580417144.0186,-0.484626535439078,0.86646829938201,0.0339360646982527
1580417144.0226,-0.481696803234913,0.867444876783399,0.0256351567864499
1580417144.0266,-0.484138246738384,0.871839475089647,0.0227054245822842
1580417144.0306,-0.48023193713283,0.872816052491036,0.0129396505683985
1580417144.03461,-0.477302204928664,0.86988632028687,0.0129396505683985
1580417144.0386,-0.478278782330053,0.872327763790341,0.0163576714732585
1580417144.0426,-0.48364995803769,0.872816052491036,0.0173342488746471
1580417144.0466,-0.48706797894255,0.882581826504921,0.0100099183642328
1580417144.0506,-0.485603112840467,0.889417868314641,-0.00805676356145568
1580417144.0546,-0.483161669336996,0.895765621423667,-0.0124513618677042
1580417144.0586,-0.479255359731441,0.894300755321584,-0.00708018616006711
1580417144.0626,-0.48023193713283,0.892835889219501,0.00708018616006711
1580417144.0666,-0.474372472724498,0.898695353627833,0.00512703135728998
1580417144.0706,-0.467536430914778,0.904554818036164,-0.00903334096284425
1580417144.07459,-0.469001297016861,0.911879148546578,-0.0187991149767299
1580417144.07859,-0.46655985351339,0.915785458152133,-0.0124513618677042
1580417144.08259,-0.469001297016861,0.911879148546578,-0.0075684748607614
1580417144.08659,-0.467536430914778,0.91090257114519,-0.0100099183642328
1580417144.09059,-0.475349050125887,0.907972838941024,-0.0134279392690928
1580417144.09459,-0.473884184023804,0.89723048752575,-0.0207522697795071
1580417144.09859,-0.478767071030747,0.889906157015336,-0.0178225375753414
1580417144.10258,-0.489509422446021,0.885023270008393,-0.00415045395590141
1580417144.10658,-0.494392309452964,0.885511558709087,0.00317387655451284
1580417144.11058,-0.492439154650187,0.884534981307699,0.000732433051041426
1580417144.11456,-0.490974288548104,0.874769207293813,0.00317387655451284
1580417144.11856,-0.495857175555047,0.86305027847715,0.0246585793850613
1580417144.12256,-0.503181506065461,0.85621423666743,0.048096437018387
1580417144.12656,-0.491950865949493,0.856702525368124,0.0520027466239412
1580417144.13056,-0.477790493629358,0.84254215304799,0.0422369726100555
1580417144.13456,-0.47339589532311,0.85963225757229,0.0441901274128327
1580417144.13855,-0.474372472724498,0.851331349660487,0.0388189517051956
1580417144.14255,-0.477302204928664,0.846448462653544,0.0422369726100555
1580417144.14655,-0.471442740520333,0.849866483558404,0.0476081483176927
1580417144.15055,-0.471442740520333,0.846936751354239,0.0534676127260241
1580417144.15455,-0.474372472724498,0.846448462653544,0.0529793240253298
1580417144.15855,-0.470954451819638,0.845471885252156,0.0466315709163041
1580417144.16255,-0.47339589532311,0.846936751354239,0.0437018387121384
1580417144.16655,-0.467536430914778,0.847913328755627,0.037842374303807
1580417144.17054,-0.47339589532311,0.85621423666743,0.0227054245822842
1580417144.17454,-0.467048142214084,0.855237659266042,0.00219729915312428
1580417144.17854,-0.460700389105059,0.855237659266042,-0.00366216525520713
1580417144.18254,-0.462653543907836,0.855725947966736,-0.000244144350347142
1580417144.18654,-0.468024719615473,0.85279621576257,0.0075684748607614
1580417144.19054,-0.46997787441825,0.856702525368124,0.0100099183642328
1580417144.19455,-0.474860761425193,0.865491721980622,0.00219729915312428
1580417144.19855,-0.475837338826581,0.86988632028687,0.000732433051041426
1580417144.20255,-0.480720225833524,0.880628671702144,-0.00317387655451284
1580417144.20654,-0.485603112840467,0.881605249103533,0.00659189745937283
1580417144.21054,-0.491950865949493,0.889906157015336,0.0139162279697871
1580417144.21454,-0.49732204165713,0.898695353627833,0.0075684748607614
1580417144.21854,-0.497810330357824,0.91090257114519,-0.00122072175173571
1580417144.22254,-0.489997711146716,0.920668345159076,-0.00854505226214997
1580417144.22654,-0.483161669336996,0.922133211261158,-0.00219729915312428
1580417144.23054,-0.473884184023804,0.91432059205005,0.0114747844663157
1580417144.23454,-0.470954451819638,0.912855725947967,0.034424353398947
1580417144.23854,-0.471931029221027,0.909925993743801,0.0471198596169984
1580417144.24253,-0.464606698710613,0.909925993743801,0.0539559014267184
1580417144.24653,-0.457770656900893,0.905043106736859,0.048096437018387
1580417144.25053,-0.460212100404364,0.899671931029221,0.048096437018387
1580417144.25453,-0.460700389105059,0.896742198825056,0.0441901274128327
1580417144.25853,-0.460212100404364,0.896742198825056,0.0422369726100555
1580417144.26253,-0.461676966506447,0.895765621423667,0.034424353398947
1580417144.26653,-0.460700389105059,0.891371023117419,0.0246585793850613
1580417144.27053,-0.45972381170367,0.892835889219501,0.0178225375753414
1580417144.2745,-0.455329213397421,0.893324177920196,-0.00219729915312428
1580417144.2785,-0.450934615091173,0.887953002212559,-0.0183108262760356
1580417144.2825,-0.451911192492561,0.879652094300756,-0.00610360875867855
1580417144.2865,-0.455817502098116,0.880628671702144,-0.00219729915312428
1580417144.2905,-0.45630579079881,0.881116960402839,-0.0075684748607614
1580417144.2945,-0.455329213397421,0.883070115205616,0.000732433051041426
1580417144.2985,-0.457770656900893,0.885999847409781,0.00268558785381856
1580417144.3025,-0.456794079499504,0.885999847409781,0.0144045166704814
1580417144.30649,-0.454840924696727,0.885511558709087,0.0178225375753414
1580417144.31049,-0.45972381170367,0.888929579613947,0.01196307316701
1580417144.31449,-0.462165255207141,0.89723048752575,0.00610360875867855
1580417144.31849,-0.461188677805753,0.896742198825056,0.00903334096284425
1580417144.32249,-0.460212100404364,0.894300755321584,0.0148928053711757
1580417144.32649,-0.462653543907836,0.891371023117419,0.0153810940718699
1580417144.33049,-0.462165255207141,0.88355840390631,0.0251468680857556
1580417144.33449,-0.462653543907836,0.885511558709087,0.0334477759975584
1580417144.33849,-0.465583276112001,0.886488136110476,0.0300297550926985
1580417144.34248,-0.47339589532311,0.885023270008393,0.0329594872968642
1580417144.34648,-0.47339589532311,0.886488136110476,0.0349126420996413
1580417144.35048,-0.481696803234913,0.881605249103533,0.044678416113527
1580417144.35449,-0.485114824139773,0.873792629892424,0.0617685206378269
1580417144.35849,-0.488532845044633,0.865003433279927,0.0725108720531011
1580417144.36249,-0.478278782330053,0.859143968871596,0.0695811398489354
1580417144.36649,-0.481208514534218,0.854749370565347,0.0451667048142212
1580417144.37049,-0.482673380636301,0.846936751354239,0.0314946211947813
1580417144.37449,-0.488532845044633,0.850354772259099,0.0163576714732585
1580417144.37848,-0.489997711146716,0.859143968871596,-0.000244144350347142
1580417144.38248,-0.483161669336996,0.865003433279927,-0.0261234454871442
1580417144.38648,-0.478278782330053,0.865491721980622,-0.0490730144197755
1580417144.39048,-0.470466163118944,0.867444876783399,-0.0598153658350498
1580417144.39448,-0.482185091935607,0.879163805600061,-0.0588387884336612
1580417144.39848,-0.479255359731441,0.892835889219501,-0.0539559014267184
1580417144.40248,-0.46997787441825,0.885023270008393,-0.0427252613107498
1580417144.40648,-0.477302204928664,0.880628671702144,-0.0295414663920042
1580417144.41047,-0.484138246738384,0.884046692607004,-0.0046387426565957
1580417144.41447,-0.488044556343938,0.885999847409781,0.0100099183642328
1580417144.41847,-0.48364995803769,0.886488136110476,0.0192874036774242
1580417144.42247,-0.485114824139773,0.883070115205616,0.0295414663920042
1580417144.42647,-0.480720225833524,0.886488136110476,0.0339360646982527
1580417144.43047,-0.472419317921721,0.88697642481117,0.034424353398947
1580417144.43448,-0.462653543907836,0.889417868314641,0.0217288471808956
1580417144.43848,-0.457282368200199,0.888929579613947,0.0163576714732585
1580417144.44248,-0.45630579079881,0.88697642481117,0.0100099183642328
1580417144.44648,-0.45972381170367,0.889906157015336,0.00317387655451284
1580417144.45047,-0.458747234302281,0.896742198825056,-0.00903334096284425
1580417144.45447,-0.453864347295339,0.902113374532693,-0.0290531776913099
1580417144.45847,-0.44946974898909,0.903089951934081,-0.0432135500114441
1580417144.46247,-0.448004882887007,0.895277332722973,-0.0358892195010299
1580417144.46647,-0.450934615091173,0.885999847409781,-0.0246585793850613
1580417144.47047,-0.449958037689784,0.875745784695201,-0.00317387655451284
1580417144.47447,-0.445075150682841,0.869398031586176,0.00805676356145568
1580417144.47846,-0.44263370717937,0.868421454184787,0.0173342488746471
1580417144.48246,-0.440192263675899,0.870862897688259,0.0305180437933927
1580417144.48646,-0.437750820172427,0.865003433279927,0.037842374303807
1580417144.49046,-0.438239108873121,0.852307927061876,0.0520027466239412
1580417144.49446,-0.444098573281453,0.844983596551462,0.0627450980392155
1580417144.49846,-0.448981460288396,0.847913328755627,0.0544441901274126
1580417144.50246,-0.451911192492561,0.859143968871596,0.0402838178072784
1580417144.50646,-0.454352635996033,0.868421454184787,0.0290531776913099
1580417144.51045,-0.45630579079881,0.878187228198673,0.0227054245822842
1580417144.51443,-0.462165255207141,0.878675516899367,0.0129396505683985
1580417144.51843,-0.46997787441825,0.882581826504921,0.0100099183642328
1580417144.52243,-0.48364995803769,0.899671931029221,0.00219729915312428
1580417144.52643,-0.481208514534218,0.912855725947967,-0.0202639810788128
1580417144.53043,-0.469489585717556,0.912367437247273,-0.0158693827725642
1580417144.53443,-0.472907606622416,0.922133211261158,-0.0178225375753414
1580417144.53843,-0.469001297016861,0.918226901655604,-0.0266117341878385
1580417144.54243,-0.478767071030747,0.915785458152133,-0.0236820019836728
1580417144.54642,-0.486091401541161,0.921644922560464,-0.01196307316701
1580417144.55042,-0.493415732051576,0.913832303349356,0.000732433051041426
1580417144.55442,-0.503669794766155,0.909925993743801,-0.00610360875867855
1580417144.55842,-0.506599526970321,0.901625085831999,0.00317387655451284
1580417144.56242,-0.498786907759213,0.884046692607004,0.0134279392690928
1580417144.56642,-0.494392309452964,0.870374608987564,0.0334477759975584
1580417144.57042,-0.495368886854353,0.867933165484093,0.0476081483176927
1580417144.57442,-0.493415732051576,0.861097123674373,0.0529793240253298
1580417144.57841,-0.485603112840467,0.858167391470207,0.0534676127260241
1580417144.58241,-0.484626535439078,0.856702525368124,0.0490730144197755
1580417144.58641,-0.481208514534218,0.85621423666743,0.0515144579232469
1580417144.59041,-0.481696803234913,0.859143968871596,0.0539559014267184
1580417144.59442,-0.482185091935607,0.86646829938201,0.0441901274128327
1580417144.59842,-0.48023193713283,0.86988632028687,0.0339360646982527
1580417144.60242,-0.48023193713283,0.872327763790341,0.0280766002899213
1580417144.60642,-0.479743648432136,0.86988632028687,0.0178225375753414
1580417144.61042,-0.479255359731441,0.868909742885482,0.0148928053711757
1580417144.61441,-0.473884184023804,0.862561989776456,0.00854505226214997
1580417144.61841,-0.472907606622416,0.853284504463264,0.00659189745937283
1580417144.62241,-0.471931029221027,0.85621423666743,0.0124513618677042
1580417144.62641,-0.470954451819638,0.866956588082704,0.00219729915312428
1580417144.63041,-0.464118410009918,0.870374608987564,-0.0183108262760356
1580417144.63441,-0.460212100404364,0.873792629892424,-0.0256351567864499
1580417144.63841,-0.456794079499504,0.875257495994507,-0.0153810940718699
1580417144.64241,-0.460212100404364,0.884046692607004,-0.0100099183642328
1580417144.6464,-0.464606698710613,0.892347600518807,-0.0246585793850613
1580417144.6504,-0.45630579079881,0.898695353627833,-0.037842374303807
1580417144.6544,-0.453376058594644,0.894300755321584,-0.0495613031204698
1580417144.6584,-0.451422903791867,0.890882734416724,-0.048096437018387
1580417144.6624,-0.449958037689784,0.884046692607004,-0.034424353398947
1580417144.6664,-0.447516594186313,0.88014038300145,-0.0251468680857556
1580417144.6704,-0.448981460288396,0.885999847409781,-0.0158693827725642
1580417144.67441,-0.448981460288396,0.894789044022279,0.000732433051041426
1580417144.67841,-0.450934615091173,0.90064850843061,0.00708018616006711
1580417144.6824,-0.452399481193256,0.905043106736859,0.0158693827725642
1580417144.6864,-0.459235523002976,0.906019684138247,0.0212405584802013
1580417144.6904,-0.461676966506447,0.908461127641718,0.0314946211947813
1580417144.6944,-0.465583276112001,0.908461127641718,0.0461432822156098
1580417144.6984,-0.46997787441825,0.909437705043107,0.0529793240253298
1580417144.7024,-0.47339589532311,0.904554818036164,0.0583504997329669
1580417144.7064,-0.477302204928664,0.904554818036164,0.0554207675288012
1580417144.7104,-0.473884184023804,0.898207064927139,0.0578622110322726
1580417144.7144,-0.474860761425193,0.89381246662089,0.0471198596169984
1580417144.71839,-0.470466163118944,0.891859311818113,0.0432135500114441
1580417144.72239,-0.46997787441825,0.891371023117419,0.0295414663920042
1580417144.72639,-0.466071564812696,0.889417868314641,0.0187991149767299
1580417144.73039,-0.46314183260853,0.884534981307699,0.0129396505683985
1580417144.73439,-0.466071564812696,0.884534981307699,0.0222171358815899
1580417144.73839,-0.46997787441825,0.884046692607004,0.0212405584802013
1580417144.74239,-0.467536430914778,0.878187228198673,0.0144045166704814
1580417144.74638,-0.470466163118944,0.877698939497979,0.0144045166704814
1580417144.75038,-0.472419317921721,0.878675516899367,0.0124513618677042
1580417144.75436,-0.469001297016861,0.876234073395896,0.00610360875867855
1580417144.75836,-0.474372472724498,0.868909742885482,0.0129396505683985
1580417144.76236,-0.47681391622797,0.860608834973679,0.0295414663920042
1580417144.76636,-0.479743648432136,0.867444876783399,0.0422369726100555
1580417144.77036,-0.47339589532311,0.865980010681316,0.0407721065079727
1580417144.77436,-0.466071564812696,0.868909742885482,0.0407721065079727
1580417144.77836,-0.460212100404364,0.866956588082704,0.0300297550926985
1580417144.78235,-0.45972381170367,0.872816052491036,0.0407721065079727
1580417144.78635,-0.455817502098116,0.877698939497979,0.027588311589227
1580417144.79035,-0.451911192492561,0.884046692607004,0.0202639810788128
1580417144.79435,-0.443121995880064,0.88697642481117,0.0139162279697871
1580417144.79835,-0.445075150682841,0.886488136110476,0.0153810940718699
1580417144.80235,-0.451422903791867,0.899183642328527,0.0075684748607614
1580417144.80635,-0.447516594186313,0.90406652933547,-0.0075684748607614
1580417144.81035,-0.440192263675899,0.90748455024033,-0.0134279392690928
1580417144.81434,-0.442145418478676,0.907972838941024,-0.0139162279697871
1580417144.81834,-0.443121995880064,0.901625085831999,-0.00610360875867855
1580417144.82234,-0.451911192492561,0.90064850843061,0.00170901045242999
1580417144.82634,-0.455817502098116,0.903578240634776,0.00708018616006711
1580417144.83034,-0.454840924696727,0.902601663233387,0.0148928053711757
1580417144.83435,-0.460700389105059,0.901625085831999,0.0227054245822842
1580417144.83835,-0.467536430914778,0.895277332722973,0.0358892195010299
1580417144.84235,-0.469489585717556,0.886488136110476,0.0578622110322726
1580417144.84635,-0.474372472724498,0.88355840390631,0.0690928511482412
1580417144.85034,-0.46655985351339,0.889417868314641,0.0686045624475469
1580417144.85434,-0.462653543907836,0.88697642481117,0.0549324788281069
1580417144.85834,-0.460212100404364,0.885511558709087,0.0363775082017241
1580417144.86234,-0.457282368200199,0.883070115205616,0.0407721065079727
1580417144.86634,-0.453864347295339,0.879652094300756,0.0417486839093613
1580417144.87034,-0.455817502098116,0.878187228198673,0.0305180437933927
1580417144.87434,-0.451422903791867,0.875257495994507,0.0202639810788128
1580417144.87834,-0.448981460288396,0.88014038300145,0.01196307316701
1580417144.88233,-0.445563439383536,0.880628671702144,-0.0075684748607614
1580417144.88633,-0.44605172808423,0.884534981307699,-0.0217288471808956
1580417144.89033,-0.445563439383536,0.891859311818113,-0.0334477759975584
1580417144.89433,-0.443610284580759,0.895277332722973,-0.0461432822156098
1580417144.89833,-0.44605172808423,0.899183642328527,-0.0583504997329669
1580417144.90233,-0.447028305485619,0.902113374532693,-0.067139696345464
1580417144.90633,-0.445563439383536,0.892347600518807,-0.0598153658350498
1580417144.91033,-0.458258945601587,0.891859311818113,-0.0441901274128327
1580417144.91431,-0.464606698710613,0.888441290913253,-0.0407721065079727
1580417144.9183,-0.462653543907836,0.874769207293813,-0.0256351567864499
1580417144.9223,-0.468024719615473,0.868421454184787,-0.00805676356145568
1580417144.9263,-0.47339589532311,0.866956588082704,0.0212405584802013
1580417144.9303,-0.479255359731441,0.87672236209659,0.0305180437933927
1580417144.9343,-0.480720225833524,0.884046692607004,0.0407721065079727
1580417144.9383,-0.477302204928664,0.884046692607004,0.0437018387121384
1580417144.9423,-0.474860761425193,0.879652094300756,0.0568856336308841
1580417144.9463,-0.474372472724498,0.878675516899367,0.0764171816586554
1580417144.95029,-0.476325627527276,0.885023270008393,0.0832532234683754
1580417144.95429,-0.470466163118944,0.891859311818113,0.0720225833524069
1580417144.95829,-0.46655985351339,0.898695353627833,0.0642099641412983
1580417144.96229,-0.464606698710613,0.90064850843061,0.067139696345464
1580417144.96629,-0.461188677805753,0.901625085831999,0.0549324788281069
1580417144.97029,-0.466071564812696,0.905531395437553,0.0432135500114441
1580417144.97429,-0.469001297016861,0.908949416342413,0.0334477759975584
1580417144.97829,-0.466071564812696,0.913344014648661,0.0251468680857556
1580417144.98229,-0.466071564812696,0.918226901655604,0.0212405584802013
1580417144.98628,-0.469001297016861,0.912855725947967,0.0168459601739528
1580417144.99028,-0.457282368200199,0.911390859845884,0.00903334096284425
1580417144.99429,-0.454352635996033,0.906996261539636,0.0163576714732585
1580417144.99829,-0.456794079499504,0.894300755321584,0.0217288471808956
1580417145.00229,-0.45972381170367,0.878675516899367,0.0295414663920042
1580417145.00629,-0.458747234302281,0.870862897688259,0.0432135500114441
1580417145.01029,-0.457282368200199,0.862561989776456,0.0456549935149155
1580417145.01429,-0.457770656900893,0.855237659266042,0.0495613031204698
1580417145.01829,-0.455817502098116,0.85279621576257,0.0534676127260241
1580417145.02228,-0.457282368200199,0.855237659266042,0.0568856336308841
1580417145.02628,-0.460212100404364,0.856702525368124,0.0563973449301898
1580417145.03028,-0.45972381170367,0.862073701075762,0.0549324788281069
1580417145.03428,-0.458747234302281,0.869398031586176,0.0563973449301898
1580417145.03828,-0.462165255207141,0.880628671702144,0.0441901274128327
1580417145.04228,-0.453864347295339,0.895765621423667,0.0349126420996413
1580417145.04628,-0.448493171587701,0.90748455024033,0.0231937132829785
1580417145.05027,-0.441657129777981,0.90748455024033,0.0163576714732585
1580417145.05427,-0.443610284580759,0.909925993743801,0.0104982070649271
1580417145.05827,-0.448493171587701,0.915297169451438,0.0100099183642328
1580417145.06227,-0.450446326390479,0.919691767757687,0.0134279392690928
1580417145.06627,-0.444586861982147,0.909437705043107,0.0285648889906156
1580417145.07027,-0.448004882887007,0.903089951934081,0.0471198596169984
1580417145.07428,-0.451422903791867,0.892347600518807,0.0422369726100555
1580417145.07828,-0.448981460288396,0.884534981307699,0.041260395208667
1580417145.08228,-0.447028305485619,0.879163805600061,0.0349126420996413
1580417145.08628,-0.444586861982147,0.871351186388953,0.0319829098954756
1580417145.09027,-0.44946974898909,0.867444876783399,0.0363775082017241
1580417145.09427,-0.447516594186313,0.872327763790341,0.0324711985961699
1580417145.09827,-0.439703974975204,0.874280918593119,0.00952162966353853
1580417145.10227,-0.43579766536965,0.87672236209659,-0.00415045395590141
1580417145.10627,-0.433356221866179,0.876234073395896,-0.00268558785381856
1580417145.11027,-0.43579766536965,0.873792629892424,0.00122072175173571
1580417145.11427,-0.437750820172427,0.876234073395896,0.00415045395590141
1580417145.11827,-0.430914778362707,0.878187228198673,-0.00268558785381856
1580417145.12226,-0.433844510566873,0.883070115205616,-0.0075684748607614
1580417145.12626,-0.433356221866179,0.889906157015336,-0.00268558785381856
1580417145.13026,-0.434332799267567,0.89039444571603,0.00708018616006711
1580417145.13426,-0.437262531471733,0.890882734416724,0.0202639810788128
1580417145.13826,-0.437262531471733,0.887464713511864,0.0324711985961699
1580417145.14226,-0.443121995880064,0.885023270008393,0.0383306630045013
1580417145.14626,-0.448981460288396,0.89039444571603,0.0402838178072784
1580417145.15026,-0.45630579079881,0.896742198825056,0.0339360646982527
1580417145.15423,-0.46655985351339,0.900160219729916,0.0305180437933927
1580417145.15823,-0.475837338826581,0.899183642328527,0.0402838178072784
1580417145.16223,-0.491462577248798,0.89723048752575,0.0563973449301898
1580417145.16623,-0.49732204165713,0.901625085831999,0.0764171816586554
1580417145.17023,-0.49390402075227,0.909925993743801,0.0700694285496297
1580417145.17423,-0.491462577248798,0.913832303349356,0.0686045624475469
1580417145.17823,-0.485603112840467,0.908461127641718,0.0612802319371326
1580417145.18223,-0.478278782330053,0.908461127641718,0.060303654535744
1580417145.18623,-0.472419317921721,0.915785458152133,0.0510261692225527
1580417145.19022,-0.462653543907836,0.91432059205005,0.048096437018387
1580417145.19422,-0.448004882887007,0.916762035553521,0.0466315709163041
1580417145.19822,-0.446540016784924,0.91432059205005,0.0354009308003356
1580417145.20222,-0.444098573281453,0.91090257114519,0.0202639810788128
1580417145.20622,-0.44605172808423,0.902601663233387,0.0144045166704814
1580417145.21022,-0.444098573281453,0.895277332722973,0.00610360875867855
1580417145.21422,-0.445075150682841,0.886488136110476,-0.000244144350347142
1580417145.21822,-0.448004882887007,0.881116960402839,-0.00268558785381856
1580417145.22221,-0.445075150682841,0.87672236209659,0.00122072175173571
1580417145.22621,-0.448493171587701,0.86988632028687,0.00317387655451284
1580417145.23021,-0.449958037689784,0.862561989776456,0.00415045395590141
1580417145.23422,-0.45288776989395,0.860120546272984,0.0144045166704814
1580417145.23822,-0.455329213397421,0.861585412375067,0.0349126420996413
1580417145.24222,-0.454352635996033,0.868421454184787,0.0495613031204698
1580417145.24622,-0.451422903791867,0.867933165484093,0.0656748302433812
1580417145.25022,-0.448981460288396,0.871351186388953,0.0676279850461583
1580417145.25422,-0.439703974975204,0.878675516899367,0.067139696345464
1580417145.25821,-0.437750820172427,0.889417868314641,0.0661631189440754
1580417145.26221,-0.430914778362707,0.89039444571603,0.0642099641412983
1580417145.26621,-0.426031891355764,0.894789044022279,0.0529793240253298
1580417145.27021,-0.424567025253682,0.893324177920196,0.0358892195010299
1580417145.27421,-0.42212558175021,0.896253910124361,0.0349126420996413
1580417145.27821,-0.422613870450904,0.896742198825056,0.0163576714732585
1580417145.28221,-0.424078736552987,0.902601663233387,0.00854505226214997
1580417145.28621,-0.423102159151599,0.907972838941024,-0.00561532005798426
1580417145.29021,-0.426031891355764,0.911879148546578,-0.0144045166704814
1580417145.2942,-0.433844510566873,0.911879148546578,-0.00122072175173571
1580417145.2982,-0.43921568627451,0.90748455024033,0.00561532005798426
1580417145.3022,-0.447028305485619,0.903089951934081,0.0319829098954756
1580417145.3062,-0.44946974898909,0.903089951934081,0.0529793240253298
1580417145.3102,-0.452399481193256,0.891859311818113,0.0686045624475469
1580417145.31418,-0.456794079499504,0.884534981307699,0.0744640268558783
1580417145.31818,-0.457282368200199,0.882093537804227,0.0744640268558783
1580417145.32218,-0.459235523002976,0.882093537804227,0.0695811398489354
1580417145.32617,-0.460212100404364,0.882093537804227,0.0690928511482412
1580417145.33017,-0.456794079499504,0.883070115205616,0.0598153658350498
1580417145.33417,-0.457770656900893,0.879652094300756,0.0432135500114441
1580417145.33817,-0.451422903791867,0.87672236209659,0.0192874036774242
1580417145.34217,-0.45288776989395,0.879652094300756,0.00268558785381856
1580417145.34617,-0.455329213397421,0.885023270008393,-0.00659189745937283
1580417145.35017,-0.458747234302281,0.888441290913253,-0.00903334096284425
1580417145.35417,-0.461188677805753,0.900160219729916,-0.0236820019836728
1580417145.35816,-0.45630579079881,0.898207064927139,-0.0222171358815899
1580417145.36216,-0.45630579079881,0.908949416342413,-0.0212405584802013
1580417145.36616,-0.457282368200199,0.909437705043107,-0.0178225375753414
1580417145.37016,-0.461676966506447,0.910414282444496,0.000244144350347142
1580417145.37416,-0.46314183260853,0.90406652933547,0.0285648889906156
1580417145.37816,-0.465583276112001,0.895765621423667,0.0515144579232469
1580417145.38216,-0.472419317921721,0.895765621423667,0.0715342946517126
1580417145.38616,-0.469001297016861,0.904554818036164,0.0788586251621268
1580417145.39015,-0.467536430914778,0.90064850843061,0.067139696345464
1580417145.39417,-0.461188677805753,0.903089951934081,0.063721675440604
1580417145.39816,-0.458258945601587,0.89723048752575,0.0651865415426869
1580417145.40216,-0.448493171587701,0.901625085831999,0.0607919432364383
1580417145.40616,-0.450446326390479,0.904554818036164,0.0524910353246355
1580417145.41016,-0.436774242771039,0.911879148546578,0.0383306630045013
1580417145.41416,-0.438727397573816,0.91090257114519,0.0153810940718699
1580417145.41816,-0.430426489662013,0.910414282444496,0.0114747844663157
1580417145.42216,-0.43237964446479,0.908461127641718,0.000244144350347142
1580417145.42615,-0.433844510566873,0.907972838941024,-0.00854505226214997
1580417145.43015,-0.43237964446479,0.913344014648661,-0.00952162966353853
1580417145.43415,-0.42896162355993,0.915785458152133,-0.0144045166704814
1580417145.43815,-0.425055313954376,0.913344014648661,-0.00561532005798426
1580417145.44215,-0.433356221866179,0.898695353627833,0.0075684748607614
1580417145.44615,-0.444098573281453,0.890882734416724,0.0246585793850613
1580417145.45015,-0.454352635996033,0.878675516899367,0.0383306630045013
1580417145.45415,-0.462653543907836,0.871351186388953,0.0437018387121384
1580417145.45814,-0.461188677805753,0.871839475089647,0.0515144579232469
1580417145.46214,-0.450934615091173,0.875745784695201,0.0622568093385212
1580417145.46614,-0.438239108873121,0.860120546272984,0.0632333867399097
1580417145.47014,-0.446540016784924,0.869398031586176,0.0544441901274126
1580417145.47415,-0.451422903791867,0.905043106736859,0.0729991607537954
1580417145.47815,-0.439703974975204,0.911879148546578,0.0549324788281069
1580417145.48215,-0.430914778362707,0.892347600518807,0.0417486839093613
1580417145.48615,-0.427496757457847,0.884534981307699,0.0466315709163041
1580417145.49015,-0.430914778362707,0.886488136110476,0.0451667048142212
1580417145.49414,-0.432867933165484,0.889906157015336,0.0349126420996413
1580417145.49814,-0.434332799267567,0.894300755321584,0.0354009308003356
1580417145.50214,-0.431891355764096,0.903089951934081,0.0266117341878385
1580417145.50614,-0.431891355764096,0.903578240634776,0.00805676356145568
1580417145.51014,-0.431403067063401,0.901136797131304,-0.00317387655451284
1580417145.51414,-0.431403067063401,0.895765621423667,-0.0104982070649271
1580417145.51814,-0.43237964446479,0.89723048752575,-0.0148928053711757
1580417145.52214,-0.42896162355993,0.897718776226444,-0.0114747844663157
1580417145.52613,-0.431403067063401,0.905043106736859,-0.00708018616006711
1580417145.53013,-0.431403067063401,0.899183642328527,0.00854505226214997
1580417145.53413,-0.433356221866179,0.890882734416724,0.0158693827725642
1580417145.53813,-0.437750820172427,0.894300755321584,0.0104982070649271
1580417145.54213,-0.437750820172427,0.899671931029221,0.00903334096284425
1580417145.54613,-0.432867933165484,0.903089951934081,-0.00415045395590141
1580417145.55013,-0.431403067063401,0.91090257114519,-0.00708018616006711
1580417145.55411,-0.430914778362707,0.906996261539636,0.00708018616006711
1580417145.55811,-0.437750820172427,0.90064850843061,0.0129396505683985
1580417145.5621,-0.440192263675899,0.894300755321584,0.0183108262760356
1580417145.5661,-0.445563439383536,0.894789044022279,0.0222171358815899
1580417145.5701,-0.443121995880064,0.907972838941024,0.0192874036774242
1580417145.5741,-0.437262531471733,0.905531395437553,0.00708018616006711
1580417145.5781,-0.433356221866179,0.896253910124361,0.00854505226214997
1580417145.5821,-0.435309376668956,0.884046692607004,0.0192874036774242
1580417145.5861,-0.442145418478676,0.885511558709087,0.0305180437933927
1580417145.5901,-0.445563439383536,0.87672236209659,0.0363775082017241
1580417145.59409,-0.440192263675899,0.874769207293813,0.0314946211947813
1580417145.59809,-0.444098573281453,0.874769207293813,0.0271000228885327
1580417145.60209,-0.445075150682841,0.87672236209659,0.0187991149767299
1580417145.60609,-0.445075150682841,0.874769207293813,0.0139162279697871
1580417145.61009,-0.447516594186313,0.878675516899367,0.0075684748607614
1580417145.61409,-0.450446326390479,0.88014038300145,0.00122072175173571
1580417145.61809,-0.447028305485619,0.884534981307699,0.00610360875867855
1580417145.62209,-0.43921568627451,0.892347600518807,0.00610360875867855
1580417145.62609,-0.438727397573816,0.890882734416724,0.0114747844663157
1580417145.63008,-0.443610284580759,0.891371023117419,0.0183108262760356
1580417145.63409,-0.445563439383536,0.897718776226444,0.0207522697795071
1580417145.63809,-0.445563439383536,0.900160219729916,0.0246585793850613
1580417145.64209,-0.444098573281453,0.904554818036164,0.0300297550926985
1580417145.64609,-0.451911192492561,0.911879148546578,0.0339360646982527
1580417145.65009,-0.454352635996033,0.911879148546578,0.0388189517051956
1580417145.65409,-0.447516594186313,0.916762035553521,0.0271000228885327
1580417145.65809,-0.440192263675899,0.920180056458381,0.0256351567864499
1580417145.66208,-0.437750820172427,0.915297169451438,0.0231937132829785
1580417145.66608,-0.443121995880064,0.91090257114519,0.0397955291065841
1580417145.67008,-0.446540016784924,0.910414282444496,0.0471198596169984
1580417145.67408,-0.450446326390479,0.908949416342413,0.041260395208667
1580417145.67808,-0.446540016784924,0.91773861295491,0.0388189517051956
1580417145.68208,-0.440192263675899,0.917250324254216,0.0354009308003356
1580417145.68608,-0.440680552376593,0.910414282444496,0.0324711985961699
1580417145.69008,-0.443610284580759,0.905043106736859,0.0368657969024184
1580417145.69407,-0.442145418478676,0.889417868314641,0.0466315709163041
1580417145.69807,-0.439703974975204,0.899671931029221,0.0324711985961699
1580417145.70207,-0.430426489662013,0.90064850843061,0.01196307316701
1580417145.70607,-0.424078736552987,0.90064850843061,-0.00317387655451284
1580417145.71007,-0.422613870450904,0.892347600518807,0.000732433051041426
1580417145.71408,-0.427008468757153,0.883070115205616,-0.00122072175173571
1580417145.71808,-0.430914778362707,0.877210650797284,0.000244144350347142
1580417145.72208,-0.429938200961319,0.874280918593119,-0.00415045395590141
1580417145.72608,-0.432867933165484,0.879163805600061,0.000244144350347142
1580417145.73007,-0.435309376668956,0.886488136110476,0.00610360875867855
1580417145.73407,-0.435309376668956,0.894789044022279,-0.00170901045242999
1580417145.73807,-0.431891355764096,0.901625085831999,-0.00903334096284425
1580417145.74207,-0.433844510566873,0.909437705043107,-0.0075684748607614
1580417145.74607,-0.444098573281453,0.913344014648661,0.00708018616006711
1580417145.75007,-0.453864347295339,0.90748455024033,0.0192874036774242
1580417145.75407,-0.458258945601587,0.89039444571603,0.034424353398947
1580417145.75807,-0.459235523002976,0.879652094300756,0.0422369726100555
1580417145.76207,-0.463630121309224,0.882093537804227,0.0471198596169984
1580417145.76606,-0.468513008316167,0.897718776226444,0.0510261692225527
1580417145.77006,-0.45630579079881,0.89723048752575,0.0544441901274126
1580417145.77406,-0.449958037689784,0.887464713511864,0.0495613031204698
1580417145.77806,-0.457282368200199,0.886488136110476,0.0627450980392155
1580417145.78206,-0.457282368200199,0.88355840390631,0.0646982528419926
1580417145.78606,-0.456794079499504,0.877210650797284,0.0559090562294955
1580417145.79006,-0.454352635996033,0.885023270008393,0.0466315709163041
1580417145.79404,-0.447028305485619,0.894300755321584,0.0397955291065841
1580417145.79803,-0.440680552376593,0.90748455024033,0.0178225375753414
