Timestamp_seconds,Accel_X_g,Accel_Y_g,Accel_Z_g
1580421594.80663,-0.963637750820173,0.0417486839093613,-0.281986724650951
1580421594.81062,-0.966079194323644,0.0441901274128327,-0.277592126344702
1580421594.81462,-0.964126039520867,0.044678416113527,-0.272220950637065
1580421594.81861,-0.961684596017395,0.0451667048142212,-0.272709239337759
1580421594.8226,-0.959243152513924,0.0471198596169984,-0.262943465323874
1580421594.82659,-0.962661173418784,0.0520027466239412,-0.263920042725262
1580421594.83059,-0.962661173418784,0.0554207675288012,-0.260013733119708
1580421594.83458,-0.960219729915313,0.0559090562294955,-0.261966887922485
1580421594.83858,-0.959731441214618,0.0568856336308841,-0.262455176623179
1580421594.84257,-0.956801709010453,0.0568856336308841,-0.268314641031511
1580421594.84656,-0.957778286411841,0.0559090562294955,-0.273197528038454
1580421594.85055,-0.95875486381323,0.0598153658350498,-0.281498435950256
1580421594.85454,-0.960219729915313,0.0646982528419926,-0.278568703746091
1580421594.85854,-0.968520637827115,0.0686045624475469,-0.276615548943314
1580421594.86253,-0.97242694743267,0.067139696345464,-0.271732661936371
1580421594.86652,-0.976821545738918,0.0627450980392155,-0.275150682841231
1580421594.87052,-0.976333257038224,0.0559090562294955,-0.272220950637065
1580421594.87451,-0.973403524834058,0.0490730144197755,-0.268314641031511
1580421594.8785,-0.968520637827115,0.0476081483176927,-0.267338063630122
1580421594.8825,-0.963637750820173,0.041260395208667,-0.261478599221791
1580421594.88649,-0.959243152513924,0.037842374303807,-0.259525444419014
1580421594.89049,-0.95875486381323,0.0383306630045013,-0.250736247806516
1580421594.89448,-0.95875486381323,0.0358892195010299,-0.245853360799572
1580421594.89847,-0.956313420309758,0.0324711985961699,-0.241947051194018
1580421594.90247,-0.955825131609064,0.0319829098954756,-0.2434119172961
1580421594.90646,-0.96217288471809,0.0339360646982527,-0.246341649500266
1580421594.91045,-0.963637750820173,0.0363775082017241,-0.254154268711376
1580421594.91445,-0.966567483024338,0.0388189517051956,-0.256107423514154
1580421594.91844,-0.966079194323644,0.0393072404058898,-0.263431754024568
1580421594.92243,-0.968032349126421,0.0354009308003356,-0.266361486228734
1580421594.92642,-0.974868390936141,0.0373540856031127,-0.263920042725262
1580421594.93041,-0.970473792629893,0.0358892195010299,-0.266849774929428
1580421594.93441,-0.96900892652781,0.0349126420996413,-0.268802929732205
1580421594.9384,-0.968032349126421,0.0354009308003356,-0.270756084534982
1580421594.9424,-0.96900892652781,0.0393072404058898,-0.271244373235676
1580421594.94639,-0.96900892652781,0.0388189517051956,-0.274662394140536
1580421594.95038,-0.967544060425727,0.0393072404058898,-0.279545281147479
1580421594.95438,-0.969497215228504,0.0422369726100555,-0.278080415045396
1580421594.95837,-0.969985503929198,0.0383306630045013,-0.270267795834288
1580421594.96236,-0.968520637827115,0.0339360646982527,-0.270267795834288
1580421594.96636,-0.964126039520867,0.0280766002899213,-0.269291218432899
1580421594.97035,-0.964614328221561,0.0227054245822842,-0.267338063630122
1580421594.97434,-0.962661173418784,0.0212405584802013,-0.263431754024568
1580421594.97834,-0.963149462119478,0.0222171358815899,-0.260990310521096
1580421594.98233,-0.961684596017395,0.024170290684367,-0.260502021820402
1580421594.98632,-0.963149462119478,0.027588311589227,-0.258548867017625
1580421594.99032,-0.966079194323644,0.0280766002899213,-0.258060578316931
1580421594.99431,-0.968520637827115,0.0339360646982527,-0.260990310521096
1580421594.9983,-0.968520637827115,0.0383306630045013,-0.260013733119708
1580421595.0023,-0.97242694743267,0.0471198596169984,-0.263920042725262
1580421595.00632,-0.976821545738918,0.0495613031204698,-0.256107423514154
1580421595.01031,-0.981216144045167,0.0549324788281069,-0.256595712214848
1580421595.0143,-0.983169298847944,0.0583504997329669,-0.249759670405126
1580421595.0183,-0.987563897154192,0.0573739223315783,-0.244388494697489
1580421595.02229,-0.985610742351415,0.0559090562294955,-0.242435339894712
1580421595.02628,-0.981704432745861,0.0549324788281069,-0.235111009384298
1580421595.03028,-0.97926298924239,0.0539559014267184,-0.227298390173189
1580421595.03427,-0.979751277943084,0.0593270771343555,-0.220950637064163
1580421595.03826,-0.980239566643778,0.0612802319371326,-0.219974059662775
1580421595.04226,-0.97584496833753,0.0656748302433812,-0.218997482261386
1580421595.04625,-0.973891813534753,0.0676279850461583,-0.218020904859998
1580421595.05025,-0.970962081330587,0.0686045624475469,-0.226321812771801
1580421595.05424,-0.966079194323644,0.0700694285496297,-0.232181277180132
1580421595.05823,-0.960708018616007,0.0725108720531011,-0.243900205996795
1580421595.06223,-0.960219729915313,0.0681162737468526,-0.249271381704432
1580421595.06622,-0.955825131609064,0.0656748302433812,-0.257572289616236
1580421595.07021,-0.955825131609064,0.0563973449301898,-0.270756084534982
1580421595.07421,-0.953871976806287,0.0500495918211641,-0.283451590753033
1580421595.0782,-0.951430533302815,0.0441901274128327,-0.291752498664836
1580421595.08219,-0.948989089799344,0.0417486839093613,-0.295658808270391
1580421595.08618,-0.952407110704204,0.0397955291065841,-0.298100251773862
1580421595.09017,-0.956801709010453,0.0368657969024184,-0.297611963073168
1580421595.09417,-0.961684596017395,0.0363775082017241,-0.292729076066225
1580421595.09816,-0.964614328221561,0.0334477759975584,-0.299565117875945
1580421595.10215,-0.963637750820173,0.0329594872968642,-0.288334477759976
1580421595.10615,-0.962661173418784,0.0300297550926985,-0.281986724650951
1580421595.11014,-0.961196307316701,0.024170290684367,-0.279056992446785
1580421595.11414,-0.960219729915313,0.0227054245822842,-0.277592126344702
1580421595.11813,-0.96217288471809,0.0207522697795071,-0.271732661936371
1580421595.12212,-0.963149462119478,0.0158693827725642,-0.268802929732205
1580421595.12612,-0.962661173418784,0.0192874036774242,-0.265873197528039
1580421595.13011,-0.963149462119478,0.0178225375753414,-0.259525444419014
1580421595.1341,-0.963637750820173,0.0197756923781185,-0.252689402609294
1580421595.1381,-0.961684596017395,0.0251468680857556,-0.251224536507211
1580421595.14209,-0.960708018616007,0.0266117341878385,-0.255130846112765
1580421595.14608,-0.960708018616007,0.0334477759975584,-0.259525444419014
1580421595.15008,-0.967055771725033,0.0407721065079727,-0.268802929732205
1580421595.15407,-0.959731441214618,0.0466315709163041,-0.275638971541925
1580421595.15806,-0.96217288471809,0.0485847257190812,-0.282963302052339
1580421595.16206,-0.96217288471809,0.0534676127260241,-0.292729076066225
1580421595.16605,-0.964126039520867,0.0549324788281069,-0.306401159685665
1580421595.17004,-0.96559090562295,0.0598153658350498,-0.312260624093996
1580421595.17403,-0.970962081330587,0.0676279850461583,-0.317631799801633
1580421595.17803,-0.97584496833753,0.0729991607537954,-0.321049820706493
1580421595.18202,-0.97926298924239,0.0744640268558783,-0.317143511100939
1580421595.18601,-0.975356679636835,0.0769054703593497,-0.318608377203022
1580421595.19001,-0.97584496833753,0.0769054703593497,-0.314702067597468
1580421595.194,-0.972915236133364,0.0759288929579611,-0.305912870984971
1580421595.19799,-0.968520637827115,0.0749523155565726,-0.289311055161365
1580421595.20199,-0.969497215228504,0.0690928511482412,-0.281986724650951
1580421595.20598,-0.970962081330587,0.0578622110322726,-0.266849774929428
1580421595.20997,-0.97584496833753,0.0456549935149155,-0.246341649500266
1580421595.21397,-0.978286411841001,0.0358892195010299,-0.228763256275272
1580421595.21796,-0.981704432745861,0.027588311589227,-0.217532616159303
1580421595.22195,-0.985122453650721,0.0192874036774242,-0.205325398641946
1580421595.22595,-0.991958495460441,0.0139162279697871,-0.203372243839169
1580421595.22994,-0.994888227664607,0.00366216525520713,-0.201419089036392
1580421595.23393,-0.993423361562524,0.00122072175173571,-0.204348821240558
1580421595.23793,-0.99635309376669,-0.00805676356145568,-0.210696574349583
1580421595.24192,-0.992446784161135,-0.0124513618677042,-0.213626306553749
1580421595.24594,-0.991958495460441,-0.0148928053711757,-0.216067750057221
1580421595.24993,-0.990005340657664,-0.0144045166704814,-0.222415503166246
1580421595.25393,-0.987075608453498,-0.0197756923781185,-0.226810101472495
1580421595.25792,-0.986587319752804,-0.0207522697795071,-0.226810101472495
1580421595.26191,-0.98268101014725,-0.0183108262760356,-0.231692988479438
1580421595.26591,-0.982192721446555,-0.0192874036774242,-0.232669565880826
1580421595.2699,-0.980727855344472,-0.0212405584802013,-0.231692988479438
1580421595.2739,-0.97926298924239,-0.0197756923781185,-0.236087586785686
1580421595.27789,-0.977798123140307,-0.0217288471808956,-0.241458762493323
1580421595.28188,-0.975356679636835,-0.0202639810788128,-0.247806515602349
1580421595.28588,-0.966567483024338,-0.0183108262760356,-0.250247959105822
1580421595.28987,-0.964126039520867,-0.0187991149767299,-0.255130846112765
1580421595.29386,-0.962661173418784,-0.0139162279697871,-0.267338063630122
1580421595.29786,-0.960219729915313,-0.0124513618677042,-0.266361486228734
1580421595.30185,-0.954848554207675,-0.00610360875867855,-0.276127260242619
1580421595.30584,-0.953871976806287,-0.00610360875867855,-0.284428168154422
1580421595.30984,-0.95191882200351,0.00317387655451284,-0.286869611657893
1580421595.31383,-0.954848554207675,0.0075684748607614,-0.297611963073168
1580421595.31782,-0.95533684290837,0.0144045166704814,-0.293217364766919
1580421595.32182,-0.957289997711147,0.0217288471808956,-0.296147096971085
1580421595.3258,-0.958266575112535,0.0285648889906156,-0.290775921263448
1580421595.3298,-0.956313420309758,0.034424353398947,-0.286381322957199
1580421595.33379,-0.95875486381323,0.0393072404058898,-0.287846189059282
1580421595.33779,-0.957778286411841,0.0441901274128327,-0.285404745555811
1580421595.34178,-0.95533684290837,0.0485847257190812,-0.288822766460671
1580421595.34577,-0.953871976806287,0.0495613031204698,-0.284428168154422
1580421595.34977,-0.954848554207675,0.0559090562294955,-0.282475013351645
1580421595.35376,-0.954360265506981,0.0588387884336612,-0.286869611657893
1580421595.35775,-0.95533684290837,0.0583504997329669,-0.285893034256505
1580421595.36175,-0.953871976806287,0.0627450980392155,-0.280033569848174
1580421595.36574,-0.951430533302815,0.0656748302433812,-0.281498435950256
1580421595.36973,-0.954360265506981,0.0666514076447697,-0.281010147249562
1580421595.37373,-0.954848554207675,0.0656748302433812,-0.279545281147479
1580421595.37772,-0.959731441214618,0.0661631189440754,-0.280521858548868
1580421595.38171,-0.962661173418784,0.0651865415426869,-0.273685816739148
1580421595.38571,-0.962661173418784,0.0656748302433812,-0.273197528038454
1580421595.3897,-0.966567483024338,0.0661631189440754,-0.274174105439842
1580421595.39369,-0.969497215228504,0.067139696345464,-0.274662394140536
1580421595.39769,-0.969985503929198,0.0627450980392155,-0.276127260242619
1580421595.40168,-0.969985503929198,0.0593270771343555,-0.272220950637065
1580421595.4057,-0.967055771725033,0.0573739223315783,-0.271732661936371
1580421595.40969,-0.965102616922255,0.0529793240253298,-0.275150682841231
1580421595.41369,-0.958266575112535,0.0534676127260241,-0.279545281147479
1580421595.41768,-0.95875486381323,0.0476081483176927,-0.284428168154422
1580421595.42167,-0.953383688105593,0.0432135500114441,-0.289799343862059
1580421595.42567,-0.949965667200733,0.0402838178072784,-0.290287632562753
1580421595.42966,-0.94850080109865,0.034424353398947,-0.296635385671779
1580421595.43366,-0.945571068894484,0.0305180437933927,-0.293705653467613
1580421595.43765,-0.944106202792401,0.0261234454871442,-0.285893034256505
1580421595.44164,-0.944106202792401,0.0217288471808956,-0.280033569848174
1580421595.44563,-0.94166475928893,0.0178225375753414,-0.278080415045396
1580421595.44963,-0.947035934996567,0.0163576714732585,-0.274662394140536
1580421595.45362,-0.948012512397955,0.0144045166704814,-0.272220950637065
1580421595.45762,-0.952895399404898,0.0129396505683985,-0.270267795834288
1580421595.46161,-0.952895399404898,0.0100099183642328,-0.268802929732205
1580421595.4656,-0.95533684290837,0.0109864957656214,-0.278568703746091
1580421595.4696,-0.957289997711147,0.0100099183642328,-0.267826352330816
1580421595.47359,-0.963637750820173,0.0124513618677042,-0.275150682841231
1580421595.47758,-0.968520637827115,0.0153810940718699,-0.275150682841231
1580421595.48158,-0.969985503929198,0.0168459601739528,-0.276127260242619
1580421595.48556,-0.97242694743267,0.0178225375753414,-0.276615548943314
1580421595.48956,-0.97584496833753,0.0192874036774242,-0.281498435950256
1580421595.49355,-0.977798123140307,0.0202639810788128,-0.273685816739148
1580421595.49755,-0.97584496833753,0.0266117341878385,-0.265873197528039
1580421595.50154,-0.977798123140307,0.0285648889906156,-0.264896620126651
1580421595.50553,-0.980239566643778,0.0290531776913099,-0.259525444419014
1580421595.50953,-0.977798123140307,0.0280766002899213,-0.252201113908599
1580421595.51352,-0.978774700541695,0.027588311589227,-0.249271381704432
1580421595.51751,-0.976333257038224,0.0256351567864499,-0.250736247806516
1580421595.52151,-0.975356679636835,0.0261234454871442,-0.24682993820096
1580421595.5255,-0.977798123140307,0.027588311589227,-0.250247959105822
1580421595.52949,-0.978286411841001,0.0295414663920042,-0.247806515602349
1580421595.53349,-0.97926298924239,0.0290531776913099,-0.239505607690546
1580421595.53748,-0.976333257038224,0.0280766002899213,-0.239505607690546
1580421595.54147,-0.976821545738918,0.0251468680857556,-0.242435339894712
1580421595.54547,-0.973403524834058,0.0305180437933927,-0.240482185091935
1580421595.54946,-0.974868390936141,0.034424353398947,-0.242923628595406
1580421595.55345,-0.971450370031281,0.0334477759975584,-0.248783093003738
1580421595.55745,-0.968032349126421,0.034424353398947,-0.252201113908599
1580421595.56144,-0.966079194323644,0.0363775082017241,-0.250736247806516
1580421595.56546,-0.964614328221561,0.0334477759975584,-0.250736247806516
1580421595.56945,-0.960219729915313,0.0363775082017241,-0.255130846112765
1580421595.57345,-0.960219729915313,0.034424353398947,-0.258548867017625
1580421595.57744,-0.958266575112535,0.0393072404058898,-0.257572289616236
1580421595.58143,-0.95533684290837,0.0368657969024184,-0.261966887922485
1580421595.58543,-0.952407110704204,0.0383306630045013,-0.258548867017625
1580421595.58942,-0.955825131609064,0.0388189517051956,-0.256595712214848
1580421595.59341,-0.95191882200351,0.0363775082017241,-0.263431754024568
1580421595.59741,-0.950942244602121,0.0373540856031127,-0.267826352330816
1580421595.6014,-0.950942244602121,0.0363775082017241,-0.271732661936371
1580421595.60539,-0.954360265506981,0.037842374303807,-0.271244373235676
1580421595.60939,-0.952407110704204,0.0407721065079727,-0.274174105439842
1580421595.61338,-0.957778286411841,0.0402838178072784,-0.270267795834288
1580421595.61737,-0.960219729915313,0.0397955291065841,-0.273685816739148
1580421595.62137,-0.963637750820173,0.037842374303807,-0.273685816739148
1580421595.62536,-0.967055771725033,0.0358892195010299,-0.273685816739148
1580421595.62936,-0.96559090562295,0.0329594872968642,-0.270267795834288
1580421595.63335,-0.966567483024338,0.0324711985961699,-0.264896620126651
1580421595.63734,-0.970962081330587,0.0295414663920042,-0.260013733119708
1580421595.64134,-0.973891813534753,0.0285648889906156,-0.262943465323874
1580421595.64535,-0.974380102235447,0.0295414663920042,-0.258060578316931
1580421595.64935,-0.974868390936141,0.0261234454871442,-0.257084000915542
1580421595.65334,-0.974380102235447,0.0271000228885327,-0.255619134813459
1580421595.65734,-0.973403524834058,0.0285648889906156,-0.254154268711376
1580421595.66133,-0.971450370031281,0.0329594872968642,-0.253177691309988
1580421595.66532,-0.97242694743267,0.0368657969024184,-0.258548867017625
1580421595.66932,-0.971450370031281,0.0349126420996413,-0.260502021820402
1580421595.67331,-0.971938658731975,0.0397955291065841,-0.265384908827345
1580421595.6773,-0.973891813534753,0.0383306630045013,-0.264896620126651
1580421595.6813,-0.971938658731975,0.037842374303807,-0.270267795834288
1580421595.68529,-0.969985503929198,0.037842374303807,-0.271244373235676
1580421595.68928,-0.970962081330587,0.0383306630045013,-0.272709239337759
1580421595.69328,-0.973891813534753,0.0427252613107498,-0.275150682841231
1580421595.69727,-0.977309834439613,0.0437018387121384,-0.272220950637065
1580421595.70126,-0.975356679636835,0.0485847257190812,-0.271732661936371
1580421595.70526,-0.977798123140307,0.0534676127260241,-0.268314641031511
1580421595.70925,-0.980727855344472,0.0568856336308841,-0.263431754024568
1580421595.71324,-0.98268101014725,0.0612802319371326,-0.262943465323874
1580421595.71724,-0.981216144045167,0.0622568093385212,-0.260990310521096
1580421595.72123,-0.97584496833753,0.0612802319371326,-0.257084000915542
1580421595.72522,-0.972915236133364,0.0593270771343555,-0.259037155718319
1580421595.72921,-0.975356679636835,0.0593270771343555,-0.260013733119708
1580421595.73321,-0.974868390936141,0.0578622110322726,-0.259525444419014
1580421595.7372,-0.973891813534753,0.0573739223315783,-0.260990310521096
1580421595.74119,-0.973891813534753,0.0534676127260241,-0.256107423514154
1580421595.74519,-0.970962081330587,0.0524910353246355,-0.258060578316931
1580421595.74918,-0.970473792629893,0.0520027466239412,-0.253665980010682
1580421595.75317,-0.970473792629893,0.048096437018387,-0.249759670405126
1580421595.75717,-0.971938658731975,0.0476081483176927,-0.251224536507211
1580421595.76116,-0.968520637827115,0.0422369726100555,-0.252689402609294
1580421595.76515,-0.966567483024338,0.0402838178072784,-0.252689402609294
1580421595.76915,-0.963149462119478,0.037842374303807,-0.258548867017625
1580421595.77314,-0.964126039520867,0.0368657969024184,-0.260990310521096
1580421595.77713,-0.963149462119478,0.0358892195010299,-0.265384908827345
1580421595.78113,-0.964126039520867,0.0427252613107498,-0.267338063630122
1580421595.78512,-0.966079194323644,0.0397955291065841,-0.265384908827345
1580421595.78912,-0.970962081330587,0.0432135500114441,-0.271244373235676
1580421595.79311,-0.96900892652781,0.0432135500114441,-0.274174105439842
1580421595.7971,-0.971938658731975,0.0422369726100555,-0.272709239337759
1580421595.8011,-0.971450370031281,0.041260395208667,-0.271244373235676
1580421595.80511,-0.973403524834058,0.0397955291065841,-0.267338063630122
1580421595.80911,-0.977798123140307,0.0354009308003356,-0.271244373235676
1580421595.8131,-0.977798123140307,0.037842374303807,-0.262943465323874
1580421595.8171,-0.978286411841001,0.0354009308003356,-0.259037155718319
1580421595.82109,-0.97926298924239,0.0373540856031127,-0.254642557412071
1580421595.82508,-0.977309834439613,0.0383306630045013,-0.256107423514154
1580421595.82907,-0.97584496833753,0.0427252613107498,-0.254154268711376
1580421595.83307,-0.977309834439613,0.0422369726100555,-0.252689402609294
1580421595.83706,-0.979751277943084,0.0427252613107498,-0.254154268711376
1580421595.84106,-0.972915236133364,0.0432135500114441,-0.250736247806516
1580421595.84505,-0.976821545738918,0.0417486839093613,-0.248294804303043
1580421595.84904,-0.976333257038224,0.0363775082017241,-0.242923628595406
1580421595.85304,-0.977798123140307,0.0358892195010299,-0.242435339894712
1580421595.85703,-0.977798123140307,0.0334477759975584,-0.234622720683603
1580421595.86102,-0.978286411841001,0.0280766002899213,-0.230228122377355
1580421595.86502,-0.973403524834058,0.0295414663920042,-0.222415503166246
1580421595.86901,-0.969497215228504,0.0290531776913099,-0.217044327458609
1580421595.873,-0.967544060425727,0.0290531776913099,-0.224368657969023
1580421595.877,-0.967055771725033,0.0271000228885327,-0.227298390173189
1580421595.88099,-0.968032349126421,0.0261234454871442,-0.229739833676661
1580421595.88498,-0.96559090562295,0.0207522697795071,-0.233646143282215
1580421595.88897,-0.969985503929198,0.0246585793850613,-0.241947051194018
1580421595.89297,-0.968520637827115,0.0212405584802013,-0.244388494697489
1580421595.89696,-0.970962081330587,0.0212405584802013,-0.244876783398183
1580421595.90095,-0.97242694743267,0.0227054245822842,-0.249759670405126
1580421595.90495,-0.97242694743267,0.0236820019836728,-0.255619134813459
1580421595.90894,-0.967055771725033,0.024170290684367,-0.258060578316931
1580421595.91293,-0.967544060425727,0.0261234454871442,-0.260013733119708
1580421595.91693,-0.966079194323644,0.027588311589227,-0.262455176623179
1580421595.92092,-0.95875486381323,0.0305180437933927,-0.270756084534982
1580421595.92491,-0.95533684290837,0.0324711985961699,-0.275150682841231
1580421595.92891,-0.954848554207675,0.0349126420996413,-0.283451590753033
1580421595.9329,-0.954360265506981,0.037842374303807,-0.290287632562753
1580421595.93689,-0.95875486381323,0.041260395208667,-0.286869611657893
1580421595.94089,-0.961684596017395,0.0422369726100555,-0.289311055161365
1580421595.94488,-0.959731441214618,0.0388189517051956,-0.288334477759976
1580421595.94887,-0.963637750820173,0.0368657969024184,-0.287846189059282
1580421595.95287,-0.962661173418784,0.037842374303807,-0.279056992446785
1580421595.95686,-0.963149462119478,0.0363775082017241,-0.286381322957199
1580421595.96086,-0.960219729915313,0.0368657969024184,-0.279545281147479
1580421595.96484,-0.95875486381323,0.0368657969024184,-0.275150682841231
1580421595.96884,-0.953871976806287,0.0383306630045013,-0.273197528038454
1580421595.97283,-0.952407110704204,0.0383306630045013,-0.271732661936371
1580421595.97682,-0.948989089799344,0.0422369726100555,-0.273685816739148
1580421595.98082,-0.950942244602121,0.0407721065079727,-0.270756084534982
1580421595.98481,-0.94850080109865,0.0456549935149155,-0.271244373235676
1580421595.9888,-0.952895399404898,0.0471198596169984,-0.274662394140536
1580421595.9928,-0.95191882200351,0.0456549935149155,-0.278568703746091
1580421595.99679,-0.951430533302815,0.0456549935149155,-0.276127260242619
1580421596.00078,-0.956801709010453,0.0476081483176927,-0.277103837644008
1580421596.00478,-0.959243152513924,0.0456549935149155,-0.272709239337759
1580421596.00877,-0.965102616922255,0.0485847257190812,-0.275638971541925
1580421596.01277,-0.971450370031281,0.0515144579232469,-0.277103837644008
1580421596.01676,-0.973403524834058,0.048096437018387,-0.270756084534982
1580421596.02075,-0.974868390936141,0.0505378805218584,-0.267826352330816
1580421596.02475,-0.97584496833753,0.0515144579232469,-0.262943465323874
1580421596.02874,-0.976333257038224,0.0461432822156098,-0.254642557412071
1580421596.03273,-0.97584496833753,0.0476081483176927,-0.252689402609294
1580421596.03673,-0.976333257038224,0.0456549935149155,-0.250736247806516
1580421596.04072,-0.975356679636835,0.0422369726100555,-0.254154268711376
1580421596.04474,-0.975356679636835,0.0417486839093613,-0.252689402609294
1580421596.04873,-0.970473792629893,0.0388189517051956,-0.249271381704432
1580421596.05272,-0.970473792629893,0.037842374303807,-0.247806515602349
1580421596.05672,-0.969985503929198,0.0349126420996413,-0.256107423514154
1580421596.06071,-0.968032349126421,0.0300297550926985,-0.251712825207905
1580421596.06471,-0.970962081330587,0.0290531776913099,-0.257572289616236
1580421596.0687,-0.972915236133364,0.0271000228885327,-0.258060578316931
1580421596.07269,-0.977309834439613,0.0266117341878385,-0.256595712214848
1580421596.07669,-0.979751277943084,0.0271000228885327,-0.252689402609294
1580421596.08068,-0.978286411841001,0.0285648889906156,-0.252689402609294
1580421596.08467,-0.980727855344472,0.0319829098954756,-0.248783093003738
1580421596.08867,-0.981216144045167,0.0339360646982527,-0.247806515602349
1580421596.09266,-0.97926298924239,0.0363775082017241,-0.24682993820096
1580421596.09665,-0.977798123140307,0.0388189517051956,-0.253177691309988
1580421596.10065,-0.977309834439613,0.0388189517051956,-0.258060578316931
1580421596.10464,-0.973403524834058,0.0432135500114441,-0.259037155718319
1580421596.10863,-0.971938658731975,0.0461432822156098,-0.269291218432899
1580421596.11263,-0.971450370031281,0.0490730144197755,-0.267338063630122
1580421596.11662,-0.975356679636835,0.0510261692225527,-0.271244373235676
1580421596.12062,-0.978774700541695,0.0544441901274126,-0.268802929732205
1580421596.1246,-0.975356679636835,0.0563973449301898,-0.265873197528039
1580421596.1286,-0.973891813534753,0.0563973449301898,-0.266849774929428
1580421596.13259,-0.971938658731975,0.0554207675288012,-0.262455176623179
1580421596.13658,-0.971938658731975,0.0471198596169984,-0.254642557412071
1580421596.14058,-0.970473792629893,0.0490730144197755,-0.250736247806516
1580421596.14457,-0.967055771725033,0.0495613031204698,-0.249759670405126
1580421596.14856,-0.965102616922255,0.0461432822156098,-0.245365072098878
1580421596.15256,-0.963637750820173,0.0432135500114441,-0.243900205996795
1580421596.15655,-0.960219729915313,0.0407721065079727,-0.251224536507211
1580421596.16054,-0.958266575112535,0.0437018387121384,-0.249759670405126
1580421596.16454,-0.959243152513924,0.0383306630045013,-0.248294804303043
1580421596.16853,-0.95533684290837,0.0383306630045013,-0.251712825207905
1580421596.17252,-0.953383688105593,0.0388189517051956,-0.257572289616236
1580421596.17652,-0.953383688105593,0.037842374303807,-0.254154268711376
1580421596.18051,-0.950453955901427,0.0339360646982527,-0.257572289616236
1580421596.18451,-0.951430533302815,0.0349126420996413,-0.255130846112765
1580421596.1885,-0.953383688105593,0.0358892195010299,-0.254642557412071
1580421596.19249,-0.956313420309758,0.0402838178072784,-0.260013733119708
1580421596.19649,-0.95533684290837,0.0461432822156098,-0.260013733119708
1580421596.20048,-0.954360265506981,0.0471198596169984,-0.260013733119708
1580421596.2045,-0.955825131609064,0.0539559014267184,-0.262455176623179
1580421596.20849,-0.957289997711147,0.0568856336308841,-0.267826352330816
1580421596.21248,-0.958266575112535,0.060303654535744,-0.275150682841231
1580421596.21648,-0.956801709010453,0.0617685206378269,-0.272709239337759
1580421596.22047,-0.956801709010453,0.0598153658350498,-0.276127260242619
1580421596.22446,-0.958266575112535,0.0617685206378269,-0.271244373235676
1580421596.22846,-0.960219729915313,0.0646982528419926,-0.274174105439842
1580421596.23245,-0.96217288471809,0.0607919432364383,-0.273685816739148
1580421596.23645,-0.967055771725033,0.0593270771343555,-0.264408331425956
1580421596.24044,-0.972915236133364,0.0549324788281069,-0.261966887922485
1580421596.24443,-0.976333257038224,0.048096437018387,-0.252689402609294
1580421596.24843,-0.981704432745861,0.0427252613107498,-0.250247959105822
1580421596.25242,-0.980239566643778,0.0383306630045013,-0.244388494697489
1580421596.25641,-0.97926298924239,0.0334477759975584,-0.242435339894712
1580421596.26041,-0.982192721446555,0.0285648889906156,-0.241458762493323
1580421596.2644,-0.98268101014725,0.0314946211947813,-0.232669565880826
1580421596.26839,-0.980239566643778,0.0290531776913099,-0.229739833676661
1580421596.27239,-0.980727855344472,0.0324711985961699,-0.227786678873883
1580421596.27638,-0.974380102235447,0.034424353398947,-0.238040741588463
1580421596.28038,-0.972915236133364,0.0383306630045013,-0.247318226901655
1580421596.28436,-0.974868390936141,0.044678416113527,-0.251224536507211
1580421596.28836,-0.977309834439613,0.0495613031204698,-0.261966887922485
1580421596.29235,-0.978286411841001,0.0549324788281069,-0.271244373235676
1580421596.29634,-0.984145876249332,0.0539559014267184,-0.274662394140536
1580421596.30034,-0.98609903105211,0.0520027466239412,-0.281986724650951
1580421596.30433,-0.989028763256275,0.0568856336308841,-0.285893034256505
1580421596.30832,-0.992446784161135,0.0500495918211641,-0.285893034256505
1580421596.31232,-0.990981918059052,0.0495613031204698,-0.281986724650951
1580421596.31631,-0.989028763256275,0.0505378805218584,-0.274174105439842
1580421596.3203,-0.988540474555581,0.0520027466239412,-0.269291218432899
1580421596.3243,-0.990493629358358,0.0524910353246355,-0.258548867017625
1580421596.32829,-0.990981918059052,0.0544441901274126,-0.255130846112765
1580421596.33228,-0.991470206759747,0.0539559014267184,-0.253665980010682
1580421596.33628,-0.993423361562524,0.0544441901274126,-0.251224536507211
1580421596.34027,-0.991470206759747,0.0559090562294955,-0.259525444419014
1580421596.34426,-0.988540474555581,0.0510261692225527,-0.264408331425956
1580421596.34826,-0.982192721446555,0.0485847257190812,-0.273197528038454
1580421596.35225,-0.979751277943084,0.048096437018387,-0.280033569848174
1580421596.35625,-0.98268101014725,0.0441901274128327,-0.283939879453728
1580421596.36024,-0.982192721446555,0.0407721065079727,-0.290287632562753
1580421596.36423,-0.983657587548638,0.037842374303807,-0.292240787365531
1580421596.36822,-0.982192721446555,0.0368657969024184,-0.292240787365531
1580421596.37221,-0.983169298847944,0.037842374303807,-0.291264209964142
1580421596.37621,-0.981216144045167,0.041260395208667,-0.282963302052339
1580421596.3802,-0.983657587548638,0.0441901274128327,-0.287846189059282
1580421596.38419,-0.977309834439613,0.0471198596169984,-0.277103837644008
1580421596.38819,-0.97584496833753,0.0432135500114441,-0.266361486228734
1580421596.39218,-0.975356679636835,0.0329594872968642,-0.259037155718319
1580421596.39617,-0.969985503929198,0.0295414663920042,-0.254642557412071
1580421596.40017,-0.97242694743267,0.0227054245822842,-0.246341649500266
1580421596.40416,-0.972915236133364,0.0148928053711757,-0.239505607690546
1580421596.40816,-0.97242694743267,0.0114747844663157,-0.241947051194018
1580421596.41215,-0.974868390936141,0.00317387655451284,-0.236087586785686
1580421596.41614,-0.97584496833753,-0.00268558785381856,-0.233646143282215
1580421596.42014,-0.973403524834058,-0.00708018616006711,-0.228274967574578
1580421596.42413,-0.97242694743267,-0.0114747844663157,-0.233646143282215
1580421596.42812,-0.96900892652781,-0.0148928053711757,-0.234134431982909
1580421596.43212,-0.962661173418784,-0.0168459601739528,-0.23315785458152
1580421596.43611,-0.958266575112535,-0.0148928053711757,-0.228763256275272
1580421596.4401,-0.954848554207675,-0.0168459601739528,-0.234622720683603
1580421596.44412,-0.949477378500038,-0.0139162279697871,-0.235111009384298
1580421596.44811,-0.946059357595178,-0.00854505226214997,-0.242923628595406
1580421596.45211,-0.942153047989624,-0.00610360875867855,-0.239017318989852
1580421596.4561,-0.937758449683376,0.00122072175173571,-0.2434119172961
1580421596.4601,-0.932387273975738,0.00561532005798426,-0.244876783398183
1580421596.46409,-0.932387273975738,0.0100099183642328,-0.245853360799572
1580421596.46808,-0.935317006179904,0.0139162279697871,-0.244876783398183
1580421596.47208,-0.936781872281987,0.0178225375753414,-0.249759670405126
1580421596.47607,-0.940199893186847,0.0187991149767299,-0.248783093003738
1580421596.48006,-0.945571068894484,0.0192874036774242,-0.251712825207905
1580421596.48406,-0.947524223697261,0.0227054245822842,-0.248783093003738
1580421596.48805,-0.957289997711147,0.0153810940718699,-0.247806515602349
1580421596.49204,-0.95875486381323,0.0158693827725642,-0.251224536507211
1580421596.49604,-0.964126039520867,0.0144045166704814,-0.250247959105822
1580421596.50003,-0.964614328221561,0.0144045166704814,-0.247806515602349
1580421596.50402,-0.962661173418784,0.0124513618677042,-0.245853360799572
1580421596.50802,-0.961684596017395,0.0158693827725642,-0.248783093003738
1580421596.51201,-0.960219729915313,0.0207522697795071,-0.252689402609294
1580421596.51601,-0.956313420309758,0.0207522697795071,-0.251224536507211
1580421596.52,-0.952407110704204,0.0231937132829785,-0.252201113908599
1580421596.52399,-0.944106202792401,0.0222171358815899,-0.260990310521096
1580421596.52798,-0.937758449683376,0.0222171358815899,-0.271732661936371
1580421596.53197,-0.93482871747921,0.0212405584802013,-0.275150682841231
1580421596.53597,-0.930434119172961,0.0207522697795071,-0.284916456855116
1580421596.53996,-0.929945830472267,0.0212405584802013,-0.292240787365531
1580421596.54395,-0.92799267566949,0.0231937132829785,-0.301029983978028
1580421596.54795,-0.929945830472267,0.024170290684367,-0.307866025787748
1580421596.55194,-0.93141069657435,0.0256351567864499,-0.310795757991913
1580421596.55593,-0.933852140077821,0.0266117341878385,-0.312260624093996
1580421596.55993,-0.936293583581293,0.0319829098954756,-0.31958495460441
1580421596.56392,-0.937758449683376,0.031006332494087,-0.313725490196079
1580421596.56791,-0.941176470588236,0.0285648889906156,-0.309819180590525
1580421596.57191,-0.940199893186847,0.027588311589227,-0.311284046692608
1580421596.5759,-0.938735027084764,0.0300297550926985,-0.302006561379416
1580421596.5799,-0.94508278019379,0.0334477759975584,-0.295658808270391
1580421596.58389,-0.952895399404898,0.0329594872968642,-0.281986724650951
1580421596.58788,-0.961684596017395,0.0329594872968642,-0.273197528038454
1580421596.59188,-0.968032349126421,0.0358892195010299,-0.260502021820402
1580421596.59587,-0.977798123140307,0.0383306630045013,-0.242923628595406
1580421596.59986,-0.984145876249332,0.0363775082017241,-0.232669565880826
1580421596.60385,-0.990005340657664,0.0373540856031127,-0.219974059662775
1580421596.60784,-0.994399938963912,0.034424353398947,-0.208255130846112
1580421596.61184,-1.00270084687572,0.0397955291065841,-0.200930800335698
1580421596.61583,-1.00660715648127,0.0402838178072784,-0.189700160219729
1580421596.61982,-1.0129549095903,0.0466315709163041,-0.185305561913481
1580421596.62382,-1.01881437399863,0.0466315709163041,-0.182864118410009
1580421596.62781,-1.02320897230488,0.0461432822156098,-0.177492942702372
1580421596.63181,-1.02565041580835,0.0510261692225527,-0.173586633096818
1580421596.6358,-1.02613870450904,0.0539559014267184,-0.178469520103761
1580421596.63979,-1.02516212710765,0.0607919432364383,-0.176516365300984
1580421596.64379,-1.01930266269932,0.0598153658350498,-0.182375829709315
1580421596.64778,-1.00904859998474,0.0642099641412983,-0.198001068131532
1580421596.65177,-0.997329671168078,0.0690928511482412,-0.208255130846112
1580421596.65577,-0.991470206759747,0.0690928511482412,-0.228274967574578
1580421596.65976,-0.980239566643778,0.0700694285496297,-0.23657587548638
1580421596.66375,-0.971450370031281,0.0681162737468526,-0.246341649500266
1580421596.66775,-0.96217288471809,0.0656748302433812,-0.258548867017625
1580421596.67174,-0.957289997711147,0.0563973449301898,-0.260502021820402
1580421596.67573,-0.948989089799344,0.0539559014267184,-0.268802929732205
1580421596.67973,-0.949965667200733,0.044678416113527,-0.266849774929428
1580421596.68375,-0.947524223697261,0.0314946211947813,-0.270267795834288
1580421596.68774,-0.946547646295873,0.0212405584802013,-0.260502021820402
1580421596.69173,-0.945571068894484,0.00561532005798426,-0.255619134813459
1580421596.69573,-0.941176470588236,-0.00659189745937283,-0.246341649500266
1580421596.69972,-0.942153047989624,-0.0178225375753414,-0.246341649500266
1580421596.70371,-0.94166475928893,-0.0285648889906156,-0.239017318989852
1580421596.70771,-0.94508278019379,-0.0427252613107498,-0.228274967574578
1580421596.7117,-0.947524223697261,-0.0490730144197755,-0.216556038757915
1580421596.71569,-0.952895399404898,-0.0588387884336612,-0.206790264744029
1580421596.71969,-0.957778286411841,-0.0632333867399097,-0.199954222934309
1580421596.72368,-0.964614328221561,-0.0661631189440754,-0.194583047226672
1580421596.72767,-0.968520637827115,-0.067139696345464,-0.184328984512092
1580421596.73167,-0.97242694743267,-0.0607919432364383,-0.179934386205844
1580421596.73566,-0.976821545738918,-0.0573739223315783,-0.176516365300984
1580421596.73966,-0.977798123140307,-0.0437018387121384,-0.170168612191958
1580421596.74365,-0.981704432745861,-0.0388189517051956,-0.159426260776684
1580421596.74764,-0.983169298847944,-0.0349126420996413,-0.148683909361409
1580421596.75164,-0.987075608453498,-0.0305180437933927,-0.138918135347524
1580421596.75563,-0.994399938963912,-0.0280766002899213,-0.130128938735027
1580421596.75962,-1.00318913557641,-0.0319829098954756,-0.11450370031281
1580421596.76361,-1.01100175478752,-0.0373540856031127,-0.101808194094758
1580421596.7676,-1.02467383840696,-0.0402838178072784,-0.0783703364614325
1580421596.7716,-1.03492790112154,-0.0466315709163041,-0.0578622110322726
1580421596.77559,-1.04859998474098,-0.0510261692225527,-0.044678416113527
1580421596.77958,-1.06227206836042,-0.0578622110322726,-0.0251468680857556
1580421596.78358,-1.07350270847639,-0.0549324788281069,-0.00659189745937283
1580421596.78757,-1.08522163729305,-0.0578622110322726,0.0222171358815899
1580421596.79156,-1.0896162355993,-0.0563973449301898,0.0407721065079727
1580421596.79556,-1.09498741130693,-0.0544441901274126,0.0651865415426869
1580421596.79955,-1.09498741130693,-0.0559090562294955,0.0783703364614325
1580421596.80355,-1.09401083390555,-0.0534676127260241,0.104737926298924
1580421596.80754,-1.09352254520485,-0.0539559014267184,0.125734340428778
1580421596.81153,-1.09059281300069,-0.0520027466239412,0.149660486762798
1580421596.81553,-1.09010452429999,-0.0471198596169984,0.173586633096818
1580421596.81952,-1.09059281300069,-0.0441901274128327,0.189211871519035
1580421596.82351,-1.08473334859235,-0.0432135500114441,0.212649729152361
1580421596.82751,-1.08619821469444,-0.0402838178072784,0.231692988479438
1580421596.8315,-1.08473334859235,-0.0407721065079727,0.24682993820096
1580421596.83549,-1.08863965819791,-0.0358892195010299,0.264408331425955
1580421596.83949,-1.09156939040207,-0.034424353398947,0.284916456855115
1580421596.8435,-1.10035858701457,-0.034424353398947,0.29810025177386
1580421596.8475,-1.10231174181735,-0.0300297550926985,0.322514686808574
1580421596.85149,-1.10524147402151,-0.0280766002899213,0.341069657434957
1580421596.85549,-1.11354238193332,-0.0300297550926985,0.364995803768977
1580421596.85948,-1.12086671244373,-0.0285648889906156,0.379156176089111
1580421596.86347,-1.12721446555276,-0.0314946211947813,0.3972228580148
1580421596.86747,-1.13844510566873,-0.0319829098954756,0.406012054627297
1580421596.87146,-1.15114061188678,-0.0358892195010299,0.419195849546043
1580421596.87545,-1.17994964522774,-0.037842374303807,0.430426489662011
1580421596.87945,-1.21657129777981,-0.0461432822156098,0.437262531471731
1580421596.88344,-1.25709925993744,-0.0495613031204698,0.432379644464788
1580421596.88743,-1.29518577859159,-0.0607919432364383,0.435797665369648
1580421596.89143,-1.33180743114366,-0.0734874494544897,0.438727397573814
1580421596.89542,-1.36794079499504,-0.0837415121690697,0.439703974975203
1580421596.89942,-1.40212100404364,-0.0944838635843439,0.459235523002974
1580421596.90341,-1.44655527580682,-0.099855039291981,0.476325627527274
1580421596.9074,-1.50270847638666,-0.0920424200808725,0.503669794766157
1580421596.91139,-1.56472114137484,-0.0817883573662925,0.505622949568934
1580421596.91539,-1.61452658884565,-0.070557717250324,0.490974288548102
1580421596.91938,-1.63845273517967,-0.0749523155565726,0.420172426947431
1580421596.92337,-1.6531013962005,-0.0979018844892039,0.277103837644006
1580421596.92736,-1.65114824139773,-0.102784771496147,0.118410009918364
1580421596.93136,-1.64626535439078,-0.0827649347676811,-0.0305180437933927
1580421596.93535,-1.64968337529564,-0.0397955291065841,-0.171145189593346
1580421596.93934,-1.63747615777829,-0.0251468680857556,-0.285404745555811
1580421596.94334,-1.59499504081788,-0.0612802319371326,-0.37769130998703
1580421596.94733,-1.51491569390402,-0.130128938735027,-0.42896162355993
1580421596.95132,-1.41286335545892,-0.206301976043335,-0.425055313954376
1580421596.95532,-1.320088502327,-0.269779507133594,-0.390875104905776
1580421596.95931,-1.21461814297703,-0.308354314488442,-0.364507515068285
1580421596.9633,-1.09889372091249,-0.327885862516213,-0.336186770428016
1580421596.9673,-0.97242694743267,-0.335698481727322,-0.274662394140536
1580421596.97129,-0.853772793163959,-0.363042648966202,-0.202395666437781
1580421596.97529,-0.830823224231327,-0.362554360265507,-0.180910963607232
1580421596.97928,-0.888929579613947,-0.285404745555811,-0.197024490730143
1580421596.98327,-0.947035934996567,-0.205813687342641,-0.198489356832226
1580421596.98727,-0.968032349126421,-0.155031662470435,-0.186282139314869
1580421596.99126,-0.976821545738918,-0.133546959639887,-0.157473105973907
1580421596.99525,-0.981216144045167,-0.120851453421835,-0.115480277714198
1580421596.99925,-0.987563897154192,-0.105714503700312,-0.0661631189440754
1580421597.00323,-0.995864805065995,-0.0915541313801782,-0.0187991149767299
1580421597.00723,-1.00465400167849,-0.0803234912642097,0.024170290684367
1580421597.01122,-1.01393148699168,-0.0749523155565726,0.0549324788281069
1580421597.01521,-1.0295567254139,-0.0695811398489354,0.0856946669718468
1580421597.01921,-1.04420538643473,-0.0720225833524069,0.10424963759823
1580421597.0232,-1.05006485084306,-0.0871595330739297,0.114015411612115
1580421597.0272,-1.04518196383612,-0.112062256809338,0.130617227435721
1580421597.03119,-1.02906843671321,-0.133546959639887,0.143801022354467
1580421597.03518,-1.00953688868544,-0.145265888456549,0.149660486762798
1580421597.03918,-0.987563897154192,-0.136964980544747,0.150148775463492
1580421597.04317,-0.963637750820173,-0.121828030823224,0.135500114442664
1580421597.04716,-0.943129625391013,-0.0935072861829553,0.12475776302739
1580421597.05116,-0.91773861295491,-0.0559090562294955,0.125734340428778
1580421597.05515,-0.894300755321584,-0.0207522697795071,0.138429846646829
1580421597.05914,-0.875257495994507,0.0192874036774242,0.155519951171129
1580421597.06314,-0.853772793163959,0.0627450980392155,0.179446097505149
1580421597.06713,-0.831799801632716,0.10083161669337,0.190188448920424
1580421597.07112,-0.81861600671397,0.140383001449607,0.198001068131532
1580421597.07512,-0.802014190890365,0.172610055695429,0.178957808804455
1580421597.07911,-0.792736705577173,0.202395666437781,0.148195620660715
1580421597.08313,-0.778088044556345,0.221438925764858,0.110109102006561
1580421597.08712,-0.76392767223621,0.226810101472495,0.0842298008697639
1580421597.09112,-0.749767299916074,0.223392080567635,0.0607919432364383
1580421597.09511,-0.731212329289692,0.208255130846112,0.0432135500114441
1580421597.0991,-0.714610513466086,0.180422674906538,0.0393072404058898
1580421597.1031,-0.696543831540398,0.153078507667658,0.0349126420996413
1580421597.10709,-0.67750057221332,0.114015411612115,0.0432135500114441
1580421597.11108,-0.661875333791103,0.0729991607537954,0.0607919432364383
1580421597.11508,-0.649179827573052,0.0339360646982527,0.0822766460669868
1580421597.11907,-0.641855497062638,-0.00561532005798426,0.105714503700312
1580421597.12306,-0.636972610055695,-0.044678416113527,0.133546959639887
1580421597.12706,-0.641367208361943,-0.0783703364614325,0.158449683375295
1580421597.13105,-0.648691538872358,-0.115968566414892,0.187258716716258
1580421597.13504,-0.655039291981383,-0.154055085069047,0.222415503166246
1580421597.13904,-0.665293354695963,-0.188723582818341,0.25708400091554
1580421597.14303,-0.676035706111238,-0.224368657969023,0.290287632562752
1580421597.14703,-0.683848325322346,-0.260990310521096,0.324956130312046
1580421597.15102,-0.695567254139009,-0.298100251773862,0.35962462806134
1580421597.15501,-0.703868162050812,-0.337163347829405,0.3972228580148
1580421597.15901,-0.704356450751506,-0.373785000381476,0.426031891355763
1580421597.16299,-0.711192492561226,-0.410894941634242,0.451422903791865
1580421597.16699,-0.713633936064697,-0.44946974898909,0.474860761425191
1580421597.17098,-0.715587090867475,-0.481696803234913,0.487556267643242
1580421597.17497,-0.716563668268863,-0.51099412527657,0.501228351262686
1580421597.17897,-0.7219348439765,-0.540291447318227,0.517830167086291
1580421597.18296,-0.726329442282749,-0.563241016250858,0.536385137712674
1580421597.18695,-0.723887998779277,-0.586190585183489,0.547615777828643
1580421597.19095,-0.723399710078583,-0.606210421911955,0.557381551842528
1580421597.19494,-0.7219348439765,-0.621835660334172,0.571541924162663
1580421597.19894,-0.718028534370946,-0.635019455252918,0.58374914168002
1580421597.20293,-0.707774471656366,-0.634042877851529,0.592538338292517
1580421597.20692,-0.697032120241092,-0.634531166552224,0.60083924620432
1580421597.21092,-0.68433661402304,-0.626230258640421,0.594491493095294
1580421597.21491,-0.667734798199435,-0.612558175020981,0.591073472190434
1580421597.2189,-0.658457312886243,-0.595956359197375,0.577401388570994
1580421597.2229,-0.644296940566109,-0.579354543373769,0.562264438849471
1580421597.22689,-0.632578011749446,-0.564705882352941,0.54956893263142
1580421597.23088,-0.628183413443198,-0.543221179522392,0.535408560311286
1580421597.23488,-0.625741969939726,-0.516365300984207,0.518318455786986
1580421597.23887,-0.621347371633478,-0.481208514534218,0.500740062561992
1580421597.24292,-0.622323949034866,-0.443610284580759,0.489997711146714
1580421597.24691,-0.628671702143892,-0.398687724116884,0.473884184023802
1580421597.25091,-0.641367208361943,-0.349370565346762,0.469489585717554
1580421597.2549,-0.663340199893186,-0.298100251773862,0.456305790798808
1580421597.25889,-0.6877546349279,-0.246341649500266,0.452887769893948
1580421597.26289,-0.71509880216678,-0.192141603723201,0.447028305485617
1580421597.26688,-0.746837567711909,-0.141847867551689,0.445563439383534
1580421597.27087,-0.777111467154956,-0.0930189974822611,0.450446326390477
1580421597.27487,-0.812756542305639,-0.048096437018387,0.458258945601585
1580421597.27886,-0.846936751354239,-0.0075684748607614,0.466071564812694
1580421597.28286,-0.881605249103533,0.0285648889906156,0.476813916227968
1580421597.28685,-0.910414282444496,0.0563973449301898,0.499275196459905
1580421597.29084,-0.937758449683376,0.0778820477607383,0.530525673304343
1580421597.29483,-0.953383688105593,0.0969253070878153,0.560311284046694
1580421597.29883,-0.966079194323644,0.115968566414892,0.595956359197377
1580421597.30282,-0.973403524834058,0.133058670939192,0.63160143434806
1580421597.30682,-0.979751277943084,0.146242465857938,0.653086137178608
1580421597.31081,-0.985610742351415,0.159426260776684,0.674570840009157
1580421597.3148,-0.990005340657664,0.177004654001678,0.687266346227208
1580421597.3188,-0.99635309376669,0.193118181124589,0.699961852445259
1580421597.32278,-0.999282825970855,0.205813687342641,0.715098802166782
1580421597.32678,-0.993911650263218,0.214114595254443,0.728770885786222
1580421597.33077,-0.984634164950027,0.218509193560692,0.738536659800108
1580421597.33476,-0.973891813534753,0.217532616159303,0.756115053025102
1580421597.33876,-0.951430533302815,0.207278553444723,0.771740291447319
1580421597.34275,-0.921644922560464,0.185793850614175,0.785900663767453
1580421597.34675,-0.884046692607004,0.154543373769741,0.789318684672313
1580421597.35074,-0.844983596551462,0.11450370031281,0.782482642862593
1580421597.35473,-0.805432211795225,0.0778820477607383,0.768322270542459
1580421597.35873,-0.773205157549402,0.0393072404058898,0.758556496528573
1580421597.36272,-0.757579919127185,0.00219729915312428,0.728770885786222
1580421597.36671,-0.758068207827879,-0.0271000228885327,0.709727626459145
1580421597.37071,-0.778576333257039,-0.0583504997329669,0.682871747920959
1580421597.3747,-0.821545738918136,-0.0798352025635154,0.634531166552225
1580421597.37869,-0.872816052491036,-0.110597390707255,0.600350957503625
1580421597.38269,-0.926039520866713,-0.163820859082932,0.554451819638363
1580421597.38668,-0.97242694743267,-0.254154268711376,0.470954451819637
1580421597.39067,-1.01197833218891,-0.378179598687725,0.329839017318989
1580421597.39467,-1.03590447852293,-0.51441214618143,0.163332570382238
1580421597.39866,-1.0378576333257,-0.643808651865415,0.0222171358815899
1580421597.40268,-1.02418554970626,-0.750743877317465,-0.0490730144197755
1580421597.40667,-1.01588464179446,-0.812756542305639,-0.0300297550926985
1580421597.41067,-1.01490806439307,-0.803479056992447,0.0300297550926985
1580421597.41466,-1.04322880903334,-0.714610513466086,0.115480277714198
1580421597.41865,-1.09449912260624,-0.562752727550164,0.230228122377355
1580421597.42265,-1.15358205539025,-0.395269703212024,0.376226443884946
1580421597.42664,-1.18483253223468,-0.247318226901655,0.524177920195317
1580421597.43063,-1.16578927290761,-0.137941557946135,0.640390630960557
1580421597.43463,-1.12037842374304,-0.0568856336308841,0.663340199893188
1580421597.43862,-1.06080720225834,-0.0153810940718699,0.595956359197377
1580421597.44261,-1.00953688868544,0.00317387655451284,0.462653543907834
1580421597.44661,-0.978774700541695,0.00512703135728998,0.302983138780803
1580421597.4506,-0.980727855344472,0.00708018616006711,0.196047913328755
1580421597.45459,-1.00172426947433,0.00512703135728998,0.139894712748912
1580421597.45859,-1.03590447852293,0.0173342488746471,0.120851453421835
1580421597.46258,-1.06910811017014,0.0197756923781185,0.109620813305867
1580421597.46657,-1.09449912260624,-0.00219729915312428,0.0896009765774011
1580421597.47057,-1.10914778362707,-0.0466315709163041,0.0559090562294955
1580421597.47456,-1.11256580453193,-0.0896009765774011,0.0163576714732585
1580421597.47856,-1.11110093842985,-0.0852063782711525,-0.00170901045242999
1580421597.48254,-1.11842526894026,-0.024170290684367,0.00659189745937283
1580421597.48654,-1.14381628137636,0.0622568093385212,-0.0144045166704814
1580421597.49053,-1.15407034409094,0.141847867551689,-0.0695811398489354
1580421597.49452,-1.13307392996109,0.178469520103761,-0.174074921797512
1580421597.49852,-1.09694056610971,0.176516365300984,-0.281498435950256
1580421597.50251,-1.04029907682918,0.139894712748912,-0.374761577782865
1580421597.50651,-0.969497215228504,0.0891126878767068,-0.42554360265507
1580421597.5105,-0.899671931029221,0.0461432822156098,-0.430914778362707
1580421597.51449,-0.850354772259099,0.0363775082017241,-0.39136339360647
1580421597.51848,-0.824963759822996,0.0632333867399097,-0.325444419012742
1580421597.52248,-0.824963759822996,0.125246051728084,-0.251712825207905
1580421597.52647,-0.843030441748684,0.207278553444723,-0.189700160219729
1580421597.53047,-0.873792629892424,0.296147096971083,-0.162844281681544
1580421597.53446,-0.909437705043107,0.361577782864117,-0.169680323491264
1580421597.53845,-0.93824673838407,0.39038681620508,-0.190676737621118
1580421597.54245,-0.962661173418784,0.364995803768977,-0.185793850614175
1580421597.54644,-0.989028763256275,0.302006561379415,-0.159914549477378
1580421597.55043,-1.01832608529793,0.216067750057221,-0.114015411612115
1580421597.55443,-1.04762340733959,0.125246051728084,-0.0734874494544897
1580421597.55842,-1.06715495536736,0.0515144579232469,-0.044678416113527
1580421597.56241,-1.07399099717708,-0.00952162966353853,-0.0363775082017241
1580421597.5664,-1.07301441977569,-0.0510261692225527,-0.0266117341878385
1580421597.57039,-1.07399099717708,-0.063721675440604,-0.0207522697795071
1580421597.57439,-1.07545586327916,-0.0549324788281069,-0.0158693827725642
1580421597.57838,-1.07740901808194,-0.0285648889906156,-0.0134279392690928
1580421597.58238,-1.07545586327916,0.00561532005798426,-0.0100099183642328
1580421597.58637,-1.06715495536736,0.041260395208667,-0.0129396505683985
1580421597.59036,-1.05299458304723,0.0759288929579611,-0.0319829098954756
1580421597.59436,-1.03346303501946,0.105714503700312,-0.0495613031204698
1580421597.59835,-1.01197833218891,0.129640650034332,-0.0524910353246355
1580421597.60234,-0.990493629358358,0.140871290150301,-0.0520027466239412
1580421597.60634,-0.969497215228504,0.145754177157244,-0.0402838178072784
1580421597.61033,-0.952895399404898,0.147707331960021,-0.0251468680857556
1580421597.61432,-0.931898985275044,0.135500114442664,-0.01196307316701
1580421597.61832,-0.911879148546578,0.11792172121767,-0.00170901045242999
1580421597.62231,-0.897718776226444,0.0949721522850382,0.0075684748607614
1580421597.6263,-0.888929579613947,0.0725108720531011,0.01196307316701
1580421597.6303,-0.887953002212559,0.0476081483176927,0.0163576714732585
1580421597.63429,-0.894789044022279,0.0212405584802013,0.0290531776913099
1580421597.63828,-0.910414282444496,0.0178225375753414,0.0314946211947813
1580421597.64227,-0.930434119172961,0.0148928053711757,0.0339360646982527
1580421597.64627,-0.952407110704204,0.0319829098954756,0.037842374303807
1580421597.65026,-0.968032349126421,0.0520027466239412,0.0363775082017241
1580421597.65425,-0.97926298924239,0.0734874494544897,0.031006332494087
1580421597.65825,-0.984634164950027,0.0983901731898982,0.024170290684367
1580421597.66224,-0.979751277943084,0.127199206530861,0.0212405584802013
1580421597.66623,-0.966567483024338,0.160402838178072,0.0183108262760356
1580421597.67023,-0.962661173418784,0.190188448920424,0.0114747844663157
1580421597.67422,-0.956801709010453,0.226321812771801,0.0100099183642328
1580421597.67821,-0.953383688105593,0.2605020218204,0.0046387426565957
1580421597.68221,-0.948012512397955,0.284916456855115,-0.00170901045242999
1580421597.6862,-0.946059357595178,0.299565117875943,-0.0231937132829785
1580421597.69019,-0.940688181887541,0.305912870984969,-0.044678416113527
1580421597.69419,-0.931898985275044,0.300541695277332,-0.0646982528419926
1580421597.69818,-0.928480964370184,0.285893034256503,-0.0690928511482412
1580421597.70217,-0.91773861295491,0.265384908827343,-0.0598153658350498
1580421597.70617,-0.914808880750744,0.238529030289158,-0.0461432822156098
1580421597.71016,-0.918226901655604,0.214602883955138,-0.0163576714732585
1580421597.71416,-0.920180056458381,0.195559624628061,0.00659189745937283
1580421597.71815,-0.930434119172961,0.177492942702372,0.0251468680857556
1580421597.72214,-0.944594491493095,0.157473105973907,0.027588311589227
1580421597.72613,-0.970962081330587,0.123781185626001,0.0246585793850613
1580421597.73012,-0.999282825970855,0.0876478217746239,0.01196307316701
1580421597.73412,-1.0207675288014,0.0422369726100555,-0.00952162966353853
1580421597.73811,-1.02809185931182,-0.0104982070649271,-0.0227054245822842
1580421597.74211,-1.02906843671321,-0.060303654535744,-0.0397955291065841
1580421597.7461,-1.01734950789654,-0.109620813305867,-0.0588387884336612
1580421597.75009,-1.00270084687572,-0.145265888456549,-0.0681162737468526
1580421597.75408,-0.983657587548638,-0.163820859082932,-0.0715342946517126
1580421597.75808,-0.966567483024338,-0.174563210498206,-0.0661631189440754
1580421597.76207,-0.952895399404898,-0.171633478294041,-0.0700694285496297
1580421597.76607,-0.943617914091707,-0.159914549477378,-0.0676279850461583
1580421597.77006,-0.946547646295873,-0.138429846646829,-0.0622568093385212
1580421597.77405,-0.947524223697261,-0.118410009918364,-0.0627450980392155
1580421597.77805,-0.968520637827115,-0.0920424200808725,-0.0646982528419926
1580421597.78204,-0.967544060425727,-0.0847180895704582,-0.0720225833524069
1580421597.78603,-0.955825131609064,-0.0886243991760125,-0.077393759060044
1580421597.79003,-0.969985503929198,-0.0764171816586554,-0.0817883573662925
1580421597.79402,-1.01539635309377,-0.0817883573662925,-0.0886243991760125
1580421597.79801,-1.01588464179446,-0.0754406042572668,-0.070557717250324
1580421597.802,-1.02418554970626,-0.0441901274128327,-0.0568856336308841
1580421597.80599,-1.01490806439307,-0.0495613031204698,-0.0500495918211641
1580421597.80999,-1.12965590905623,0.0271000228885327,-0.0544441901274126
1580421597.81398,-1.09205767910277,-0.0129396505683985,-0.0251468680857556
1580421597.81798,-1.04176394293126,-0.00122072175173571,-0.00561532005798426
1580421597.82197,-1.0041657129778,-0.00317387655451284,-0.00512703135728998
1580421597.82596,-0.97242694743267,0.0046387426565957,-0.0207522697795071
1580421597.82996,-0.937758449683376,0.00268558785381856,-0.0422369726100555
1580421597.83395,-0.905043106736859,0.00512703135728998,-0.0651865415426869
1580421597.83794,-0.885023270008393,0.0217288471808956,-0.0905775539787896
1580421597.84194,-0.877698939497979,0.0554207675288012,-0.113038834210727
1580421597.84593,-0.893324177920196,0.102784771496147,-0.141359578850995
1580421597.84992,-0.923109788662547,0.159426260776684,-0.163332570382238
1580421597.85392,-0.973403524834058,0.213138017853055,-0.174563210498206
1580421597.85791,-1.02272068360418,0.255130846112763,-0.177492942702372
1580421597.8619,-1.0642252231632,0.283451590753032,-0.159426260776684
1580421597.8659,-1.0979171435111,0.30493629358358,-0.133546959639887
1580421597.86989,-1.12867933165484,0.308842603189134,-0.0886243991760125
1580421597.87388,-1.16188296330205,0.29810025177386,-0.0383306630045013
1580421597.87788,-1.18532082093538,0.269291218432897,0.0158693827725642
1580421597.8819,-1.20094605935759,0.227298390173189,0.0754406042572668
1580421597.88589,-1.21022354467079,0.177004654001678,0.125246051728084
1580421597.88988,-1.21559472037842,0.142824444953078,0.168703746089875
1580421597.89388,-1.22047760738537,0.11108567940795,0.201419089036392
1580421597.89787,-1.23024338139925,0.0920424200808725,0.208743419546806
1580421597.90186,-1.24196231021591,0.0778820477607383,0.223880369268329
1580421597.90586,-1.25758754863813,0.0573739223315783,0.221927214465552
1580421597.90985,-1.27956054016938,0.0432135500114441,0.235599298084992
1580421597.91384,-1.30592813000687,0.0217288471808956,0.238529030289158
1580421597.91784,-1.33180743114366,-0.00708018616006711,0.246341649500266
1580421597.92183,-1.36061646448463,-0.0329594872968642,0.256107423514152
1580421597.92582,-1.38161287861448,-0.0627450980392155,0.261966887922483
1580421597.92982,-1.39284351873045,-0.0939955748836496,0.266849774929426
1580421597.93381,-1.39186694132906,-0.12133974212253,0.273685816739146
1580421597.93781,-1.38551918822004,-0.147707331960021,0.281986724650949
1580421597.9418,-1.3801480125124,-0.166750591287098,0.285404745555809
1580421597.94579,-1.38307774471656,-0.174074921797512,0.273197528038452
1580421597.94979,-1.40358587014572,-0.170656900892652,0.25024795910582
1580421597.95378,-1.43678950179294,-0.145265888456549,0.224856946669718
1580421597.95777,-1.46999313344015,-0.108644235904478,0.204837109941252
1580421597.96176,-1.50466163118944,-0.0559090562294955,0.185305561913481
1580421597.96575,-1.53688868543526,-0.00170901045242999,0.189211871519035
1580421597.96975,-1.56374456397345,0.0441901274128327,0.200930800335698
1580421597.97374,-1.5847409781033,0.0744640268558783,0.206790264744029
1580421597.97774,-1.60476081483177,0.0832532234683754,0.211184863050278
1580421597.98173,-1.62331578545815,0.0896009765774011,0.218509193560692
1580421597.98572,-1.63747615777829,0.0979018844892039,0.244876783398183
1580421597.98972,-1.65261310749981,0.108644235904478,0.302006561379415
1580421597.99371,-1.65896086060883,0.104737926298924,0.366948958571754
1580421597.9977,-1.64528877698939,0.0715342946517126,0.416754406042571
1580421598.0017,-1.6194094758526,0.0163576714732585,0.430426489662011
1580421598.00569,-1.57741664759289,-0.0432135500114441,0.409918364232851
1580421598.00968,-1.53054093232624,-0.11108567940795,0.391851682307163
1580421598.01368,-1.4822003509575,-0.175051499198901,0.377691309987028
1580421598.01767,-1.43825436789502,-0.23657587548638,0.368413824673837
1580421598.02166,-1.40114442664225,-0.292240787365531,0.35962462806134
1580421598.02566,-1.3630579079881,-0.337651636530099,0.343022812237734
1580421598.02965,-1.33278400854505,-0.369878690775922,0.332768749523154
1580421598.03364,-1.29811551079576,-0.394293125810636,0.320073243305103
1580421598.03764,-1.28444342717632,-0.406500343327993,0.312748912794689
1580421598.04163,-1.29665064469368,-0.393804837109942,0.322514686808574
1580421598.04562,-1.3205767910277,-0.364507515068285,0.346440833142594
1580421598.04961,-1.35915159838254,-0.327885862516213,0.292240787365529
1580421598.05361,-1.40114442664225,-0.287846189059282,0.165774013885709
1580421598.0576,-1.44509040970474,-0.236087586785686,0.01196307316701
1580421598.06159,-1.47145799954223,-0.171145189593346,-0.143801022354467
1580421598.06559,-1.45583276112001,-0.109620813305867,-0.284916456855116
1580421598.06958,-1.41237506675822,-0.0754406042572668,-0.438727397573816
1580421598.07357,-1.37868314641032,-0.0656748302433812,-0.614999618524452
1580421598.07757,-1.35817502098116,-0.0451667048142212,-0.817151140611887
1580421598.08156,-1.34157320515755,-0.00268558785381856,-1.05201800564584
1580421598.08555,-1.33620202944991,0.0749523155565726,-1.24782177462425
1580421598.08955,-1.34157320515755,0.174074921797512,-1.32399481193256
1580421598.09354,-1.35329213397421,0.285893034256503,-1.27272449835966
1580421598.09753,-1.36745250629435,0.397711146715494,-1.1320973525597
1580421598.10153,-1.39528496223392,0.477790493629357,-0.943129625391013
1580421598.10552,-1.42897688258183,0.496833752956434,-0.751232166018159
1580421598.10951,-1.47243457694362,0.470954451819637,-0.591073472190432
1580421598.11351,-1.53444724193179,0.42114900434882,-0.442145418478676
1580421598.1175,-1.61550316624704,0.379644464789806,-0.306889448386359
1580421598.12155,-1.69069962615396,0.328374151216906,-0.193118181124589
1580421598.12555,-1.73806363012131,0.268314641031509,-0.110109102006561
1580421598.12954,-1.74636453803311,0.173098344396124,-0.0656748302433812
1580421598.13353,-1.71804379339284,0.0441901274128327,-0.060303654535744
1580421598.13752,-1.6789806973373,-0.0900892652780954,-0.0842298008697639
1580421598.14152,-1.63308155947204,-0.197024490730143,-0.117433432516975
1580421598.14551,-1.58181124589914,-0.263920042725262,-0.145265888456549
1580421598.14951,-1.52614633401999,-0.277592126344702,-0.154055085069047
1580421598.1535,-1.48171206225681,-0.258060578316931,-0.167238879987792
1580421598.15749,-1.43923094529641,-0.227298390173189,-0.181399252307926
1580421598.16149,-1.40065613794156,-0.207766842145418,-0.204348821240558
1580421598.16548,-1.37770656900893,-0.206790264744029,-0.23657587548638
1580421598.16947,-1.36647592889296,-0.220950637064163,-0.259037155718319
1580421598.17347,-1.35133897917144,-0.242923628595406,-0.274662394140536
1580421598.17746,-1.32936598764019,-0.271244373235676,-0.293217364766919
1580421598.18145,-1.30251010910201,-0.293705653467613,-0.299565117875945
1580421598.18545,-1.26442359044785,-0.300053406576639,-0.303959716182193
1580421598.18944,-1.21803616388189,-0.287846189059282,-0.314213778896773
1580421598.19343,-1.17067215991455,-0.260013733119708,-0.313725490196079
1580421598.19743,-1.12477302204929,-0.222415503166246,-0.316655222400245
1580421598.20142,-1.08619821469444,-0.170168612191958,-0.312260624093996
1580421598.20541,-1.05445944914931,-0.118898298619058,-0.315190356298162
1580421598.2094,-1.02809185931182,-0.067139696345464,-0.307866025787748
1580421598.2134,-0.99977111467155,-0.0168459601739528,-0.305424582284276
1580421598.21739,-0.976821545738918,0.0319829098954756,-0.302006561379416
1580421598.22138,-0.958266575112535,0.0754406042572668,-0.295658808270391
1580421598.22538,-0.939711604486153,0.10766765850309,-0.296635385671779
1580421598.22937,-0.912855725947967,0.134523537041275,-0.296147096971085
1580421598.23336,-0.877698939497979,0.147219043259327,-0.293705653467613
1580421598.23736,-0.835217822537576,0.159914549477378,-0.288822766460671
1580421598.24135,-0.799084458686199,0.166262302586404,-0.286381322957199
1580421598.24534,-0.759044785229268,0.169680323491264,-0.293217364766919
1580421598.24934,-0.719981689173723,0.171633478294041,-0.303959716182193
1580421598.25333,-0.67750057221332,0.168703746089875,-0.311284046692608
1580421598.25732,-0.637460898756389,0.163820859082932,-0.322026398107882
1580421598.26132,-0.601815823605707,0.158937972075989,-0.34692912184329
1580421598.26531,-0.568612191958495,0.154543373769741,-0.375249866483559
1580421598.2693,-0.531013962005035,0.145754177157244,-0.39478141451133
1580421598.2733,-0.493415732051576,0.143312733653772,-0.423590447852293
1580421598.27729,-0.462653543907836,0.143801022354467,-0.457282368200199
1580421598.28131,-0.42554360265507,0.145754177157244,-0.482185091935607
1580421598.2853,-0.395757991912719,0.146242465857938,-0.513435568780041
1580421598.2893,-0.36401922636759,0.150637064164187,-0.550057221332112
1580421598.29329,-0.332768749523156,0.153566796368352,-0.591561760891127
1580421598.29728,-0.296635385671779,0.148195620660715,-0.630136568245975
1580421598.30128,-0.266361486228734,0.144289311055161,-0.665293354695963
1580421598.30527,-0.234622720683603,0.132082093537804,-0.692149233234149
1580421598.30926,-0.206301976043335,0.10766765850309,-0.697520408941786
1580421598.31326,-0.186770428015564,0.0710460059510183,-0.681406881818875
1580421598.31725,-0.166262302586404,0.0183108262760356,-0.655527580682078
1580421598.32125,-0.146730754558632,-0.037842374303807,-0.609628442816815
1580421598.32524,-0.0979018844892039,-0.122804608224612,-0.540291447318227
1580421598.32923,-0.0632333867399097,-0.215091172655832,-0.445563439383536
1580421598.33323,-0.0510261692225527,-0.283451590753033,-0.336186770428016
1580421598.33722,-0.0729991607537954,-0.321049820706493,-0.216556038757915
1580421598.34121,-0.103761348897535,-0.311772335393302,-0.0896009765774011
1580421598.34521,-0.139894712748912,-0.288822766460671,0.0231937132829785
1580421598.3492,-0.189211871519035,-0.248294804303043,0.114991989013504
1580421598.35319,-0.244388494697489,-0.203860532539863,0.183352407110704
1580421598.35719,-0.312748912794691,-0.156984817273212,0.255619134813458
1580421598.36117,-0.392828259708553,-0.123292896925307,0.331303883421072
1580421598.36517,-0.483161669336996,-0.101319905394064,0.417242694743265
1580421598.36916,-0.585702296482795,-0.0866712443732354,0.516365300984209
1580421598.37316,-0.689707789730678,-0.0813000686655982,0.615976195925843
1580421598.37715,-0.804455634393836,-0.0822766460669868,0.723887998779279
1580421598.38114,-0.942153047989624,-0.0891126878767068,0.846448462653544
1580421598.38514,-1.09596398870832,-0.116945143816281,0.997329671168078
1580421598.38913,-1.26100556954299,-0.182375829709315,1.17164873731594
1580421598.39312,-1.40505073624781,-0.310307469291219,1.30739299610895
1580421598.39712,-1.49196612497139,-0.489509422446021,1.36012817578393
1580421598.40111,-1.52809948882277,-0.674082551308461,1.31471732661936
1580421598.4051,-1.52809948882277,-0.801037613488976,1.22975509269856
1580421598.4091,-1.5168688487068,-0.824963759822996,1.12965590905623
1580421598.41309,-1.50368505378805,-0.755626764324408,1.01930266269932
1580421598.41708,-1.47585259784848,-0.615487907225146,0.898207064927139
1580421598.42108,-1.42800030518044,-0.424567025253682,0.781506065461205
1580421598.42507,-1.33571374074922,-0.230716411078049,0.661387045090411
1580421598.42906,-1.2175478751812,-0.0842298008697639,0.543221179522394
1580421598.43306,-1.0979171435111,-0.00366216525520713,0.439703974975203
1580421598.43705,-1.01051346608682,0.0222171358815899,0.341069657434957
1580421598.44104,-0.955825131609064,0.0236820019836728,0.293705653467612
1580421598.44503,-0.936293583581293,0.0153810940718699,0.312748912794689
1580421598.44903,-0.947035934996567,0.00659189745937283,0.384039063096054
1580421598.45302,-0.956801709010453,0.00708018616006711,0.50513466086824
1580421598.45701,-0.954848554207675,0.00219729915312428,0.639902342259862
1580421598.46101,-0.932875562676433,0.00659189745937283,0.760509651331351
1580421598.465,-0.905531395437553,0.0202639810788128,0.838635843442436
1580421598.46899,-0.861097123674373,0.0490730144197755,0.844983596551462
1580421598.47299,-0.78443579766537,0.0803234912642097,0.789806973373008
1580421598.47698,-0.683360036621652,0.110109102006561,0.677500572213322
1580421598.48097,-0.573983367666132,0.148195620660715,0.521248187991151
1580421598.48497,-0.542244602121004,0.222415503166246,0.358159761959257
1580421598.48896,-0.591073472190432,0.329839017318989,0.102296482795452
1580421598.49295,-0.626718547341115,0.408453498130768,-0.219485770962081
1580421598.49695,-0.664316777294575,0.451422903791865,-0.495368886854353
1580421598.50094,-0.753673609521631,0.461188677805751,-0.7048447394522
1580421598.50494,-0.865003433279927,0.440680552376591,-0.806408789196613
1580421598.50893,-0.978286411841001,0.379644464789806,-0.78785381857023
1580421598.51292,-1.09352254520485,0.292240787365529,-0.631113145647364
1580421598.51692,-1.21461814297703,0.161379415579461,-0.365972381170367
1580421598.52093,-1.33522545204852,-0.0271000228885327,-0.0920424200808725
1580421598.52493,-1.49587243457694,-0.209719996948195,0.0920424200808725
1580421598.52892,-1.69997711146715,-0.287357900358588,0.184328984512092
1580421598.53291,-1.88210879682612,-0.216556038757915,0.271732661936369
1580421598.53691,-1.98709086747539,-0.031006332494087,0.383062485694666
1580421598.5409,-2.01638818951705,0.181399252307926,0.479743648432134
1580421598.5449,-2.00515754940108,0.338139925230792,0.506599526970323
1580421598.54889,-1.95193408102541,0.324956130312046,0.444098573281451
1580421598.55288,-1.83865110246433,0.193606469825284,0.334233615625237
1580421598.55688,-1.6706797894255,0.0173342488746471,0.193606469825284
1580421598.56087,-1.45778591592279,-0.200930800335698,0.0471198596169984
1580421598.56486,-1.22047760738537,-0.40161745632105,-0.0544441901274126
1580421598.56886,-0.995864805065995,-0.54517433432517,-0.113038834210727
1580421598.57285,-0.832776379034105,-0.613534752422369,-0.124269474326695
1580421598.57684,-0.744884412909132,-0.613534752422369,-0.115968566414892
1580421598.58084,-0.706309605554283,-0.571541924162661,-0.128175783932249
1580421598.58483,-0.678477149614709,-0.498298619058518,-0.190188448920424
1580421598.58882,-0.645273517967498,-0.382574196993973,-0.317143511100939
1580421598.59282,-0.604257267109178,-0.250247959105822,-0.453864347295339
1580421598.59681,-0.56910048065919,-0.114015411612115,-0.577889677271687
1580421598.6008,-0.536873426413367,0.0129396505683985,-0.656015869382772
1580421598.60479,-0.519783321889067,0.135011825741969,-0.71509880216678
1580421598.60879,-0.535896849011978,0.275150682841229,-0.754650186923019
1580421598.61278,-0.602304112306401,0.453864347295337,-0.796154726482033
1580421598.61677,-0.726329442282749,0.680918593118182,-0.837170977340353
1580421598.62077,-0.886488136110476,0.920180056458381,-0.858167391470207
1580421598.62476,-1.05397116044862,1.12526131074998,-0.83228809033341
1580421598.62875,-1.19801632715343,1.23268482490272,-0.775158312352179
1580421598.63275,-1.2946974898909,1.21315327687495,-0.689707789730678
1580421598.63674,-1.32643625543603,1.0896162355993,-0.582284275577935
1580421598.64073,-1.30788128480964,0.909925993743801,-0.46997787441825
1580421598.64473,-1.26393530174716,0.731700617990388,-0.399664301518273
1580421598.64872,-1.23707942320897,0.598397802700848,-0.368902113374533
1580421598.65271,-1.23903257801175,0.521248187991151,-0.39478141451133
1580421598.65671,-1.25514610513466,0.481208514534217,-0.430426489662013
1580421598.6607,-1.27174792095827,0.459235523002974,-0.454352635996033
1580421598.6647,-1.26344701304646,0.443610284580757,-0.448493171587701
1580421598.66869,-1.23121995880064,0.432867933165483,-0.407965209430076
1580421598.67268,-1.17262531471733,0.408453498130768,-0.358159761959259
1580421598.67668,-1.0979171435111,0.354253452353703,-0.296147096971085
1580421598.68069,-1.02369726100557,0.266849774929426,-0.256595712214848
1580421598.68469,-0.955825131609064,0.156008239871824,-0.242435339894712
1580421598.68868,-0.907972838941024,0.034424353398947,-0.240970473792629
1580421598.69267,-0.870862897688259,-0.0822766460669868,-0.243900205996795
1580421598.69667,-0.847425040054933,-0.192629892423895,-0.241458762493323
1580421598.70066,-0.837170977340353,-0.289799343862059,-0.225345235370412
1580421598.70465,-0.832776379034105,-0.370366979476616,-0.197512779430838
1580421598.70865,-0.838147554741742,-0.43237964446479,-0.172121766994735
1580421598.71264,-0.844495307850767,-0.46997787441825,-0.134523537041275
1580421598.71664,-0.854261081864653,-0.491950865949493,-0.103273060196841
1580421598.72063,-0.877210650797284,-0.482673380636301,-0.060303654535744
1580421598.72462,-0.902601663233387,-0.446540016784924,-0.0256351567864499
1580421598.72862,-0.91773861295491,-0.395269703212024,-0.00659189745937283
1580421598.73261,-0.942153047989624,-0.320561532005799,0.00366216525520713
1580421598.7366,-0.918715190356298,-0.264408331425956,0.0075684748607614
1580421598.7406,-0.936781872281987,-0.146730754558632,-0.000732433051041426
1580421598.74459,-0.655039291981383,-0.228274967574578,0.0227054245822842
1580421598.74858,-1.17213702601663,0.309330891889829,-0.073975738155184
1580421598.75258,-1.07496757457847,-0.00708018616006711,-0.0646982528419926
1580421598.75657,-0.985610742351415,0.0764171816586554,-0.0231937132829785
1580421598.76056,-0.957778286411841,0.139894712748912,-0.0515144579232469
1580421598.76455,-0.96559090562295,0.155031662470435,-0.0783703364614325
1580421598.76855,-0.95191882200351,0.190676737621118,-0.0632333867399097
1580421598.77254,-0.908949416342413,0.200442511635003,-0.0598153658350498
1580421598.77653,-0.89381246662089,0.220950637064163,-0.0656748302433812
1580421598.78053,-0.864515144579233,0.201907377737086,-0.0710460059510183
1580421598.78452,-0.846936751354239,0.190188448920424,-0.0700694285496297
1580421598.78851,-0.841077286945907,0.174563210498206,-0.077393759060044
1580421598.79251,-0.846448462653544,0.156984817273212,-0.0842298008697639
1580421598.7965,-0.848889906157016,0.136964980544747,-0.0847180895704582
1580421598.80049,-0.851331349660487,0.115480277714198,-0.0900892652780954
1580421598.80449,-0.847913328755627,0.10083161669337,-0.102296482795452
1580421598.80848,-0.83912413214313,0.0920424200808725,-0.101319905394064
1580421598.81247,-0.826428625925079,0.0891126878767068,-0.103761348897535
1580421598.81647,-0.814709697108416,0.0939955748836496,-0.103761348897535
1580421598.82046,-0.802990768291753,0.102784771496147,-0.10083161669337
1580421598.82446,-0.801037613488976,0.114015411612115,-0.0969253070878153
1580421598.82845,-0.807385366598002,0.126710917830167,-0.0988784618905925
1580421598.83244,-0.813733119707027,0.140383001449607,-0.11450370031281
1580421598.83643,-0.836682688639659,0.159914549477378,-0.129640650034332
1580421598.84042,-0.860608834973679,0.167727168688486,-0.138918135347524
1580421598.84442,-0.894789044022279,0.173586633096818,-0.142336156252384
1580421598.84841,-0.930922407873656,0.171633478294041,-0.139406424048218
1580421598.8524,-0.962661173418784,0.171145189593346,-0.125734340428778
1580421598.8564,-0.988052185854887,0.168215457389181,-0.0935072861829553
1580421598.86039,-1.01734950789654,0.179446097505149,-0.0549324788281069
1580421598.86438,-1.05055313954376,0.196536202029449,-0.00659189745937283
1580421598.86838,-1.07838559548333,0.215579461356526,0.0466315709163041
1580421598.87237,-1.10963607232776,0.230716411078049,0.0993667505912867
1580421598.87636,-1.14283970397497,0.228763256275272,0.175539787899595
1580421598.88036,-1.17701991302357,0.213138017853055,0.248783093003738
1580421598.88435,-1.21998931868467,0.185793850614175,0.301029983978026
1580421598.88835,-1.2693064774548,0.145754177157244,0.336186770428014
1580421598.89234,-1.30543984130617,0.0930189974822611,0.353765163653009
1580421598.89633,-1.33522545204852,0.0271000228885327,0.359136339360646
1580421598.90033,-1.35280384527352,-0.0393072404058898,0.366948958571754
1580421598.90432,-1.35378042267491,-0.0993667505912867,0.371343556878003
1580421598.90831,-1.34840924696727,-0.150637064164187,0.369390402075226
1580421598.91231,-1.34401464866102,-0.188235294117646,0.35278858625162
1580421598.9163,-1.33669031815061,-0.222903791866941,0.311284046692606
1580421598.92032,-1.33278400854505,-0.258548867017625,0.261966887922483
1580421598.92431,-1.33180743114366,-0.281986724650951,0.218997482261386
1580421598.9283,-1.33278400854505,-0.297611963073168,0.190676737621118
1580421598.9323,-1.3371786068513,-0.296147096971085,0.182864118410009
1580421598.93629,-1.34987411306935,-0.264896620126651,0.197512779430838
1580421598.94029,-1.37233539330129,-0.218509193560692,0.216556038757915
1580421598.94428,-1.39821469443809,-0.160891126878766,0.237064164187075
1580421598.94827,-1.41579308766308,-0.0954604409857325,0.25708400091554
1580421598.95227,-1.42702372777905,-0.0397955291065841,0.251224536507209
1580421598.95626,-1.42995345998322,-0.00170901045242999,0.2434119172961
1580421598.96025,-1.43483634699016,0.0163576714732585,0.224368657969023
1580421598.96425,-1.44753185320821,0.0236820019836728,0.204837109941252
1580421598.96824,-1.4572976272221,0.0266117341878385,0.184328984512092
1580421598.97223,-1.47878233005264,0.0388189517051956,0.178469520103761
1580421598.97623,-1.49538414587625,0.0686045624475469,0.175539787899595
1580421598.98022,-1.51442740520333,0.105714503700312,0.185305561913481
1580421598.98421,-1.54470130464637,0.146730754558632,0.200930800335698
1580421598.98821,-1.57009231708247,0.171145189593346,0.215579461356526
1580421598.9922,-1.59548332951858,0.186770428015564,0.229739833676661
1580421598.99619,-1.62380407415885,0.199465934233615,0.243900205996795
1580421599.00018,-1.65603112840467,0.217044327458609,0.261478599221789
1580421599.00418,-1.69460593575952,0.238040741588463,0.320561532005797
1580421599.00817,-1.71511406118868,0.246341649500266,0.401617456321048
1580421599.01216,-1.71609063859007,0.223880369268329,0.460700389105057
1580421599.01616,-1.69753566796368,0.172610055695429,0.50171663996338
1580421599.02015,-1.65603112840467,0.103761348897535,0.517341878385597
1580421599.02414,-1.60573739223316,0.0144045166704814,0.531013962005037
1580421599.02814,-1.55202563515679,-0.0827649347676811,0.554940108339057
1580421599.03213,-1.49538414587625,-0.182864118410009,0.591561760891128
1580421599.03612,-1.43288319218738,-0.278080415045396,0.614023041123065
1580421599.04012,-1.38307774471656,-0.346440833142596,0.61451132982376
1580421599.04411,-1.34840924696727,-0.393804837109942,0.555428397039751
1580421599.04811,-1.31715877012284,-0.427008468757153,0.450446326390477
1580421599.0521,-1.27907225146868,-0.454840924696727,0.324467841611352
1580421599.05609,-1.24831006332494,-0.467536430914778,0.201907377737086
1580421599.06008,-1.24440375371939,-0.446540016784924,0.0944838635843439
1580421599.06408,-1.26149385824369,-0.385015640497445,0.0183108262760356
1580421599.06807,-1.31764705882353,-0.301029983978028,-0.0349126420996413
1580421599.07207,-1.41237506675822,-0.201907377737086,-0.135500114442664
1580421599.07606,-1.52272831311513,-0.132570382238498,-0.282475013351645
1580421599.08005,-1.57009231708247,-0.102784771496147,-0.462653543907836
1580421599.08404,-1.54763103685054,-0.106691081101701,-0.687266346227206
1580421599.08803,-1.47927061875334,-0.123781185626001,-0.891371023117419
1580421599.09203,-1.42165255207141,-0.113527122911421,-1.06861982146944
1580421599.09602,-1.40260929274434,-0.0554207675288012,-1.19069199664301
1580421599.10001,-1.41042191195544,0.0695811398489354,-1.20387579156176
1580421599.10401,-1.42653543907836,0.25366598001068,-1.10377660791943
1580421599.108,-1.45241474021515,0.426031891355763,-0.927504386968796
1580421599.11199,-1.4822003509575,0.545174334325171,-0.759533073929962
1580421599.11599,-1.50710307469291,0.601815823605708,-0.640390630960555
1580421599.11998,-1.52809948882277,0.606210421911957,-0.544197756923781
1580421599.12398,-1.56130312046998,0.575448233768217,-0.471442740520333
1580421599.12797,-1.59645990691997,0.507087815671017,-0.420172426947433
1580421599.13196,-1.63161669336995,0.40064087891966,-0.363042648966202
1580421599.13596,-1.66384374761578,0.251712825207903,-0.300541695277333
1580421599.13995,-1.68435187304494,0.0593270771343555,-0.238529030289158
1580421599.14394,-1.68874647135119,-0.143801022354467,-0.186770428015564
1580421599.14794,-1.68972304875257,-0.310307469291219,-0.135988403143358
1580421599.15193,-1.68435187304494,-0.400152590218967,-0.0988784618905925
1580421599.15592,-1.67116807812619,-0.41870756084535,-0.0769054703593497
1580421599.15994,-1.64870679789425,-0.375738155184253,-0.0778820477607383
1580421599.16394,-1.60524910353246,-0.31958495460441,-0.100343327992675
1580421599.16793,-1.55251392385748,-0.271732661936371,-0.140383001449607
1580421599.17192,-1.50222018768597,-0.231204699778743,-0.184817273212786
1580421599.17592,-1.45436789501793,-0.212161440451666,-0.228763256275272
1580421599.17991,-1.41091020065614,-0.205325398641946,-0.266849774929428
1580421599.1839,-1.36842908369574,-0.210696574349583,-0.290775921263448
1580421599.1879,-1.3288776989395,-0.215579461356526,-0.309330891889831
1580421599.19189,-1.30446326390478,-0.217044327458609,-0.327885862516213
1580421599.19588,-1.28737315938048,-0.205325398641946,-0.345464255741208
1580421599.19988,-1.25856412603952,-0.177981231403066,-0.362066071564813
1580421599.20387,-1.22047760738537,-0.142336156252384,-0.38110933089189
1580421599.20786,-1.18971541924163,-0.0896009765774011,-0.389410238803693
1580421599.21186,-1.17164873731594,-0.0314946211947813,-0.402105745021744
1580421599.21585,-1.14381628137636,0.0295414663920042,-0.401129167620356
1580421599.21984,-1.10963607232776,0.0793469138628211,-0.38794537270161
1580421599.22384,-1.07106126497291,0.122316319523918,-0.366948958571756
1580421599.22783,-1.03932249942779,0.153078507667658,-0.345464255741208
1580421599.23182,-1.00270084687572,0.177004654001678,-0.330327306019685
1580421599.23582,-0.964614328221561,0.198489356832226,-0.313725490196079
1580421599.23981,-0.921644922560464,0.217532616159303,-0.314213778896773
1580421599.2438,-0.874280918593119,0.226321812771801,-0.308354314488442
1580421599.24779,-0.820569161516747,0.23315785458152,-0.302494850080111
1580421599.25179,-0.770275425345236,0.223880369268329,-0.300053406576639
1580421599.25578,-0.71851682307164,0.213138017853055,-0.304936293583582
1580421599.25977,-0.673594262607766,0.197024490730143,-0.320561532005799
1580421599.26377,-0.627695124742504,0.175051499198901,-0.33325703822385
1580421599.26776,-0.588143739986267,0.156496528572518,-0.362066071564813
1580421599.27175,-0.550545510032807,0.139894712748912,-0.386968795300222
1580421599.27575,-0.512458991378653,0.12133974212253,-0.416754406042573
1580421599.27974,-0.479255359731441,0.103273060196841,-0.45630579079881
1580421599.28374,-0.447516594186313,0.0837415121690697,-0.493415732051576
1580421599.28773,-0.409918364232853,0.0627450980392155,-0.523201342793927
1580421599.29172,-0.37427328908217,0.0432135500114441,-0.531013962005035
1580421599.29572,-0.335210193026628,0.024170290684367,-0.534431982909895
1580421599.29971,-0.306889448386359,0.00512703135728998,-0.546639200427252
1580421599.3037,-0.275150682841231,-0.00903334096284425,-0.559822995345998
1580421599.3077,-0.242435339894712,-0.0129396505683985,-0.574959945067521
1580421599.31169,-0.211673151750972,-0.0187991149767299,-0.591073472190432
1580421599.31568,-0.177981231403066,-0.0168459601739528,-0.596444647898069
1580421599.3197,-0.145265888456549,-0.0236820019836728,-0.601815823605707
1580421599.32369,-0.11792172121767,-0.031006332494087,-0.594979781795987
1580421599.32769,-0.0988784618905925,-0.0461432822156098,-0.597421225299458
1580421599.33168,-0.0803234912642097,-0.0832532234683754,-0.602304112306401
1580421599.33568,-0.0720225833524069,-0.131593804837109,-0.590585183489738
1580421599.33967,-0.0300297550926985,-0.172610055695429,-0.550057221332112
1580421599.34366,-0.00805676356145568,-0.221927214465552,-0.479255359731441
1580421599.34766,-0.0139162279697871,-0.247318226901655,-0.392828259708553
1580421599.35165,-0.0290531776913099,-0.2434119172961,-0.288334477759976
1580421599.35564,-0.0568856336308841,-0.198001068131532,-0.175539787899595
1580421599.35964,-0.101319905394064,-0.135500114442664,-0.060303654535744
1580421599.36363,-0.157473105973907,-0.0856946669718468,0.0222171358815899
1580421599.36762,-0.237064164187075,-0.0583504997329669,0.0690928511482412
1580421599.37162,-0.33667505912871,-0.0515144579232469,0.113038834210727
1580421599.37561,-0.462653543907836,-0.0456549935149155,0.168703746089875
1580421599.3796,-0.600350957503624,-0.0427252613107498,0.264408331425955
1580421599.3836,-0.736583504997329,-0.0510261692225527,0.396734569314106
1580421599.38759,-0.878187228198673,-0.0715342946517126,0.578866254673077
1580421599.39158,-1.02711528191043,-0.117433432516975,0.794201571679256
1580421599.39558,-1.15651178759441,-0.200442511635003,1.03053330281529
1580421599.39957,-1.30788128480964,-0.308842603189136,1.26930647745479
1580421599.40356,-1.47780575265126,-0.429449912260624,1.51149767299916
1580421599.40755,-1.64089417868315,-0.578866254673075,1.70730144197757
1580421599.41155,-1.7302510109102,-0.700938429846646,1.81960784313726
1580421599.41554,-1.74441138323033,-0.73218890669108,1.84744029907683
1580421599.41953,-1.77370870527199,-0.601327534905012,1.78445105668727
1580421599.42353,-1.80349431601434,-0.386480506599527,1.6360112916762
1580421599.42752,-1.80056458381018,-0.150148775463492,1.40260929274433
1580421599.43151,-1.69460593575952,0.0754406042572668,1.12135500114443
1580421599.43551,-1.48708323796445,0.235111009384298,0.807385366598002
1580421599.4395,-1.24000915541314,0.302006561379415,0.493415732051574
1580421599.4435,-1.01783779659724,0.276127260242617,0.201907377737086
1580421599.44749,-0.861585412375067,0.198489356832226,-0.0129396505683985
1580421599.45148,-0.775646601052873,0.099855039291981,-0.101319905394064
1580421599.45547,-0.748302433813992,0.0261234454871442,-0.0144045166704814
1580421599.45947,-0.760997940032045,-0.0187991149767299,0.202395666437781
1580421599.46346,-0.776623178454262,-0.0402838178072784,0.444586861982145
1580421599.46746,-0.771740291447319,-0.0363775082017241,0.688731212329291
1580421599.47145,-0.779064621957733,-0.00659189745937283,0.838147554741742
1580421599.47544,-0.809338521400779,0.0354009308003356,0.882093537804227
1580421599.47943,-0.875257495994507,0.113527122911421,0.785412375066759
1580421599.48342,-0.939711604486153,0.227786678873883,0.467536430914777
1580421599.48742,-0.999282825970855,0.357183184557869,-0.00903334096284425
1580421599.49141,-1.07301441977569,0.526131074998094,-0.53150225070573
1580421599.4954,-1.11793698023957,0.678477149614711,-0.914808880750744
1580421599.4994,-1.09987029831388,0.717540245670254,-1.00465400167849
1580421599.50339,-1.03297474631876,0.608163576714734,-0.840100709544519
1580421599.50739,-0.976333257038224,0.390875104905774,-0.512947280079347
1580421599.51138,-0.946059357595178,0.100343327992675,-0.143312733653772
1580421599.51537,-0.981704432745861,-0.189700160219729,0.162355992980849
1580421599.51937,-1.09352254520485,-0.39136339360647,0.373785000381474
1580421599.52336,-1.23610284580758,-0.449958037689784,0.465094987411305
1580421599.52735,-1.36354619668879,-0.36401922636759,0.423102159151597
1580421599.53135,-1.48805981536584,-0.136476691844052,0.29810025177386
1580421599.53534,-1.59157701991302,0.118898298619058,0.195559624628061
1580421599.53933,-1.66677347981994,0.262455176623178,0.194583047226672
1580421599.54333,-1.71950865949493,0.270267795834286,0.202883955138475
1580421599.54732,-1.72829785610742,0.214602883955138,0.150148775463492
1580421599.55131,-1.69411764705882,0.120851453421835,0.0856946669718468
1580421599.55531,-1.6018310826276,-0.00122072175173571,0.0104982070649271
1580421599.55933,-1.44411383230335,-0.166262302586404,-0.0939955748836496
1580421599.56332,-1.25709925993744,-0.339116502632182,-0.212161440451666
1580421599.56731,-1.08229190508888,-0.461676966506447,-0.331792172121768
1580421599.57131,-0.944594491493095,-0.497810330357824,-0.426520180056459
1580421599.5753,-0.827405203326467,-0.468513008316167,-0.498786907759213
1580421599.57929,-0.736583504997329,-0.398687724116884,-0.533455405508507
1580421599.58329,-0.675547417410543,-0.296635385671779,-0.533943694209201
1580421599.58728,-0.644296940566109,-0.192141603723201,-0.50757610437171
1580421599.59127,-0.623300526436255,-0.116456855115587,-0.486579690241856
1580421599.59527,-0.594491493095292,-0.0827649347676811,-0.494392309452964
1580421599.59926,-0.54859235523003,-0.0852063782711525,-0.519783321889067
1580421599.60325,-0.49732204165713,-0.0920424200808725,-0.536873426413367
1580421599.60725,-0.475837338826581,-0.0764171816586554,-0.530037384603647
1580421599.61124,-0.51783016708629,-0.00415045395590141,-0.493415732051576
1580421599.61523,-0.622812237735561,0.12133974212253,-0.453864347295339
1580421599.61923,-0.801037613488976,0.284916456855115,-0.429938200961319
1580421599.62322,-1.01051346608682,0.470466163118942,-0.417730983443962
1580421599.62721,-1.21461814297703,0.666758220798048,-0.427985046158541
1580421599.63121,-1.37282368200198,0.850354772259099,-0.451911192492561
1580421599.6352,-1.43678950179294,0.959731441214618,-0.462165255207141
1580421599.63919,-1.41335164415961,0.930434119172961,-0.447028305485619
1580421599.64318,-1.3542687113756,0.79127183947509,-0.38794537270161
1580421599.64718,-1.31520561532006,0.625253681239034,-0.296635385671779
1580421599.65117,-1.29762722209506,0.497322041657128,-0.219974059662775
1580421599.65516,-1.29079118028534,0.423590447852291,-0.178957808804455
1580421599.65916,-1.26784161135271,0.391851682307163,-0.177981231403066
1580421599.66315,-1.22096589608606,0.370855268177309,-0.194583047226672
1580421599.66715,-1.1579766536965,0.368413824673837,-0.211673151750972
1580421599.67114,-1.08473334859235,0.378667887388417,-0.217044327458609
1580421599.67513,-1.02027924010071,0.370366979476614,-0.202883955138475
1580421599.67912,-0.976333257038224,0.343022812237734,-0.177492942702372
1580421599.68312,-0.940688181887541,0.283451590753032,-0.155519951171129
1580421599.68711,-0.905531395437553,0.197024490730143,-0.134035248340581
1580421599.69111,-0.881605249103533,0.0993667505912867,-0.130617227435721
1580421599.6951,-0.865491721980622,-0.00854505226214997,-0.134523537041275
1580421599.69909,-0.851819638361182,-0.110597390707255,-0.140383001449607
1580421599.70309,-0.838635843442436,-0.200442511635003,-0.133546959639887
1580421599.70708,-0.840588998245213,-0.269779507133594,-0.118898298619058
1580421599.71107,-0.848889906157016,-0.312748912794691,-0.0891126878767068
1580421599.71507,-0.865980010681316,-0.330327306019685,-0.0520027466239412
1580421599.71908,-0.869398031586176,-0.324956130312048,-0.0197756923781185
1580421599.72308,-0.864515144579233,-0.308354314488442,0.0129396505683985
1580421599.72707,-0.816174563210499,-0.288822766460671,0.0319829098954756
1580421599.73107,-0.873792629892424,0.0573739223315783,0.0383306630045013
1580421599.73506,-1.18092622262913,-0.0236820019836728,-0.0700694285496297
1580421599.73905,-1.03639276722362,-0.0974135957885096,0.0153810940718699
1580421599.74305,-0.988052185854887,-0.0285648889906156,-0.00415045395590141
1580421599.74704,-0.991470206759747,0.00561532005798426,-0.0236820019836728
1580421599.75103,-0.990493629358358,0.0476081483176927,-0.037842374303807
1580421599.75503,-0.990493629358358,0.0944838635843439,-0.0402838178072784
1580421599.75902,-0.975356679636835,0.108155947203784,-0.0393072404058898
1580421599.76301,-0.944594491493095,0.11450370031281,-0.0397955291065841
1580421599.76701,-0.937758449683376,0.135500114442664,-0.0510261692225527
1580421599.771,-0.911879148546578,0.129640650034332,-0.0622568093385212
1580421599.77499,-0.885511558709087,0.134523537041275,-0.0764171816586554
1580421599.77899,-0.868421454184787,0.148195620660715,-0.0852063782711525
1580421599.78298,-0.869398031586176,0.165774013885709,-0.0983901731898982
1580421599.78697,-0.877210650797284,0.190188448920424,-0.110597390707255
1580421599.79097,-0.90406652933547,0.216067750057221,-0.128664072632944
1580421599.79496,-0.929945830472267,0.241458762493323,-0.150148775463492
1580421599.79895,-0.953383688105593,0.254154268711375,-0.180910963607232
1580421599.80294,-0.965102616922255,0.25708400091554,-0.201907377737086
1580421599.80694,-0.967544060425727,0.255130846112763,-0.212161440451666
1580421599.81093,-0.953383688105593,0.2434119172961,-0.215579461356526
1580421599.81492,-0.932875562676433,0.228763256275272,-0.200442511635003
1580421599.81892,-0.904554818036164,0.211673151750972,-0.177492942702372
1580421599.82291,-0.877210650797284,0.189211871519035,-0.164309147783626
1580421599.8269,-0.858655680170902,0.163820859082932,-0.151125352864881
1580421599.8309,-0.845471885252156,0.137453269245441,-0.144777599755855
1580421599.83489,-0.843518730449379,0.119386587319752,-0.134523537041275
1580421599.83888,-0.848889906157016,0.102296482795452,-0.131105516136415
1580421599.84288,-0.861097123674373,0.0905775539787896,-0.122804608224612
1580421599.84687,-0.887953002212559,0.0813000686655982,-0.116945143816281
1580421599.85086,-0.918226901655604,0.0744640268558783,-0.11450370031281
1580421599.85486,-0.951430533302815,0.0710460059510183,-0.116456855115587
1580421599.85885,-0.988052185854887,0.0734874494544897,-0.123292896925307
1580421599.86285,-1.02662699320974,0.0793469138628211,-0.12475776302739
1580421599.86684,-1.0637369344625,0.0822766460669868,-0.116456855115587
1580421599.87083,-1.10768291752499,0.0764171816586554,-0.0954604409857325
1580421599.87483,-1.14772259098192,0.0617685206378269,-0.0598153658350498
1580421599.87881,-1.17701991302357,0.0363775082017241,-0.0212405584802013
1580421599.88281,-1.1916685740444,0.000732433051041426,0.0251468680857556
1580421599.8868,-1.20485236896315,-0.0314946211947813,0.0725108720531011
1580421599.89079,-1.21120012207217,-0.0554207675288012,0.114991989013504
1580421599.89479,-1.21266498817426,-0.067139696345464,0.145754177157244
1580421599.89878,-1.21510643167773,-0.0646982528419926,0.175539787899595
1580421599.90277,-1.21266498817426,-0.0617685206378269,0.209719996948195
1580421599.90677,-1.20778210116731,-0.0515144579232469,0.25366598001068
1580421599.91076,-1.2092469672694,-0.0393072404058898,0.288822766460669
1580421599.91476,-1.21559472037842,-0.0271000228885327,0.326420996414129
1580421599.91875,-1.22243076218814,-0.0163576714732585,0.354253452353703
1580421599.92274,-1.23512626840619,-0.0163576714732585,0.35278858625162
1580421599.92674,-1.25416952773327,-0.024170290684367,0.330327306019683
1580421599.93073,-1.28200198367285,-0.0339360646982527,0.286381322957197
1580421599.93472,-1.30592813000687,-0.0524910353246355,0.245365072098878
1580421599.93872,-1.3283894102388,-0.0700694285496297,0.208743419546806
1580421599.94271,-1.3454795147631,-0.0803234912642097,0.201419089036392
1580421599.9467,-1.36842908369574,-0.0695811398489354,0.226810101472495
1580421599.9507,-1.39772640573739,-0.0441901274128327,0.273197528038452
1580421599.95469,-1.41676966506447,-0.00903334096284425,0.324956130312046
1580421599.95871,-1.42702372777905,0.0236820019836728,0.377691309987028
1580421599.9627,-1.41823453116655,0.0339360646982527,0.418219272144654
1580421599.9667,-1.40260929274434,0.0290531776913099,0.430426489662011
1580421599.97069,-1.37624170290684,0.00610360875867855,0.418219272144654
1580421599.97468,-1.35378042267491,-0.0300297550926985,0.401617456321048
1580421599.97868,-1.33424887464714,-0.0534676127260241,0.391363393606468
1580421599.98267,-1.32155336842908,-0.0720225833524069,0.40064087891966
1580421599.98666,-1.31911192492561,-0.0813000686655982,0.417242694743265
1580421599.99066,-1.31715877012284,-0.0896009765774011,0.447028305485617
1580421599.99465,-1.31813534752422,-0.0910658426794839,0.493904020752268
1580421599.99864,-1.31081101701381,-0.0847180895704582,0.545174334325171
1580421600.00264,-1.2946974898909,-0.0793469138628211,0.599374380102237
1580421600.00663,-1.27418936446174,-0.0856946669718468,0.604745555809874
1580421600.01062,-1.2517280842298,-0.0983901731898982,0.539803158617534
1580421600.01462,-1.24147402151522,-0.106691081101701,0.407965209430074
1580421600.01861,-1.24049744411383,-0.108644235904478,0.286869611657892
1580421600.02261,-1.26247043564508,-0.0876478217746239,0.193118181124589
1580421600.0266,-1.28200198367285,-0.0642099641412983,0.126710917830167
1580421600.03059,-1.2863965819791,-0.0363775082017241,0.0896009765774011
1580421600.03459,-1.28737315938048,-0.00610360875867855,0.0793469138628211
1580421600.03857,-1.27956054016938,0.0300297550926985,0.0876478217746239
1580421600.04257,-1.27565423056382,0.0622568093385212,0.112550545510032
1580421600.04656,-1.26100556954299,0.0729991607537954,0.131593804837109
1580421600.05055,-1.24196231021591,0.0593270771343555,0.137941557946135
1580421600.05455,-1.22780193789578,0.0256351567864499,0.143801022354467
1580421600.05854,-1.23366140230411,-0.0168459601739528,0.142824444953078
1580421600.06254,-1.24928664072633,-0.0627450980392155,0.117433432516975
1580421600.06653,-1.28444342717632,-0.0905775539787896,0.0827649347676811
1580421600.07052,-1.33180743114366,-0.0910658426794839,0.0437018387121384
1580421600.07451,-1.40065613794156,-0.0656748302433812,0.00903334096284425
1580421600.07851,-1.47731746395056,-0.0178225375753414,-0.0441901274128327
1580421600.0825,-1.55593194476234,0.0393072404058898,-0.116456855115587
1580421600.0865,-1.61647974364843,0.107179369802395,-0.219974059662775
1580421600.09049,-1.67360952162966,0.172121766994735,-0.350835431448845
1580421600.09448,-1.71999694819562,0.235111009384298,-0.470954451819638
1580421600.09848,-1.74294651712825,0.290287632562752,-0.579842832074464
1580421600.10247,-1.74978255893797,0.327397573815517,-0.672617685206378
1580421600.10646,-1.74294651712825,0.351812008850231,-0.777111467154956
1580421600.11046,-1.71560234988937,0.358648050659951,-0.896253910124361
1580421600.11445,-1.66872663462272,0.3459525444419,-1.00465400167849
1580421600.11847,-1.6106202792401,0.301029983978026,-1.09840543221179
1580421600.12246,-1.56032654306859,0.23315785458152,-1.13405050736248
1580421600.12646,-1.52761120012207,0.154543373769741,-1.11549553673609
1580421600.13045,-1.52126344701305,0.0676279850461583,-1.07985046158541
1580421600.13444,-1.55593194476234,-0.0476081483176927,-1.02516212710765
1580421600.13844,-1.62380407415885,-0.195559624628061,-0.911879148546578
1580421600.14243,-1.69655909056229,-0.371831845578699,-0.761486228732739
1580421600.14642,-1.77175555046922,-0.53833829251545,-0.576913099870298
1580421600.15042,-1.83474479285878,-0.659922178988326,-0.393804837109942
1580421600.15441,-1.88259708552682,-0.703379873350118,-0.239017318989852
1580421600.1584,-1.90701152056153,-0.668223086900129,-0.104737926298924
1580421600.1624,-1.9182421606775,-0.573495078965438,-0.00561532005798426
1580421600.16639,-1.91970702677958,-0.456794079499504,0.0407721065079727
1580421600.17038,-1.91042954146639,-0.352788586251622,0.0490730144197755
1580421600.17438,-1.88162050812543,-0.293217364766919,0.0158693827725642
1580421600.17837,-1.83865110246433,-0.269779507133594,-0.0295414663920042
1580421600.18236,-1.79079880979629,-0.268314641031511,-0.073975738155184
1580421600.18636,-1.74685282673381,-0.267338063630122,-0.116945143816281
1580421600.19035,-1.7048599984741,-0.259037155718319,-0.154055085069047
1580421600.19435,-1.66335545891508,-0.23657587548638,-0.195559624628061
1580421600.19833,-1.62722209506371,-0.219974059662775,-0.232181277180132
1580421600.20233,-1.58913557640955,-0.205813687342641,-0.274174105439842
1580421600.20632,-1.54177157244221,-0.200442511635003,-0.315190356298162
1580421600.21031,-1.49343099107347,-0.194094758525978,-0.34009308003357
1580421600.21431,-1.4402075226978,-0.196047913328755,-0.353276874952316
1580421600.2183,-1.38063630121309,-0.206790264744029,-0.361577782864119
1580421600.22229,-1.31911192492561,-0.215579461356526,-0.34692912184329
1580421600.22629,-1.24782177462425,-0.231692988479438,-0.338139925230793
1580421600.23028,-1.18092622262913,-0.239505607690546,-0.331792172121768
1580421600.23427,-1.11842526894026,-0.237552452887769,-0.315190356298162
1580421600.23827,-1.06324864576181,-0.218020904859998,-0.306401159685665
1580421600.24226,-1.00709544518196,-0.191165026321812,-0.301518272678722
1580421600.24625,-0.957778286411841,-0.144777599755855,-0.304448004882888
1580421600.25025,-0.906507972838941,-0.096437018387121,-0.310795757991913
1580421600.25424,-0.854261081864653,-0.0329594872968642,-0.312260624093996
1580421600.25824,-0.805920500495919,0.0271000228885327,-0.318120088502328
1580421600.26223,-0.758556496528573,0.0944838635843439,-0.327885862516213
1580421600.26622,-0.715587090867475,0.156008239871824,-0.330327306019685
1580421600.27022,-0.668711375600823,0.206790264744029,-0.34351110093843
1580421600.27421,-0.620370794232089,0.255619134813458,-0.355718318455787
1580421600.2782,-0.573983367666132,0.290287632562752,-0.372808422980087
1580421600.28219,-0.53492027161059,0.313725490196077,-0.400152590218967
1580421600.28619,-0.486579690241856,0.321049820706492,-0.42896162355993
1580421600.29018,-0.448493171587701,0.31860837720302,-0.462653543907836
1580421600.29417,-0.407965209430076,0.308842603189134,-0.50415808346685
1580421600.29816,-0.369878690775922,0.296147096971083,-0.539314869916838
1580421600.30216,-0.341557946135653,0.2775921263447,-0.584237430380712
1580421600.30615,-0.313725490196079,0.254642557412069,-0.627206836041809
1580421600.31015,-0.288822766460671,0.242435339894712,-0.670176241702906
1580421600.31414,-0.271732661936371,0.229251544975966,-0.703379873350118
1580421600.31813,-0.249759670405126,0.221927214465552,-0.729259174486915
1580421600.32213,-0.238529030289158,0.208255130846112,-0.755626764324408
1580421600.32612,-0.222415503166246,0.203372243839169,-0.77418173495079
1580421600.33011,-0.207766842145418,0.201907377737086,-0.791760128175785
1580421600.33411,-0.188235294117646,0.206301976043335,-0.803479056992447
1580421600.3381,-0.166750591287098,0.209231708247501,-0.810803387502862
1580421600.34209,-0.142336156252384,0.211673151750972,-0.813733119707027
1580421600.34609,-0.123292896925307,0.210208285648889,-0.819592584115359
1580421600.35008,-0.0974135957885096,0.217532616159303,-0.81861600671397
1580421600.35407,-0.0725108720531011,0.216556038757915,-0.809826810101473
1580421600.35809,-0.0520027466239412,0.207766842145418,-0.79468986037995
1580421600.36209,-0.0329594872968642,0.177981231403066,-0.752697032120242
1580421600.36608,-0.00366216525520713,0.135011825741969,-0.673594262607766
1580421600.37007,0.0207522697795071,0.0798352025635154,-0.55201037613489
1580421600.37407,0.0163576714732585,0.0261234454871442,-0.401129167620356
1580421600.37806,0.0046387426565957,-0.0114747844663157,-0.235111009384298
1580421600.38205,-0.0192874036774242,-0.0456549935149155,-0.0842298008697639
1580421600.38605,-0.0617685206378269,-0.0744640268558783,0.0314946211947813
1580421600.39004,-0.150637064164187,-0.096437018387121,0.119874876020447
1580421600.39403,-0.258060578316931,-0.11792172121767,0.184817273212786
1580421600.39803,-0.369390402075227,-0.137453269245441,0.246341649500266
1580421600.40202,-0.488532845044633,-0.142336156252384,0.309819180590523
1580421600.40601,-0.606210421911955,-0.140871290150301,0.389410238803691
1580421600.41001,-0.716563668268863,-0.155519951171129,0.488532845044631
1580421600.414,-0.827405203326467,-0.207278553444723,0.630624856946671
1580421600.418,-0.958266575112535,-0.298100251773862,0.82887006942855
1580421600.42199,-1.12623788815137,-0.424078736552987,1.08229190508888
1580421600.42598,-1.36891737239643,-0.549080643930724,1.35524528877699
1580421600.42998,-1.61306172274357,-0.672129396505683,1.61843289845121
1580421600.43397,-1.77029068436713,-0.800061036087587,1.85378805218586
1580421600.43796,-1.80349431601434,-0.885999847409781,1.99392690928511
1580421600.44195,-1.75710688944839,-0.891371023117419,1.95925841153582
1580421600.44594,-1.68874647135119,-0.839612420843824,1.7820096131838
1580421600.44994,-1.61110856794079,-0.737560082398717,1.57351033798734
1580421600.45393,-1.50270847638666,-0.575936522468909,1.40651560234989
1580421600.45792,-1.36452277409018,-0.382574196993973,1.26198214694438
1580421600.46192,-1.1921568627451,-0.203860532539863,1.07789730678263
1580421600.46591,-1.0124666208896,-0.0817883573662925,0.823987182421607
1580421600.4699,-0.847913328755627,-0.067139696345464,0.552498664835586
1580421600.4739,-0.730235751888303,-0.153078507667658,0.327885862516212
1580421600.47789,-0.676035706111238,-0.275150682841231,0.199465934233615
1580421600.48189,-0.700450141145952,-0.366460669871062,0.166262302586404
1580421600.48588,-0.792248416876479,-0.404058899824522,0.201907377737086
1580421600.48987,-0.927504386968796,-0.379156176089113,0.290775921263446
1580421600.49387,-1.06813153276875,-0.312748912794691,0.398687724116883
1580421600.49786,-1.17555504692149,-0.230228122377355,0.481208514534217
1580421600.50185,-1.21852445258259,-0.149660486762798,0.556893263141834
1580421600.50585,-1.22389562829023,-0.0676279850461583,0.745860990310522
1580421600.50984,-1.21022354467079,0.0285648889906156,1.04908827344167
1580421600.51383,-1.12574959945067,0.0896009765774011,1.17360189211871
1580421600.51782,-1.01051346608682,0.113038834210727,1.17604333562219
1580421600.52181,-0.939711604486153,0.106202792401007,0.909437705043107
1580421600.52581,-0.987075608453498,0.120851453421835,0.513923857480737
1580421600.5298,-1.10133516441596,0.204348821240558,-0.041260395208667
1580421600.5338,-1.10572976272221,0.305424582284274,-0.718028534370946
1580421600.53779,-0.998306248569467,0.327397573815517,-1.28102540627146
1580421600.54178,-0.884046692607004,0.31860837720302,-1.50466163118944
1580421600.54578,-0.837170977340353,0.328374151216906,-1.30446326390478
1580421600.54977,-0.870862897688259,0.44507515068284,-0.800549324788282
1580421600.55376,-0.973891813534753,0.756603341725796,-0.261478599221791
1580421600.55776,-1.14625772487983,1.09889372091249,0.132082093537804
1580421600.56175,-1.38356603341726,1.10768291752499,0.357671473258563
1580421600.56574,-1.62331578545815,0.669687953002214,0.479743648432134
1580421600.56974,-1.69802395666438,-0.0114747844663157,0.452399481193254
1580421600.57373,-1.54811932555123,-0.419684138246739,0.331792172121766
1580421600.57772,-1.37038223849851,-0.567635614557107,0.276127260242617
1580421600.58172,-1.42067597467002,-0.540291447318227,0.479743648432134
1580421600.58571,-1.6872816052491,-0.202395666437781,0.705333028152896
1580421600.5897,-1.83620965896086,0.135011825741969,0.618905928130008
1580421600.5937,-1.77175555046922,0.125734340428778,0.240970473792629
1580421600.59772,-1.56374456397345,-0.01196307316701,-0.167238879987792
1580421600.60171,-1.31032272831312,-0.157961394674601,-0.365972381170367
1580421600.6057,-1.09596398870832,-0.256595712214848,-0.36743724727245
1580421600.6097,-0.950942244602121,-0.287357900358588,-0.333745326924545
1580421600.61369,-0.83912413214313,-0.299565117875945,-0.367925535973145
1580421600.61768,-0.724864576180666,-0.351812008850233,-0.445563439383536
1580421600.62168,-0.613534752422369,-0.410406652933547,-0.478767071030747
1580421600.62567,-0.528572518501564,-0.420660715648127,-0.450934615091173
1580421600.62966,-0.483161669336996,-0.364995803768979,-0.427008468757153
1580421600.63366,-0.47681391622797,-0.261966887922485,-0.444586861982147
1580421600.63765,-0.495368886854353,-0.138429846646829,-0.506111238269627
1580421600.64165,-0.536385137712672,0.00366216525520713,-0.584237430380712
1580421600.64564,-0.600350957503624,0.153566796368352,-0.671641107804989
1580421600.64963,-0.681895170519569,0.291752498664835,-0.716563668268863
1580421600.65363,-0.79468986037995,0.419684138246737,-0.714610513466086
1580421600.65762,-0.939223315785458,0.564705882352943,-0.679453727016098
1580421600.66161,-1.11354238193332,0.751232166018159,-0.634042877851529
1580421600.66561,-1.29225604638743,0.974868390936141,-0.592538338292515
1580421600.6696,-1.4138399328603,1.16041809719997,-0.567147325856412
1580421600.67359,-1.45534447241932,1.18922713054093,-0.535408560311284
1580421600.67761,-1.42946517128252,1.04029907682918,-0.472907606622416
1580421600.6816,-1.39479667353323,0.78785381857023,-0.373785000381476
1580421600.6856,-1.39870298313878,0.53589684901198,-0.285404745555811
1580421600.68959,-1.41530479896239,0.357671473258563,-0.245853360799572
1580421600.69359,-1.41969939726864,0.262455176623178,-0.258060578316931
1580421600.69758,-1.39870298313878,0.222415503166246,-0.281498435950256
1580421600.70157,-1.32790112153811,0.222903791866941,-0.289799343862059
1580421600.70557,-1.24049744411383,0.252201113908598,-0.280521858548868
1580421600.70956,-1.16188296330205,0.271732661936369,-0.247318226901655
1580421600.71355,-1.08863965819791,0.259037155718318,-0.217044327458609
1580421600.71755,-1.03492790112154,0.212161440451666,-0.208743419546806
1580421600.72154,-0.979751277943084,0.141847867551689,-0.208255130846112
1580421600.72553,-0.942641336690318,0.0583504997329669,-0.211673151750972
1580421600.72953,-0.915297169451438,-0.0227054245822842,-0.222903791866941
1580421600.73352,-0.901136797131304,-0.0974135957885096,-0.223392080567635
1580421600.73751,-0.888441290913253,-0.168215457389181,-0.223880369268329
1580421600.74151,-0.904554818036164,-0.223880369268329,-0.217532616159303
1580421600.7455,-0.929457541771573,-0.256107423514154,-0.198489356832226
1580421600.7495,-0.956313420309758,-0.277592126344702,-0.169192034790569
1580421600.75349,-1.00807202258335,-0.274174105439842,-0.148683909361409
1580421600.75751,-1.03639276722362,-0.256107423514154,-0.12475776302739
1580421600.7615,-1.03590447852293,-0.234622720683603,-0.099855039291981
1580421600.76549,-0.964614328221561,-0.260013733119708,-0.0769054703593497
1580421600.76949,-0.875257495994507,-0.229251544975966,-0.0515144579232469
1580421600.77348,-1.0124666208896,0.174563210498206,-0.0549324788281069
1580421600.77747,-1.19948119325551,-0.0598153658350498,-0.112062256809338
1580421600.78147,-1.02906843671321,-0.162844281681544,-0.0212405584802013
1580421600.78546,-0.937758449683376,-0.131593804837109,-0.0192874036774242
1580421600.78945,-0.927504386968796,-0.105226214999618,-0.0358892195010299
1580421600.79345,-0.907972838941024,-0.0817883573662925,-0.0314946211947813
1580421600.79744,-0.870374608987564,-0.0437018387121384,-0.0329594872968642
1580421600.80144,-0.864026855878539,-0.0114747844663157,-0.0451667048142212
1580421600.80543,-0.836682688639659,0.0231937132829785,-0.0490730144197755
1580421600.80942,-0.824475471122302,0.0627450980392155,-0.0651865415426869
1580421600.81342,-0.814709697108416,0.0954604409857325,-0.0827649347676811
1580421600.81741,-0.821545738918136,0.12475776302739,-0.0993667505912867
1580421600.8214,-0.844983596551462,0.154543373769741,-0.10766765850309
1580421600.8254,-0.871839475089647,0.186770428015564,-0.114015411612115
1580421600.82939,-0.897718776226444,0.212649729152361,-0.109132524605172
1580421600.83338,-0.911390859845884,0.231204699778743,-0.106202792401007
1580421600.83737,-0.902601663233387,0.231204699778743,-0.103273060196841
1580421600.84136,-0.885999847409781,0.219974059662775,-0.0842298008697639
1580421600.84536,-0.870374608987564,0.198977645532921,-0.067139696345464
1580421600.84935,-0.85621423666743,0.174074921797512,-0.0520027466239412
1580421600.85334,-0.846448462653544,0.152101930266269,-0.0520027466239412
1580421600.85734,-0.843030441748684,0.133058670939192,-0.0573739223315783
1580421600.86133,-0.84254215304799,0.119386587319752,-0.0686045624475469
1580421600.86533,-0.84596017395285,0.110597390707255,-0.0759288929579611
1580421600.86932,-0.854749370565347,0.11108567940795,-0.0788586251621268
1580421600.87331,-0.865980010681316,0.119874876020447,-0.0915541313801782
1580421600.87731,-0.882093537804227,0.131593804837109,-0.0939955748836496
1580421600.8813,-0.903578240634776,0.151125352864881,-0.101808194094758
1580421600.88529,-0.929945830472267,0.164309147783626,-0.112062256809338
1580421600.88929,-0.952895399404898,0.182375829709315,-0.109132524605172
1580421600.89328,-0.977309834439613,0.187258716716258,-0.102784771496147
1580421600.89727,-0.997329671168078,0.186770428015564,-0.0783703364614325
1580421600.90127,-1.01441977569238,0.170168612191958,-0.0319829098954756
1580421600.90526,-1.02565041580835,0.136964980544747,0.0202639810788128
1580421600.90926,-1.02662699320974,0.0856946669718468,0.0764171816586554
1580421600.91325,-1.01588464179446,0.0207522697795071,0.125734340428778
1580421600.91724,-1.00318913557641,-0.0515144579232469,0.172610055695429
1580421600.92123,-0.988052185854887,-0.120851453421835,0.205325398641946
1580421600.92522,-0.972915236133364,-0.191165026321812,0.232181277180132
1580421600.92922,-0.952895399404898,-0.251712825207905,0.242923628595406
1580421600.93321,-0.940688181887541,-0.299565117875945,0.247318226901655
1580421600.9372,-0.935805294880598,-0.326909285114825,0.230716411078049
1580421600.9412,-0.950453955901427,-0.337651636530099,0.198001068131532
1580421600.94519,-0.972915236133364,-0.331303883421073,0.164797436484321
1580421600.94918,-0.998306248569467,-0.32300297550927,0.125246051728084
1580421600.95318,-1.02858014801251,-0.303959716182193,0.0886243991760125
1580421600.95717,-1.05934233615625,-0.267826352330816,0.0500495918211641
1580421600.96116,-1.09694056610971,-0.210696574349583,0.0192874036774242
1580421600.96516,-1.13746852826734,-0.129152361333638,-0.00219729915312428
1580421600.96915,-1.1750667582208,-0.0354009308003356,-0.0134279392690928
1580421600.97315,-1.20534065766384,0.0622568093385212,-0.0173342488746471
1580421600.97714,-1.22829022659647,0.153566796368352,-0.00610360875867855
1580421600.98113,-1.23854428931105,0.226810101472495,0.00561532005798426
1580421600.98513,-1.24147402151522,0.282475013351643,0.0163576714732585
1580421600.98912,-1.23903257801175,0.3288624399176,0.0251468680857556
1580421600.99311,-1.23952086671244,0.361089494163423,0.0319829098954756
1580421600.99713,-1.24196231021591,0.38355077439536,0.0505378805218584
1580421601.00112,-1.23952086671244,0.39038681620508,0.0720225833524069
1580421601.00512,-1.24586861982147,0.379644464789806,0.102296482795452
1580421601.00911,-1.25075150682841,0.363530937666894,0.121828030823224
1580421601.0131,-1.25319295033188,0.333257038223849,0.147219043259327
1580421601.0171,-1.25758754863813,0.300053406576637,0.176516365300984
1580421601.02109,-1.25368123903258,0.257572289616235,0.203860532539863
1580421601.02509,-1.25368123903258,0.215091172655832,0.216556038757915
1580421601.02908,-1.2517280842298,0.170656900892652,0.219974059662775
1580421601.03307,-1.24000915541314,0.119386587319752,0.220950637064163
1580421601.03707,-1.23659113450828,0.0710460059510183,0.209719996948195
1580421601.04106,-1.23659113450828,0.0295414663920042,0.199465934233615
1580421601.04505,-1.25416952773327,-0.000244144350347142,0.195071335927366
1580421601.04905,-1.28444342717632,-0.0148928053711757,0.214114595254443
1580421601.05304,-1.32204165712978,-0.0158693827725642,0.234622720683603
1580421601.05703,-1.3630579079881,-0.0046387426565957,0.250736247806515
1580421601.06103,-1.41530479896239,0.0168459601739528,0.259037155718318
1580421601.06502,-1.46071564812696,0.0368657969024184,0.271732661936369
1580421601.06901,-1.49489585717556,0.0588387884336612,0.282475013351643
1580421601.07301,-1.51345082780194,0.0710460059510183,0.303471427481497
1580421601.07699,-1.50612649729152,0.0817883573662925,0.317631799801632
1580421601.08099,-1.48757152666514,0.0695811398489354,0.341557946135651
1580421601.08498,-1.47682917524987,0.0339360646982527,0.353276874952314
1580421601.08898,-1.46999313344015,-0.0246585793850613,0.344975967040511
1580421601.09297,-1.45387960631724,-0.114015411612115,0.297611963073166
1580421601.09696,-1.42897688258183,-0.207278553444723,0.246341649500266
1580421601.10096,-1.39772640573739,-0.292729076066225,0.162844281681544
1580421601.10495,-1.3718471046006,-0.353276874952316,0.105714503700312
1580421601.10894,-1.34792095826658,-0.399664301518273,0.0651865415426869
1580421601.11294,-1.33473716334783,-0.433844510566873,0.0681162737468526
1580421601.11693,-1.33376058594644,-0.468024719615473,0.0866712443732354
1580421601.12092,-1.34743266956588,-0.507087815671015,0.112062256809338
1580421601.12492,-1.35378042267491,-0.543709468223087,0.0871595330739297
1580421601.12891,-1.36696421759365,-0.566170748455024,0.0231937132829785
1580421601.13291,-1.38942549782559,-0.55201037613489,-0.0559090562294955
1580421601.1369,-1.42214084077211,-0.486579690241856,-0.137453269245441
1580421601.14089,-1.45925078202487,-0.395269703212024,-0.217044327458609
1580421601.14488,-1.48464179446098,-0.294193942168308,-0.315190356298162
1580421601.14888,-1.49880216678111,-0.202883955138475,-0.445563439383536
1580421601.15287,-1.50026703288319,-0.112062256809338,-0.573495078965438
1580421601.15689,-1.49098954757,-0.0168459601739528,-0.689707789730678
1580421601.16088,-1.47731746395056,0.0905775539787896,-0.784924086366065
1580421601.16488,-1.46462195773251,0.213626306553749,-0.862561989776456
1580421601.16887,-1.47096971084154,0.362554360265506,-0.909437705043107
1580421601.17286,-1.50514991989014,0.520271610589763,-0.937758449683376
1580421601.17686,-1.55007248035401,0.649668116273748,-0.916762035553521
1580421601.18085,-1.57985809109636,0.731700617990388,-0.860608834973679
1580421601.18484,-1.57985809109636,0.745372701609828,-0.807873655298696
1580421601.18884,-1.55153734645609,0.697032120241094,-0.76392767223621
1580421601.19283,-1.50466163118944,0.599862668802931,-0.733653772793163
1580421601.19683,-1.45387960631724,0.470466163118942,-0.715587090867475
1580421601.20082,-1.41969939726864,0.338139925230792,-0.694102388036926
1580421601.20481,-1.4060273136492,0.219485770962081,-0.665781643396658
1580421601.20881,-1.42018768596933,0.12133974212253,-0.630136568245975
1580421601.2128,-1.44753185320821,0.0422369726100555,-0.587655451285572
1580421601.21679,-1.46706340123598,-0.0134279392690928,-0.537361715114061
1580421601.22079,-1.47292286564431,-0.048096437018387,-0.481696803234913
1580421601.22478,-1.46803997863737,-0.060303654535744,-0.427985046158541
1580421601.22877,-1.45778591592279,-0.048096437018387,-0.38110933089189
1580421601.23277,-1.44362554360266,-0.0266117341878385,-0.347905699244679
1580421601.23675,-1.43581292439155,0.00122072175173571,-0.321049820706493
1580421601.24075,-1.41872281986725,0.0231937132829785,-0.305424582284276
1580421601.24474,-1.40212100404364,0.0397955291065841,-0.302006561379416
1580421601.24874,-1.38161287861448,0.0437018387121384,-0.301518272678722
1580421601.25273,-1.36354619668879,0.0407721065079727,-0.289799343862059
1580421601.25672,-1.337666895552,0.0246585793850613,-0.276615548943314
1580421601.26072,-1.31618219272145,-0.00219729915312428,-0.268802929732205
1580421601.26471,-1.29518577859159,-0.0432135500114441,-0.260502021820402
1580421601.2687,-1.2771190966659,-0.0861829556725411,-0.259037155718319
1580421601.2727,-1.25514610513466,-0.136476691844052,-0.259525444419014
1580421601.27669,-1.23024338139925,-0.174563210498206,-0.265873197528039
1580421601.28068,-1.20338750286107,-0.212649729152361,-0.275150682841231
1580421601.28468,-1.16774242771038,-0.244388494697489,-0.286869611657893
1580421601.28867,-1.13356221866178,-0.265384908827345,-0.290775921263448
1580421601.29266,-1.09401083390555,-0.281986724650951,-0.290287632562753
1580421601.29666,-1.05250629434653,-0.289311055161365,-0.286381322957199
1580421601.30065,-1.01539635309377,-0.297611963073168,-0.273197528038454
1580421601.30464,-0.973403524834058,-0.300541695277333,-0.258548867017625
1580421601.30864,-0.935317006179904,-0.297611963073168,-0.245365072098878
1580421601.31263,-0.898207064927139,-0.295658808270391,-0.230716411078049
1580421601.31662,-0.86646829938201,-0.292240787365531,-0.217044327458609
1580421601.32061,-0.836194399938964,-0.287846189059282,-0.218997482261386
1580421601.32461,-0.806408789196613,-0.280033569848174,-0.219974059662775
1580421601.3286,-0.77759975585565,-0.269291218432899,-0.230716411078049
1580421601.33259,-0.759533073929962,-0.259037155718319,-0.239505607690546
1580421601.33659,-0.74927901121538,-0.23999389639124,-0.245365072098878
1580421601.34058,-0.736583504997329,-0.222903791866941,-0.251712825207905
1580421601.34457,-0.728282597085526,-0.206301976043335,-0.258548867017625
1580421601.34857,-0.712657358663309,-0.190676737621118,-0.262943465323874
1580421601.35256,-0.70142671854734,-0.175539787899595,-0.261966887922485
1580421601.35655,-0.693125810635538,-0.156496528572518,-0.263920042725262
1580421601.36055,-0.676035706111238,-0.136964980544747,-0.265873197528039
