Timestamp_seconds,Accel_X_g,Accel_Y_g,Accel_Z_g
1580421594.82778,-0.941176470588236,-0.199465934233615,0.308842603189134
1580421594.85978,-0.937758449683376,-0.206790264744029,0.285404745555809
1580421594.89178,-0.951430533302815,-0.180910963607232,0.292729076066223
1580421594.92378,-0.950453955901427,-0.203372243839169,0.28784618905928
1580421594.95578,-0.939223315785458,-0.184817273212786,0.274662394140535
1580421594.98778,-0.974380102235447,-0.180910963607232,0.263431754024566
1580421595.01978,-0.953871976806287,-0.180422674906538,0.309819180590523
1580421595.05178,-0.939223315785458,-0.188723582818341,0.313725490196077
1580421595.08378,-0.966567483024338,-0.174563210498206,0.312748912794689
1580421595.11577,-0.951430533302815,-0.186282139314869,0.317631799801632
1580421595.14777,-0.956801709010453,-0.149660486762798,0.292240787365529
1580421595.17977,-0.95191882200351,-0.129152361333638,0.218020904859998
1580421595.21177,-0.967055771725033,-0.203372243839169,0.240482185091935
1580421595.24377,-0.950453955901427,-0.208255130846112,0.278080415045395
1580421595.27577,-0.943617914091707,-0.175051499198901,0.307377737087052
1580421595.30777,-0.937270160982681,-0.179446097505149,0.283939879453726
1580421595.33977,-0.938735027084764,-0.172610055695429,0.302983138780803
1580421595.37177,-0.935317006179904,-0.187258716716258,0.326420996414129
1580421595.40377,-0.939223315785458,-0.185305561913481,0.294682230869
1580421595.43577,-0.94850080109865,-0.198489356832226,0.282963302052337
1580421595.46776,-0.95533684290837,-0.206790264744029,0.272709239337757
1580421595.49976,-0.947524223697261,-0.176028076600289,0.28101014724956
1580421595.53176,-0.939711604486153,-0.190188448920424,0.264408331425955
1580421595.56376,-0.933363851377127,-0.184817273212786,0.288334477759975
1580421595.59576,-0.960219729915313,-0.178469520103761,0.272220950637063
1580421595.62776,-0.957778286411841,-0.178469520103761,0.27417410543984
1580421595.65976,-0.961684596017395,-0.169680323491264,0.289311055161363
1580421595.69176,-0.960219729915313,-0.194094758525978,0.299565117875943
1580421595.72376,-0.956801709010453,-0.196536202029449,0.297123674372472
1580421595.75576,-0.960708018616007,-0.148683909361409,0.281986724650949
1580421595.78776,-0.957778286411841,-0.162355992980849,0.278080415045395
1580421595.81976,-0.955825131609064,-0.176028076600289,0.256595712214846
1580421595.85175,-0.956313420309758,-0.189211871519035,0.26733806363012
1580421595.88375,-0.953871976806287,-0.195071335927366,0.271244373235675
1580421595.91575,-0.946547646295873,-0.150637064164187,0.289311055161363
1580421595.94775,-0.931898985275044,-0.153566796368352,0.289799343862057
1580421595.97975,-0.958266575112535,-0.198977645532921,0.272220950637063
1580421596.01175,-0.950453955901427,-0.247806515602349,0.281498435950255
1580421596.04375,-0.974380102235447,-0.192141603723201,0.289799343862057
1580421596.07575,-0.956313420309758,-0.184328984512092,0.24682993820096
1580421596.10775,-0.942153047989624,-0.176516365300984,0.281498435950255
1580421596.13975,-0.956313420309758,-0.158449683375295,0.310795757991912
1580421596.17175,-0.947524223697261,-0.156008239871824,0.302494850080109
1580421596.20374,-0.959243152513924,-0.191653315022506,0.264408331425955
1580421596.23563,-0.978286411841001,-0.178957808804455,0.251712825207903
1580421596.26762,-0.969985503929198,-0.176028076600289,0.289311055161363
1580421596.29962,-0.955825131609064,-0.242923628595406,0.281986724650949
1580421596.33162,-0.953871976806287,-0.169680323491264,0.30151827267872
1580421596.36362,-0.965102616922255,-0.127199206530861,0.29126420996414
1580421596.39562,-0.936293583581293,-0.167727168688486,0.280521858548866
1580421596.42762,-0.923109788662547,-0.226321812771801,0.258548867017623
1580421596.45962,-0.92457465476463,-0.140383001449607,0.374761577782863
1580421596.49162,-0.910414282444496,-0.159426260776684,0.368902113374531
1580421596.52362,-0.915297169451438,-0.149660486762798,0.343999389639123
1580421596.55562,-0.940199893186847,-0.162844281681544,0.334721904325932
1580421596.58762,-0.942153047989624,-0.187747005416952,0.364995803768977
1580421596.61961,-0.937758449683376,-0.231692988479438,0.364995803768977
1580421596.65161,-0.912855725947967,-0.181887541008621,0.3459525444419
1580421596.68361,-0.956313420309758,-0.116945143816281,0.337651636530097
1580421596.71561,-1.0041657129778,-0.0388189517051956,0.219485770962081
1580421596.74761,-1.08522163729305,-0.01196307316701,0.176516365300984
1580421596.77961,-1.19752803845273,-0.00122072175173571,-0.00219729915312428
1580421596.81161,-1.25075150682841,-0.0534676127260241,-0.101319905394064
1580421596.84361,-1.36501106279088,-0.156984817273212,0.234622720683603
1580421596.87561,-1.32399481193256,-0.349858854047456,0.536873426413369
1580421596.90761,-1.15162890058747,-0.313237201495385,0.453376058594642
1580421596.93961,-0.724376287479972,-0.286869611657893,0.998794537270161
1580421596.9716,-0.263431754024568,0.266361486228732,0.177492942702372
1580421597.0036,-0.356206607156482,0.0686045624475469,0.0993667505912867
1580421597.0356,-0.43579766536965,-0.599374380102235,0.33228046082246
1580421597.0676,-0.614023041123064,-0.240970473792629,0.224368657969023
1580421597.0996,-0.925551232166018,0.237064164187075,0.426031891355763
1580421597.1316,-1.17701991302357,0.0598153658350498,0.436285954070343
1580421597.1636,-1.02565041580835,-0.266361486228734,0.26392004272526
1580421597.1956,-1.08424505989166,-0.151613641565575,0.324467841611352
1580421597.2276,-1.07643244068055,-0.154055085069047,0.347905699244677
1580421597.2596,-1.04078736552987,-0.313725490196079,0.433356221866177
1580421597.2916,-1.07350270847639,-0.139406424048218,0.464606698710611
1580421597.3236,-0.904554818036164,-0.116456855115587,0.650156404974442
1580421597.35559,-0.961684596017395,-0.658945601586938,-0.277103837644008
1580421597.38759,-1.03053330281529,0.314702067597466,0.686778057526514
1580421597.41959,-1.13746852826734,-0.483161669336996,0.953871976806287
1580421597.45159,-0.750743877317465,-0.601815823605707,0.514900434882126
1580421597.48359,-0.673105973907072,-0.494880598153658,0.705821316853591
1580421597.51553,-0.759044785229268,-0.134035248340581,0.500740062561992
1580421597.54753,-0.831311512932022,-0.513923857480735,0.377203021286334
1580421597.57953,-0.809826810101473,-0.606698710612649,0.460700389105057
1580421597.61153,-0.954360265506981,-0.060303654535744,0.281986724650949
1580421597.64353,-0.913832303349356,-0.198977645532921,0.286869611657892
1580421597.67553,-0.870374608987564,-0.281010147249562,0.209231708247501
1580421597.70753,-0.924086366063936,-0.332768749523156,0.505622949568934
1580421597.73952,-1.00758373388266,-0.0974135957885096,0.418219272144654
1580421597.77152,-1.01637293049516,-0.203860532539863,0.429449912260623
1580421597.80352,-1.01441977569238,-0.385992217898833,0.355230029755091
1580421597.83552,-1.17946135652705,-0.250247959105822,0.0568856336308841
1580421597.86752,-1.28249027237354,-0.229251544975966,-0.108155947203784
1580421597.89952,-1.45534447241932,-0.229251544975966,-0.106691081101701
1580421597.93151,-1.72341496910048,0.0905775539787896,-0.10083161669337
1580421597.96351,-1.88162050812543,0.0617685206378269,-0.183352407110704
1580421597.99551,-1.89578088044556,0.0876478217746239,-0.214602883955138
1580421598.02751,-1.59890135042344,-0.38452735179675,-0.024170290684367
1580421598.05951,-0.643320363164721,-0.144289311055161,0.696055542839705
1580421598.09151,-0.171145189593346,-0.23657587548638,0.992446784161135
1580421598.12351,-0.0734874494544897,0.198977645532921,0.647714961470971
1580421598.15551,0.350835431448843,-0.494880598153658,0.327397573815517
1580421598.1875,0.262943465323872,-1.0129549095903,0.439703974975203
1580421598.2195,-0.0607919432364383,-0.389898527504387,0.448004882887005
1580421598.2515,-0.433356221866179,0.165774013885709,0.516853589684903
1580421598.2835,-0.813733119707027,1.01100175478752,0.695078965438316
1580421598.3155,-1.22194247348745,0.40064087891966,0.464606698710611
1580421598.3475,-1.46022735942626,-1.46071564812696,0.629648279545282
1580421598.3795,-1.29372091248951,-0.395269703212024,0.690684367132068
1580421598.41149,-1.25270466163119,-0.964614328221561,0.558846417944611
1580421598.44349,-0.824475471122302,-0.51783016708629,1.07789730678263
1580421598.47549,-0.959731441214618,0.112062256809338,-0.198489356832226
1580421598.50749,-1.49733730067903,0.167727168688486,1.0383459220264
1580421598.53949,-1.12721446555276,-0.599862668802929,0.882581826504921
1580421598.57149,-0.266361486228734,-0.729259174486915,1.04029907682918
1580421598.60349,-0.580331120775158,-1.09987029831388,0.528084229800871
1580421598.63548,-0.865980010681316,-0.724864576180666,0.750743877317465
1580421598.66748,-0.913832303349356,-0.0231937132829785,0.540291447318229
1580421598.69948,-0.934340428778516,-0.126710917830167,0.367437247272449
1580421598.73148,-0.929945830472267,-0.241947051194018,0.247318226901655
1580421598.76348,-0.919691767757687,-0.220950637064163,0.238040741588463
1580421598.79544,-0.951430533302815,-0.278568703746091,0.282475013351643
1580421598.82744,-1.15309376668955,-0.0896009765774011,0.0988784618905925
1580421598.85944,-1.23952086671244,0.027588311589227,-0.158937972075989
1580421598.89144,-1.41872281986725,-0.0334477759975584,-0.179446097505149
1580421598.92343,-1.56325627527275,0.0300297550926985,-0.180422674906538
1580421598.95543,-1.81765468833448,-0.0104982070649271,-0.193118181124589
1580421598.98743,-1.99002059967956,-0.246341649500266,-0.291752498664836
1580421599.01943,-1.95681696803235,-0.166750591287098,-0.526619363698787
1580421599.05143,-1.36647592889296,-0.0549324788281069,0.466559853513388
1580421599.08343,-0.325444419012742,-0.136476691844052,1.36501106279087
1580421599.11543,-0.0715342946517126,0.0622568093385212,0.760997940032045
1580421599.14742,0.190676737621118,0.247806515602349,0.403570611123826
1580421599.17942,0.370855268177309,-1.01393148699168,0.503669794766157
1580421599.21142,0.23657587548638,-1.1833676661326,0.442633707179368
1580421599.24342,-0.0725108720531011,-0.304936293583582,0.128175783932249
1580421599.27542,-0.434821087968261,0.533455405508509,0.708751049057756
1580421599.30742,-1.19362172884718,1.15700007629511,0.666758220798048
1580421599.33942,-1.57741664759289,-0.567635614557107,0.971450370031281
1580421599.37142,-1.16530098420691,-0.973891813534753,0.817639429312582
1580421599.40341,-1.37477683680476,-0.437262531471733,0.896742198825056
1580421599.43541,-1.39772640573739,-1.11305409323262,0.888441290913253
1580421599.46741,-0.845471885252156,0.0563973449301898,0.371343556878003
1580421599.49941,-1.35182726787213,0.321538109407186,1.04567025253681
1580421599.53141,-0.902113374532693,-0.780041199359122,0.942641336690318
1580421599.56341,-0.327885862516213,-0.816174563210499,1.0471351186389
1580421599.59541,-0.754650186923019,-0.881605249103533,0.444098573281451
1580421599.6274,-0.796643015182728,-0.502204928664073,0.541268024719617
1580421599.6594,-0.882093537804227,-0.314213778896773,0.594491493095294
1580421599.6914,-0.922133211261158,-0.412848096437019,0.407965209430074
1580421599.7234,-0.940199893186847,-0.190188448920424,0.296147096971083
1580421599.7554,-0.953871976806287,-0.142824444953078,0.35962462806134
1580421599.7874,-0.875257495994507,-0.349858854047456,0.398199435416188
1580421599.8194,-0.991470206759747,-0.312748912794691,0.272220950637063
1580421599.85139,-1.24147402151522,-0.189700160219729,0.23657587548638
1580421599.88339,-1.34792095826658,-0.080811779964904,-0.00122072175173571
1580421599.91539,-1.508567940795,0.167727168688486,-0.232181277180132
1580421599.94739,-1.55983825436789,0.0456549935149155,-0.260990310521096
1580421599.97939,-1.60085450522621,-0.120363164721141,-0.215091172655832
1580421600.01139,-1.57155718318456,0.0871595330739297,-0.256107423514154
1580421600.04339,-1.59597161821927,-0.204348821240558,0.293705653467612
1580421600.07541,-1.04762340733959,-0.500251773861295,0.605722133211263
1580421600.10741,-0.310795757991913,-0.815686274509805,1.62966353856718
1580421600.13941,-0.123292896925307,-0.104737926298924,0.824475471122302
1580421600.1714,0.452887769893948,-0.341557946135653,0.718028534370948
1580421600.2034,0.307377737087052,-0.537850003814755,0.622323949034868
1580421600.2354,0.0197756923781185,0.158937972075989,0.430914778362705
1580421600.2674,-0.390386816205082,0.419684138246737,0.353276874952314
1580421600.2994,-0.635996032654306,-0.0944838635843439,0.783947508964676
1580421600.33139,-0.839612420843824,-0.099855039291981,0.208743419546806
1580421600.36339,-1.36745250629435,-0.161379415579461,1.0720378423743
1580421600.39539,-1.44313725490196,-0.0915541313801782,0.459235523002974
1580421600.42739,-1.49196612497139,-0.691660944533455,0.853772793163959
1580421600.45939,-1.17604333562219,-0.945571068894484,0.754161898222325
1580421600.49138,-1.05592431525139,-0.437750820172427,0.687266346227208
1580421600.52338,-1.43727779049363,0.467536430914777,-0.122316319523918
1580421600.55538,-0.99293507286183,-0.0456549935149155,0.913344014648661
1580421600.58738,-0.80836194399939,-0.579354543373769,0.88014038300145
1580421600.61938,-0.242435339894712,-0.950453955901427,1.02662699320974
1580421600.65137,-0.651132982375829,-0.915297169451438,0.888929579613947
1580421600.68337,-0.967544060425727,-0.434332799267567,0.581795986877243
1580421600.71537,-0.820569161516747,-0.189211871519035,0.611581597619594
1580421600.74737,-0.893324177920196,-0.345952544441902,0.509040970473794
1580421600.77937,-0.928480964370184,-0.067139696345464,0.344487678339817
1580421600.81137,-0.906996261539636,-0.139894712748912,0.311284046692606
1580421600.84336,-0.930434119172961,-0.315190356298162,0.248294804303043
1580421600.87536,-1.02809185931182,-0.171633478294041,0.194094758525978
1580421600.90736,-1.12135500114443,-0.0744640268558783,0.0866712443732354
1580421600.93936,-1.29127946898604,-0.000244144350347142,0.0495613031204698
1580421600.97136,-1.31325246051728,-0.070557717250324,-0.0373540856031127
1580421601.00336,-1.38600747692073,-0.171145189593346,-0.0437018387121384
1580421601.03535,-1.67214465552758,-0.278080415045396,-0.0104982070649271
1580421601.06735,-1.65505455100328,-0.201419089036392,-0.0900892652780954
1580421601.09935,-1.51589227130541,-0.373296711680782,0.206790264744029
1580421601.13135,-0.968032349126421,-0.156008239871824,0.619394216830703
1580421601.16335,-0.187258716716258,-0.0554207675288012,1.08619821469444
1580421601.19534,-0.129640650034332,-0.453864347295339,1.37184710460059
1580421601.22734,0.000244144350347142,-0.0681162737468526,0.819104295414665
1580421601.25934,0.324956130312046,0.127687495231555,0.281498435950255
1580421601.29134,0.157473105973907,-0.281010147249562,0.613534752422371
1580421601.32334,0.0163576714732585,-0.23315785458152,0.725841153582056
1580421601.35513,-0.00415045395590141,0.0974135957885096,0.381109330891888
1580421601.38713,-0.427496757457847,0.0153810940718699,0.50171663996338
1580421601.41913,-0.98951705195697,-0.0881361104753182,0.588143739986268
1580421601.45113,-1.27858396276799,-0.171145189593346,0.611581597619594
1580421601.48312,-1.44753185320821,-0.776623178454262,0.491950865949491
1580421601.51512,-1.32497138933394,-0.144777599755855,0.695567254139011
1580421601.54712,-1.30153353170062,-0.426520180056459,0.163820859082932
1580421601.57912,-1.20436408026245,-0.243900205996795,0.578377965972383
1580421601.61112,-1.2859082932784,0.0441901274128327,-1.18873884184024
1580421601.64312,-1.32643625543603,0.109132524605172,1.10035858701457
1580421601.67511,-1.34450293736172,-0.370366979476616,1.05445944914931
1580421601.70711,-0.552986953536278,-0.324467841611353,0.711680781261922
1580421601.73911,-0.43579766536965,-0.877210650797284,0.30151827267872
