Timestamp_seconds,Accel_X_g,Accel_Y_g,Accel_Z_g
1580421620.23153,-0.985122453650721,0.0197756923781185,-0.231204699778743
1580421620.23552,-0.985122453650721,0.0173342488746471,-0.234622720683603
1580421620.23952,-0.984634164950027,0.0163576714732585,-0.234622720683603
1580421620.24351,-0.983657587548638,0.0173342488746471,-0.23315785458152
1580421620.2475,-0.981704432745861,0.0158693827725642,-0.231204699778743
1580421620.25149,-0.983169298847944,0.0144045166704814,-0.228763256275272
1580421620.25548,-0.984634164950027,0.0144045166704814,-0.226810101472495
1580421620.25948,-0.987563897154192,0.0148928053711757,-0.224368657969023
1580421620.26347,-0.987075608453498,0.0163576714732585,-0.229251544975966
1580421620.26746,-0.985122453650721,0.0158693827725642,-0.237064164187075
1580421620.27146,-0.986587319752804,0.0158693827725642,-0.2434119172961
1580421620.27545,-0.984145876249332,0.0163576714732585,-0.247318226901655
1580421620.27944,-0.984634164950027,0.0212405584802013,-0.248783093003738
1580421620.28344,-0.984634164950027,0.0246585793850613,-0.248783093003738
1580421620.28743,-0.985610742351415,0.0319829098954756,-0.253177691309988
1580421620.29143,-0.985122453650721,0.0363775082017241,-0.255619134813459
1580421620.29542,-0.981216144045167,0.0402838178072784,-0.257572289616236
1580421620.29941,-0.977798123140307,0.037842374303807,-0.258060578316931
1580421620.30341,-0.977309834439613,0.0417486839093613,-0.262943465323874
1580421620.3074,-0.973403524834058,0.0393072404058898,-0.257572289616236
1580421620.31139,-0.973403524834058,0.0363775082017241,-0.254154268711376
1580421620.31539,-0.973891813534753,0.0373540856031127,-0.248783093003738
1580421620.31938,-0.977798123140307,0.0305180437933927,-0.237552452887769
1580421620.32337,-0.976821545738918,0.0290531776913099,-0.235599298084992
1580421620.32739,-0.974868390936141,0.0271000228885327,-0.230716411078049
1580421620.33139,-0.974868390936141,0.0261234454871442,-0.234134431982909
1580421620.33538,-0.971450370031281,0.0290531776913099,-0.232669565880826
1580421620.33937,-0.968032349126421,0.0285648889906156,-0.237552452887769
1580421620.34337,-0.968032349126421,0.0285648889906156,-0.244876783398183
1580421620.34736,-0.96900892652781,0.0295414663920042,-0.257084000915542
1580421620.35135,-0.968520637827115,0.0280766002899213,-0.259525444419014
1580421620.35535,-0.969985503929198,0.0349126420996413,-0.267826352330816
1580421620.35934,-0.970473792629893,0.0368657969024184,-0.268802929732205
1580421620.36333,-0.970473792629893,0.0397955291065841,-0.273197528038454
1580421620.36733,-0.970473792629893,0.0402838178072784,-0.271244373235676
1580421620.37132,-0.972915236133364,0.0407721065079727,-0.273685816739148
1580421620.37531,-0.971938658731975,0.0476081483176927,-0.277103837644008
1580421620.37931,-0.971450370031281,0.0461432822156098,-0.278080415045396
1580421620.3833,-0.967544060425727,0.0407721065079727,-0.281010147249562
1580421620.3873,-0.966567483024338,0.0397955291065841,-0.280521858548868
1580421620.39129,-0.965102616922255,0.0334477759975584,-0.282475013351645
1580421620.39528,-0.96217288471809,0.0261234454871442,-0.276615548943314
1580421620.39927,-0.964126039520867,0.0207522697795071,-0.274662394140536
1580421620.40327,-0.967055771725033,0.0173342488746471,-0.261966887922485
1580421620.40726,-0.966079194323644,0.0148928053711757,-0.260990310521096
1580421620.41125,-0.965102616922255,0.00805676356145568,-0.253665980010682
1580421620.41524,-0.96217288471809,0.0075684748607614,-0.245853360799572
1580421620.41924,-0.960219729915313,0.00952162966353853,-0.250736247806516
1580421620.42323,-0.962661173418784,0.00854505226214997,-0.254154268711376
1580421620.42722,-0.960708018616007,0.00659189745937283,-0.261966887922485
1580421620.43122,-0.960708018616007,0.0046387426565957,-0.270267795834288
1580421620.43521,-0.96217288471809,0.00659189745937283,-0.267338063630122
1580421620.4392,-0.963149462119478,0.00317387655451284,-0.275150682841231
1580421620.4432,-0.96217288471809,0.00219729915312428,-0.275150682841231
1580421620.44719,-0.960219729915313,0.000244144350347142,-0.277103837644008
1580421620.45118,-0.963149462119478,0.00268558785381856,-0.277103837644008
1580421620.45518,-0.96217288471809,0.00610360875867855,-0.271732661936371
1580421620.45917,-0.965102616922255,0.00708018616006711,-0.266361486228734
1580421620.46317,-0.967544060425727,0.00854505226214997,-0.264896620126651
1580421620.46716,-0.967544060425727,0.0100099183642328,-0.262455176623179
1580421620.47115,-0.962661173418784,0.0124513618677042,-0.256595712214848
1580421620.47515,-0.965102616922255,0.0124513618677042,-0.252201113908599
1580421620.47914,-0.961684596017395,0.0129396505683985,-0.254154268711376
1580421620.48313,-0.963637750820173,0.0144045166704814,-0.257084000915542
1580421620.48712,-0.965102616922255,0.0144045166704814,-0.256107423514154
1580421620.49111,-0.963637750820173,0.0187991149767299,-0.258060578316931
1580421620.49511,-0.964126039520867,0.0197756923781185,-0.257572289616236
1580421620.4991,-0.963149462119478,0.0222171358815899,-0.258060578316931
1580421620.50309,-0.962661173418784,0.0222171358815899,-0.260013733119708
1580421620.50709,-0.959731441214618,0.0222171358815899,-0.259037155718319
1580421620.51108,-0.962661173418784,0.0256351567864499,-0.259525444419014
1580421620.51508,-0.966079194323644,0.0256351567864499,-0.261478599221791
1580421620.51907,-0.96217288471809,0.027588311589227,-0.256595712214848
1580421620.52306,-0.965102616922255,0.0319829098954756,-0.268314641031511
1580421620.52706,-0.967055771725033,0.0290531776913099,-0.270267795834288
1580421620.53105,-0.968032349126421,0.0280766002899213,-0.275150682841231
1580421620.53504,-0.968032349126421,0.0266117341878385,-0.277592126344702
1580421620.53904,-0.967544060425727,0.0261234454871442,-0.272709239337759
1580421620.54303,-0.970962081330587,0.024170290684367,-0.270267795834288
1580421620.54702,-0.968032349126421,0.0246585793850613,-0.267826352330816
1580421620.55102,-0.97242694743267,0.024170290684367,-0.262455176623179
1580421620.55501,-0.970473792629893,0.0261234454871442,-0.263920042725262
1580421620.559,-0.970473792629893,0.0256351567864499,-0.258060578316931
1580421620.563,-0.964614328221561,0.0266117341878385,-0.256107423514154
1580421620.56702,-0.966567483024338,0.0290531776913099,-0.253665980010682
1580421620.57101,-0.96900892652781,0.0251468680857556,-0.259037155718319
1580421620.575,-0.966079194323644,0.0217288471808956,-0.255619134813459
1580421620.579,-0.967544060425727,0.024170290684367,-0.262455176623179
1580421620.58299,-0.967055771725033,0.0197756923781185,-0.259037155718319
1580421620.58698,-0.968520637827115,0.0236820019836728,-0.264408331425956
1580421620.59098,-0.966567483024338,0.0222171358815899,-0.260502021820402
1580421620.59497,-0.969985503929198,0.024170290684367,-0.264408331425956
1580421620.59896,-0.971450370031281,0.0231937132829785,-0.264408331425956
1580421620.60296,-0.977309834439613,0.0231937132829785,-0.255619134813459
1580421620.60695,-0.978774700541695,0.0256351567864499,-0.260990310521096
1580421620.61094,-0.976333257038224,0.0212405584802013,-0.258548867017625
1580421620.61494,-0.978774700541695,0.0222171358815899,-0.255619134813459
1580421620.61893,-0.976333257038224,0.0212405584802013,-0.253177691309988
1580421620.62293,-0.972915236133364,0.0168459601739528,-0.250247959105822
1580421620.62692,-0.970473792629893,0.0158693827725642,-0.254154268711376
1580421620.63091,-0.972915236133364,0.0153810940718699,-0.244388494697489
1580421620.63491,-0.970962081330587,0.0124513618677042,-0.23999389639124
1580421620.6389,-0.971450370031281,0.0104982070649271,-0.239505607690546
1580421620.64289,-0.96900892652781,0.0109864957656214,-0.232669565880826
1580421620.64688,-0.970962081330587,0.0075684748607614,-0.233646143282215
1580421620.65087,-0.971450370031281,0.00903334096284425,-0.235599298084992
1580421620.65487,-0.969985503929198,0.0124513618677042,-0.245365072098878
1580421620.65886,-0.967544060425727,0.0134279392690928,-0.249759670405126
1580421620.66285,-0.968032349126421,0.0134279392690928,-0.254154268711376
1580421620.66685,-0.970962081330587,0.0148928053711757,-0.259037155718319
1580421620.67084,-0.969497215228504,0.0163576714732585,-0.265384908827345
1580421620.67483,-0.973891813534753,0.0178225375753414,-0.269291218432899
1580421620.67883,-0.978774700541695,0.0222171358815899,-0.264896620126651
1580421620.68282,-0.976821545738918,0.0222171358815899,-0.264408331425956
1580421620.68682,-0.978286411841001,0.0231937132829785,-0.263431754024568
1580421620.69081,-0.975356679636835,0.024170290684367,-0.259525444419014
1580421620.6948,-0.973891813534753,0.024170290684367,-0.261966887922485
1580421620.6988,-0.972915236133364,0.0227054245822842,-0.255130846112765
1580421620.70279,-0.972915236133364,0.0192874036774242,-0.253177691309988
1580421620.70678,-0.970473792629893,0.0197756923781185,-0.245853360799572
1580421620.71078,-0.969985503929198,0.0183108262760356,-0.245853360799572
1580421620.71477,-0.96900892652781,0.0158693827725642,-0.24682993820096
1580421620.71876,-0.969985503929198,0.0148928053711757,-0.245853360799572
1580421620.72276,-0.968032349126421,0.0139162279697871,-0.247318226901655
1580421620.72674,-0.967544060425727,0.0129396505683985,-0.250247959105822
1580421620.73074,-0.967055771725033,0.0134279392690928,-0.253665980010682
1580421620.73473,-0.964614328221561,0.0134279392690928,-0.256107423514154
1580421620.73873,-0.96559090562295,0.0144045166704814,-0.258548867017625
1580421620.74272,-0.964126039520867,0.0129396505683985,-0.261966887922485
1580421620.74671,-0.96559090562295,0.0178225375753414,-0.263431754024568
1580421620.75071,-0.967544060425727,0.0173342488746471,-0.264896620126651
1580421620.7547,-0.971938658731975,0.0222171358815899,-0.262943465323874
1580421620.75869,-0.971938658731975,0.0217288471808956,-0.258060578316931
1580421620.76269,-0.971938658731975,0.0236820019836728,-0.268802929732205
1580421620.76668,-0.971450370031281,0.0236820019836728,-0.265384908827345
1580421620.77067,-0.969497215228504,0.0217288471808956,-0.266361486228734
1580421620.77467,-0.969985503929198,0.0231937132829785,-0.261966887922485
1580421620.77866,-0.963149462119478,0.0227054245822842,-0.261966887922485
1580421620.78265,-0.96217288471809,0.0144045166704814,-0.261478599221791
1580421620.78665,-0.963149462119478,0.0153810940718699,-0.259525444419014
1580421620.79064,-0.963637750820173,0.0139162279697871,-0.258060578316931
1580421620.79463,-0.963149462119478,0.0114747844663157,-0.253665980010682
1580421620.79863,-0.960219729915313,0.0100099183642328,-0.254642557412071
1580421620.80262,-0.962661173418784,0.0114747844663157,-0.250247959105822
1580421620.80664,-0.963149462119478,0.0100099183642328,-0.247806515602349
1580421620.81063,-0.965102616922255,0.00903334096284425,-0.254642557412071
1580421620.81463,-0.96217288471809,0.0114747844663157,-0.253665980010682
1580421620.81862,-0.964614328221561,0.0129396505683985,-0.254642557412071
1580421620.82261,-0.963637750820173,0.0114747844663157,-0.259525444419014
1580421620.82661,-0.965102616922255,0.0148928053711757,-0.264408331425956
1580421620.8306,-0.968032349126421,0.0153810940718699,-0.270756084534982
1580421620.83459,-0.96900892652781,0.0187991149767299,-0.269291218432899
1580421620.83859,-0.971450370031281,0.0192874036774242,-0.268314641031511
1580421620.84258,-0.971938658731975,0.0227054245822842,-0.264408331425956
1580421620.84658,-0.974380102235447,0.0231937132829785,-0.262943465323874
1580421620.85057,-0.976821545738918,0.0295414663920042,-0.263431754024568
1580421620.85456,-0.974380102235447,0.0295414663920042,-0.260502021820402
1580421620.85856,-0.976821545738918,0.0305180437933927,-0.254642557412071
1580421620.86255,-0.976333257038224,0.0300297550926985,-0.253177691309988
1580421620.86654,-0.976821545738918,0.0266117341878385,-0.252689402609294
1580421620.87054,-0.975356679636835,0.0266117341878385,-0.249271381704432
1580421620.87453,-0.97242694743267,0.0246585793850613,-0.245365072098878
1580421620.87852,-0.973403524834058,0.0246585793850613,-0.23999389639124
1580421620.88252,-0.970962081330587,0.0212405584802013,-0.236087586785686
1580421620.8865,-0.973891813534753,0.0139162279697871,-0.239505607690546
1580421620.8905,-0.971938658731975,0.0134279392690928,-0.239505607690546
1580421620.89449,-0.97242694743267,0.0114747844663157,-0.233646143282215
1580421620.89848,-0.973403524834058,0.00903334096284425,-0.23657587548638
1580421620.90248,-0.971450370031281,0.0075684748607614,-0.239017318989852
1580421620.90647,-0.971938658731975,0.0075684748607614,-0.245853360799572
1580421620.91047,-0.971938658731975,0.00805676356145568,-0.248294804303043
1580421620.91446,-0.969985503929198,0.00708018616006711,-0.24682993820096
1580421620.91845,-0.972915236133364,0.0100099183642328,-0.247318226901655
1580421620.92245,-0.97584496833753,0.01196307316701,-0.248783093003738
1580421620.92644,-0.97926298924239,0.0144045166704814,-0.248294804303043
1580421620.93043,-0.977309834439613,0.01196307316701,-0.252689402609294
1580421620.93443,-0.974868390936141,0.0144045166704814,-0.252201113908599
1580421620.93842,-0.971450370031281,0.0153810940718699,-0.251712825207905
1580421620.94241,-0.970962081330587,0.0139162279697871,-0.251712825207905
1580421620.94641,-0.974868390936141,0.0129396505683985,-0.241947051194018
1580421620.9504,-0.972915236133364,0.0163576714732585,-0.240482185091935
1580421620.95439,-0.971938658731975,0.0178225375753414,-0.239505607690546
1580421620.95839,-0.970473792629893,0.0187991149767299,-0.234622720683603
1580421620.96238,-0.97242694743267,0.0217288471808956,-0.231692988479438
1580421620.9664,-0.970473792629893,0.0207522697795071,-0.231692988479438
1580421620.97039,-0.971938658731975,0.0183108262760356,-0.234134431982909
1580421620.97439,-0.973403524834058,0.0168459601739528,-0.237064164187075
1580421620.97838,-0.971450370031281,0.0187991149767299,-0.236087586785686
1580421620.98237,-0.97242694743267,0.01196307316701,-0.238040741588463
1580421620.98637,-0.973891813534753,0.0144045166704814,-0.238040741588463
1580421620.99036,-0.968520637827115,0.0178225375753414,-0.23657587548638
1580421620.99435,-0.968032349126421,0.0168459601739528,-0.237064164187075
1580421620.99835,-0.968520637827115,0.0178225375753414,-0.241458762493323
1580421621.00234,-0.969985503929198,0.0202639810788128,-0.243900205996795
1580421621.00634,-0.970473792629893,0.0222171358815899,-0.249271381704432
1580421621.01033,-0.966567483024338,0.0197756923781185,-0.252201113908599
1580421621.01432,-0.966567483024338,0.0207522697795071,-0.247806515602349
1580421621.01831,-0.96559090562295,0.0178225375753414,-0.255619134813459
1580421621.02231,-0.964614328221561,0.0192874036774242,-0.250736247806516
1580421621.0263,-0.96559090562295,0.0178225375753414,-0.252689402609294
1580421621.0303,-0.969497215228504,0.0163576714732585,-0.24682993820096
1580421621.03429,-0.970962081330587,0.0163576714732585,-0.253665980010682
1580421621.03828,-0.970962081330587,0.0178225375753414,-0.248783093003738
1580421621.04228,-0.969497215228504,0.0202639810788128,-0.250247959105822
1580421621.04629,-0.972915236133364,0.0202639810788128,-0.2434119172961
1580421621.05029,-0.970962081330587,0.0202639810788128,-0.250247959105822
1580421621.05428,-0.975356679636835,0.0217288471808956,-0.244876783398183
1580421621.05827,-0.977798123140307,0.0231937132829785,-0.245853360799572
1580421621.06227,-0.978774700541695,0.024170290684367,-0.2434119172961
1580421621.06626,-0.978286411841001,0.0217288471808956,-0.2434119172961
1580421621.07026,-0.969985503929198,0.0236820019836728,-0.243900205996795
1580421621.07425,-0.970473792629893,0.0202639810788128,-0.240482185091935
1580421621.07824,-0.966567483024338,0.0153810940718699,-0.240970473792629
1580421621.08224,-0.968520637827115,0.0144045166704814,-0.239505607690546
1580421621.08623,-0.970962081330587,0.0114747844663157,-0.240970473792629
1580421621.09022,-0.967544060425727,0.0148928053711757,-0.2434119172961
1580421621.09422,-0.96559090562295,0.0144045166704814,-0.243900205996795
1580421621.09821,-0.96900892652781,0.0168459601739528,-0.244876783398183
1580421621.1022,-0.970473792629893,0.0178225375753414,-0.23999389639124
1580421621.1062,-0.970962081330587,0.0197756923781185,-0.244876783398183
1580421621.11019,-0.971938658731975,0.0231937132829785,-0.243900205996795
1580421621.11418,-0.974380102235447,0.0227054245822842,-0.241458762493323
1580421621.11818,-0.967544060425727,0.0227054245822842,-0.242923628595406
1580421621.12217,-0.970962081330587,0.0236820019836728,-0.245365072098878
1580421621.12616,-0.971938658731975,0.0261234454871442,-0.245365072098878
1580421621.13015,-0.969497215228504,0.024170290684367,-0.242435339894712
1580421621.13415,-0.971938658731975,0.0236820019836728,-0.240482185091935
1580421621.13814,-0.969497215228504,0.0280766002899213,-0.2434119172961
1580421621.14213,-0.969497215228504,0.0266117341878385,-0.245365072098878
1580421621.14613,-0.970962081330587,0.0266117341878385,-0.252201113908599
1580421621.15012,-0.969985503929198,0.0280766002899213,-0.254154268711376
1580421621.15411,-0.969985503929198,0.031006332494087,-0.259525444419014
1580421621.15811,-0.969497215228504,0.0295414663920042,-0.258548867017625
1580421621.1621,-0.970962081330587,0.0319829098954756,-0.261478599221791
1580421621.16609,-0.974868390936141,0.034424353398947,-0.260502021820402
1580421621.17009,-0.97584496833753,0.0373540856031127,-0.259037155718319
1580421621.17408,-0.978774700541695,0.0373540856031127,-0.258060578316931
1580421621.17807,-0.977309834439613,0.0324711985961699,-0.251712825207905
1580421621.18207,-0.977798123140307,0.0300297550926985,-0.255619134813459
1580421621.18606,-0.976821545738918,0.0295414663920042,-0.252201113908599
1580421621.19005,-0.97242694743267,0.0271000228885327,-0.246341649500266
1580421621.19405,-0.97242694743267,0.024170290684367,-0.239017318989852
1580421621.19804,-0.975356679636835,0.0202639810788128,-0.239017318989852
1580421621.20204,-0.977309834439613,0.0163576714732585,-0.229251544975966
1580421621.20605,-0.977309834439613,0.0144045166704814,-0.223880369268329
1580421621.21005,-0.974868390936141,0.0144045166704814,-0.223880369268329
1580421621.21404,-0.975356679636835,0.01196307316701,-0.225345235370412
1580421621.21803,-0.96900892652781,0.0109864957656214,-0.223392080567635
1580421621.22203,-0.96900892652781,0.0104982070649271,-0.230228122377355
1580421621.22602,-0.969497215228504,0.00610360875867855,-0.234622720683603
1580421621.23002,-0.96900892652781,0.00659189745937283,-0.238529030289158
1580421621.23401,-0.966567483024338,0.00903334096284425,-0.238040741588463
1580421621.238,-0.970473792629893,0.00561532005798426,-0.241947051194018
1580421621.242,-0.973891813534753,0.00610360875867855,-0.2434119172961
1580421621.24599,-0.978774700541695,0.00561532005798426,-0.23999389639124
1580421621.24998,-0.978774700541695,0.00317387655451284,-0.240970473792629
1580421621.25398,-0.981704432745861,0.000244144350347142,-0.23999389639124
1580421621.25797,-0.980239566643778,0.00268558785381856,-0.230228122377355
1580421621.26196,-0.982192721446555,0.0046387426565957,-0.232181277180132
1580421621.26596,-0.988052185854887,0.00415045395590141,-0.228274967574578
1580421621.26995,-0.986587319752804,0.00659189745937283,-0.222903791866941
1580421621.27394,-0.990005340657664,0.0114747844663157,-0.226321812771801
1580421621.27794,-0.988540474555581,0.0134279392690928,-0.228763256275272
1580421621.28193,-0.990981918059052,0.0217288471808956,-0.226810101472495
1580421621.28592,-0.991470206759747,0.0285648889906156,-0.232181277180132
1580421621.28991,-0.990493629358358,0.0358892195010299,-0.23315785458152
1580421621.29391,-0.988540474555581,0.0422369726100555,-0.233646143282215
1580421621.2979,-0.988540474555581,0.0441901274128327,-0.235599298084992
1580421621.30189,-0.98609903105211,0.0461432822156098,-0.235599298084992
1580421621.30589,-0.982192721446555,0.0500495918211641,-0.235111009384298
1580421621.30988,-0.979751277943084,0.0510261692225527,-0.236087586785686
1580421621.31387,-0.984145876249332,0.0515144579232469,-0.239017318989852
1580421621.31787,-0.984145876249332,0.0456549935149155,-0.238040741588463
1580421621.32186,-0.986587319752804,0.0505378805218584,-0.242923628595406
1580421621.32585,-0.989028763256275,0.0490730144197755,-0.245853360799572
1580421621.32985,-0.98951705195697,0.0490730144197755,-0.239017318989852
1580421621.33384,-0.987075608453498,0.0515144579232469,-0.239505607690546
1580421621.33783,-0.988052185854887,0.0520027466239412,-0.232669565880826
1580421621.34183,-0.987563897154192,0.0524910353246355,-0.233646143282215
1580421621.34582,-0.987563897154192,0.0554207675288012,-0.233646143282215
1580421621.34981,-0.98268101014725,0.0544441901274126,-0.23315785458152
1580421621.35381,-0.977798123140307,0.0573739223315783,-0.239017318989852
1580421621.3578,-0.976333257038224,0.0549324788281069,-0.23999389639124
1580421621.3618,-0.973891813534753,0.0534676127260241,-0.237064164187075
1580421621.36581,-0.975356679636835,0.0510261692225527,-0.239505607690546
1580421621.36981,-0.968520637827115,0.0466315709163041,-0.241458762493323
1580421621.3738,-0.96900892652781,0.044678416113527,-0.237552452887769
1580421621.37779,-0.96900892652781,0.0417486839093613,-0.241947051194018
1580421621.38179,-0.96900892652781,0.0358892195010299,-0.239017318989852
1580421621.38578,-0.969497215228504,0.0339360646982527,-0.241458762493323
1580421621.38978,-0.971938658731975,0.0305180437933927,-0.2434119172961
1580421621.39377,-0.973891813534753,0.024170290684367,-0.245365072098878
1580421621.39776,-0.97584496833753,0.0236820019836728,-0.249759670405126
1580421621.40175,-0.975356679636835,0.0202639810788128,-0.249271381704432
1580421621.40575,-0.976821545738918,0.0144045166704814,-0.250247959105822
1580421621.40974,-0.97584496833753,0.0100099183642328,-0.256107423514154
1580421621.41374,-0.97584496833753,0.0109864957656214,-0.256107423514154
1580421621.41773,-0.975356679636835,0.00366216525520713,-0.254642557412071
1580421621.42172,-0.978286411841001,0.00854505226214997,-0.251712825207905
1580421621.42572,-0.974380102235447,0.00903334096284425,-0.251224536507211
1580421621.42971,-0.975356679636835,0.00903334096284425,-0.257084000915542
1580421621.4337,-0.973403524834058,0.0124513618677042,-0.258060578316931
1580421621.4377,-0.976333257038224,0.0163576714732585,-0.258060578316931
1580421621.44169,-0.97584496833753,0.0207522697795071,-0.264896620126651
1580421621.44568,-0.97242694743267,0.0251468680857556,-0.268314641031511
1580421621.44967,-0.974868390936141,0.0236820019836728,-0.261966887922485
1580421621.45367,-0.969985503929198,0.0261234454871442,-0.257572289616236
1580421621.45766,-0.970962081330587,0.0271000228885327,-0.251712825207905
1580421621.46165,-0.964614328221561,0.0314946211947813,-0.251224536507211
1580421621.46565,-0.960219729915313,0.0305180437933927,-0.251224536507211
1580421621.46964,-0.960708018616007,0.027588311589227,-0.248294804303043
1580421621.47363,-0.959243152513924,0.0246585793850613,-0.247806515602349
1580421621.47763,-0.956801709010453,0.0246585793850613,-0.24682993820096
1580421621.48162,-0.95533684290837,0.0251468680857556,-0.24682993820096
1580421621.48561,-0.949965667200733,0.0197756923781185,-0.251224536507211
1580421621.48961,-0.945571068894484,0.0163576714732585,-0.255130846112765
1580421621.4936,-0.943617914091707,0.0104982070649271,-0.254642557412071
1580421621.49759,-0.941176470588236,0.00708018616006711,-0.263920042725262
1580421621.50159,-0.940199893186847,0.00952162966353853,-0.263920042725262
1580421621.50558,-0.94166475928893,0.00708018616006711,-0.269291218432899
1580421621.50957,-0.94508278019379,0.00317387655451284,-0.269291218432899
1580421621.51357,-0.948012512397955,0.00317387655451284,-0.279056992446785
1580421621.51756,-0.949965667200733,0.00268558785381856,-0.281498435950256
1580421621.52155,-0.953383688105593,0.00170901045242999,-0.286381322957199
1580421621.52554,-0.957778286411841,0.00512703135728998,-0.289311055161365
1580421621.52954,-0.962661173418784,0.00903334096284425,-0.285893034256505
1580421621.53353,-0.963149462119478,0.0134279392690928,-0.290775921263448
1580421621.53752,-0.967544060425727,0.0192874036774242,-0.284428168154422
1580421621.54152,-0.970473792629893,0.0231937132829785,-0.283939879453728
1580421621.54551,-0.969985503929198,0.0261234454871442,-0.285404745555811
1580421621.5495,-0.96900892652781,0.0290531776913099,-0.286381322957199
1580421621.5535,-0.962661173418784,0.0261234454871442,-0.282475013351645
1580421621.55749,-0.962661173418784,0.0227054245822842,-0.282475013351645
1580421621.56148,-0.956313420309758,0.0231937132829785,-0.288822766460671
1580421621.56548,-0.952407110704204,0.0202639810788128,-0.280033569848174
1580421621.56947,-0.947035934996567,0.0197756923781185,-0.280033569848174
1580421621.57346,-0.944594491493095,0.0202639810788128,-0.274174105439842
1580421621.57746,-0.945571068894484,0.0173342488746471,-0.269779507133594
1580421621.58145,-0.945571068894484,0.0134279392690928,-0.271244373235676
1580421621.58545,-0.94508278019379,0.01196307316701,-0.260013733119708
1580421621.58944,-0.948012512397955,0.00805676356145568,-0.260013733119708
1580421621.59343,-0.946059357595178,0.00659189745937283,-0.256595712214848
1580421621.59743,-0.94850080109865,0.000732433051041426,-0.253665980010682
1580421621.60142,-0.951430533302815,-0.00366216525520713,-0.245853360799572
1580421621.60544,-0.950453955901427,-0.00122072175173571,-0.247318226901655
1580421621.60943,-0.956801709010453,-0.00170901045242999,-0.239017318989852
1580421621.61343,-0.958266575112535,-0.00708018616006711,-0.229739833676661
1580421621.61742,-0.966079194323644,-0.00659189745937283,-0.227298390173189
1580421621.62141,-0.974868390936141,-0.0114747844663157,-0.229739833676661
1580421621.6254,-0.97584496833753,-0.00952162966353853,-0.222415503166246
1580421621.6294,-0.98268101014725,-0.0104982070649271,-0.223880369268329
1580421621.63339,-0.98951705195697,-0.00854505226214997,-0.224856946669718
1580421621.63739,-0.994399938963912,-0.0046387426565957,-0.230228122377355
1580421621.64138,-1.00123598077363,0.00366216525520713,-0.234134431982909
1580421621.64537,-0.99977111467155,0.00805676356145568,-0.240482185091935
1580421621.64937,-1.00270084687572,0.0148928053711757,-0.250736247806516
1580421621.65336,-1.00074769207294,0.0197756923781185,-0.254154268711376
1580421621.65735,-1.00221255817502,0.0271000228885327,-0.250736247806516
1580421621.66135,-0.999282825970855,0.0319829098954756,-0.257084000915542
1580421621.66534,-0.993423361562524,0.034424353398947,-0.258548867017625
1580421621.66933,-0.984145876249332,0.0349126420996413,-0.259525444419014
1580421621.67333,-0.977798123140307,0.0363775082017241,-0.260990310521096
1580421621.67732,-0.966567483024338,0.0349126420996413,-0.260990310521096
1580421621.68131,-0.958266575112535,0.0349126420996413,-0.254154268711376
1580421621.6853,-0.948989089799344,0.0354009308003356,-0.253665980010682
1580421621.6893,-0.94166475928893,0.0358892195010299,-0.254154268711376
1580421621.69329,-0.945571068894484,0.0324711985961699,-0.239505607690546
1580421621.69728,-0.94508278019379,0.031006332494087,-0.239017318989852
1580421621.70128,-0.944594491493095,0.027588311589227,-0.236087586785686
1580421621.70527,-0.948989089799344,0.024170290684367,-0.241458762493323
1580421621.70926,-0.950942244602121,0.0207522697795071,-0.242435339894712
1580421621.71326,-0.948989089799344,0.0222171358815899,-0.246341649500266
1580421621.71725,-0.952407110704204,0.0227054245822842,-0.243900205996795
1580421621.72124,-0.954360265506981,0.0266117341878385,-0.242435339894712
1580421621.72524,-0.960708018616007,0.0271000228885327,-0.243900205996795
1580421621.72923,-0.961196307316701,0.0280766002899213,-0.241947051194018
1580421621.73322,-0.964614328221561,0.0285648889906156,-0.242435339894712
1580421621.73722,-0.966079194323644,0.0271000228885327,-0.240482185091935
1580421621.74121,-0.966079194323644,0.0285648889906156,-0.240482185091935
1580421621.7452,-0.967055771725033,0.0314946211947813,-0.248783093003738
1580421621.7492,-0.967055771725033,0.0383306630045013,-0.248783093003738
1580421621.75319,-0.968032349126421,0.041260395208667,-0.254154268711376
1580421621.75719,-0.970473792629893,0.041260395208667,-0.254642557412071
1580421621.76118,-0.971938658731975,0.0427252613107498,-0.258060578316931
1580421621.76517,-0.969497215228504,0.0363775082017241,-0.261966887922485
1580421621.76916,-0.968520637827115,0.0300297550926985,-0.274662394140536
1580421621.77315,-0.971938658731975,0.0261234454871442,-0.281010147249562
1580421621.77715,-0.96900892652781,0.0187991149767299,-0.281498435950256
1580421621.78114,-0.970962081330587,0.0173342488746471,-0.274662394140536
1580421621.78513,-0.97242694743267,0.01196307316701,-0.269291218432899
1580421621.78913,-0.978774700541695,0.00805676356145568,-0.257572289616236
1580421621.79312,-0.978774700541695,0.00708018616006711,-0.249271381704432
1580421621.79711,-0.979751277943084,0.00708018616006711,-0.246341649500266
1580421621.80111,-0.978286411841001,0.000244144350347142,-0.240970473792629
1580421621.8051,-0.973891813534753,-0.00610360875867855,-0.237552452887769
1580421621.80909,-0.969497215228504,-0.0109864957656214,-0.230716411078049
1580421621.81309,-0.967055771725033,-0.0158693827725642,-0.222415503166246
1580421621.81708,-0.964126039520867,-0.0202639810788128,-0.217532616159303
1580421621.82108,-0.964126039520867,-0.0222171358815899,-0.207766842145418
1580421621.82507,-0.966079194323644,-0.0236820019836728,-0.207278553444723
1580421621.82906,-0.970962081330587,-0.027588311589227,-0.206301976043335
1580421621.83306,-0.971938658731975,-0.027588311589227,-0.202395666437781
1580421621.83705,-0.982192721446555,-0.0251468680857556,-0.207278553444723
1580421621.84104,-0.987563897154192,-0.0202639810788128,-0.206790264744029
1580421621.84506,-0.99293507286183,-0.0183108262760356,-0.209231708247501
1580421621.84905,-0.996841382467384,-0.01196307316701,-0.210696574349583
1580421621.85305,-1.00074769207294,-0.00512703135728998,-0.210696574349583
1580421621.85704,-1.00123598077363,-0.00170901045242999,-0.202883955138475
1580421621.86104,-1.00270084687572,0.00366216525520713,-0.202395666437781
1580421621.86503,-1.00514229037919,0.00805676356145568,-0.197512779430838
1580421621.86902,-1.00611886778058,0.0129396505683985,-0.193606469825284
1580421621.87302,-1.00563057907988,0.0187991149767299,-0.187258716716258
1580421621.87701,-1.00807202258335,0.0256351567864499,-0.185793850614175
1580421621.881,-1.00709544518196,0.0295414663920042,-0.177004654001678
1580421621.885,-1.01100175478752,0.0349126420996413,-0.169192034790569
1580421621.88899,-1.01100175478752,0.034424353398947,-0.160891126878766
1580421621.89298,-1.0129549095903,0.0329594872968642,-0.156984817273212
1580421621.89698,-1.0129549095903,0.0354009308003356,-0.156008239871824
1580421621.90097,-1.01393148699168,0.0314946211947813,-0.153566796368352
1580421621.90496,-1.01441977569238,0.0261234454871442,-0.153078507667658
1580421621.90896,-1.01344319829099,0.0192874036774242,-0.151613641565575
1580421621.91295,-1.01100175478752,0.0139162279697871,-0.149172198062104
1580421621.91694,-1.00953688868544,0.00952162966353853,-0.149172198062104
1580421621.92094,-1.0124666208896,0.00366216525520713,-0.150637064164187
1580421621.92493,-1.0129549095903,0.00122072175173571,-0.153078507667658
1580421621.92892,-1.01490806439307,-0.00219729915312428,-0.157473105973907
1580421621.93291,-1.02027924010071,-0.00415045395590141,-0.156496528572518
1580421621.93691,-1.03248645761807,-0.00561532005798426,-0.147219043259327
1580421621.9409,-1.04371709773404,-0.00170901045242999,-0.133546959639887
1580421621.94489,-1.05934233615625,-0.000244144350347142,-0.115968566414892
1580421621.94889,-1.06813153276875,-0.00317387655451284,-0.0988784618905925
1580421621.95288,-1.072526131075,-0.00708018616006711,-0.080811779964904
1580421621.95687,-1.07399099717708,-0.0114747844663157,-0.0598153658350498
1580421621.96087,-1.06959639887083,-0.0168459601739528,-0.0529793240253298
1580421621.96486,-1.05983062485695,-0.0231937132829785,-0.0363775082017241
1580421621.96885,-1.05006485084306,-0.0324711985961699,-0.027588311589227
1580421621.97285,-1.04469367513542,-0.034424353398947,-0.00854505226214997
1580421621.97684,-1.04322880903334,-0.041260395208667,0.00854505226214997
1580421621.98084,-1.03639276722362,-0.048096437018387,0.0251468680857556
1580421621.98483,-1.03883421072709,-0.044678416113527,0.034424353398947
1580421621.98882,-1.03541618982223,-0.041260395208667,0.0456549935149155
1580421621.99282,-1.03492790112154,-0.0402838178072784,0.0539559014267184
1580421621.99681,-1.04029907682918,-0.037842374303807,0.0554207675288012
1580421622.0008,-1.0471351186389,-0.0319829098954756,0.0651865415426869
1580421622.00482,-1.0554360265507,-0.0266117341878385,0.063721675440604
1580421622.00881,-1.06227206836042,-0.0197756923781185,0.0715342946517126
1580421622.01281,-1.06910811017014,-0.0192874036774242,0.0778820477607383
1580421622.0168,-1.06764324406805,-0.0192874036774242,0.0817883573662925
1580421622.02079,-1.06813153276875,-0.0178225375753414,0.0920424200808725
1580421622.02479,-1.06813153276875,-0.0222171358815899,0.103761348897535
1580421622.02878,-1.07057297627222,-0.0202639810788128,0.110597390707255
1580421622.03278,-1.07838559548333,-0.0222171358815899,0.126222629129472
1580421622.03677,-1.09108110170138,-0.0212405584802013,0.136964980544747
1580421622.04076,-1.11207751583123,-0.0178225375753414,0.150637064164187
1580421622.04476,-1.14137483787289,-0.0109864957656214,0.163332570382238
1580421622.04875,-1.15846494239719,-0.00805676356145568,0.176028076600289
1580421622.05274,-1.17213702601663,-0.00610360875867855,0.192141603723201
1580421622.05674,-1.18971541924163,-0.00561532005798426,0.202395666437781
1580421622.06073,-1.20338750286107,-0.00903334096284425,0.218997482261386
1580421622.06472,-1.22682536049439,-0.0144045166704814,0.236087586785686
1580421622.06872,-1.2522163729305,-0.0153810940718699,0.260990310521095
1580421622.07271,-1.2776073853666,-0.0109864957656214,0.292729076066223
1580421622.0767,-1.30446326390478,-0.0124513618677042,0.317631799801632
1580421622.0807,-1.33473716334783,-0.00512703135728998,0.338628213931486
1580421622.08469,-1.37380025940337,0.00170901045242999,0.354741741054397
1580421622.08868,-1.40944533455406,0.00854505226214997,0.351323720149537
1580421622.09267,-1.4226291294728,0.00708018616006711,0.329350728618294
1580421622.09667,-1.41286335545892,-0.0104982070649271,0.293217364766917
1580421622.10066,-1.40944533455406,-0.0437018387121384,0.249271381704432
1580421622.10465,-1.39577325093462,-0.0778820477607383,0.216067750057221
1580421622.10865,-1.38356603341726,-0.100343327992675,0.190676737621118
1580421622.11264,-1.36598764019226,-0.109620813305867,0.157473105973907
1580421622.11663,-1.33962005035477,-0.132082093537804,0.103273060196841
1580421622.12063,-1.31960021362631,-0.159914549477378,0.0227054245822842
1580421622.12462,-1.28883802548257,-0.205325398641946,-0.0778820477607383
1580421622.12861,-1.24489204242008,-0.267338063630122,-0.150148775463492
1580421622.13261,-1.19557488364996,-0.327397573815519,-0.184817273212786
1580421622.1366,-1.13307392996109,-0.38110933089189,-0.197512779430838
1580421622.14059,-1.07057297627222,-0.427008468757153,-0.220462348363469
1580421622.14459,-1.00025940337224,-0.459235523002976,-0.234622720683603
1580421622.14858,-0.94508278019379,-0.47681391622797,-0.232669565880826
1580421622.15258,-0.899671931029221,-0.482673380636301,-0.201419089036392
1580421622.15657,-0.872816052491036,-0.475837338826581,-0.166262302586404
1580421622.16056,-0.870374608987564,-0.452399481193256,-0.137453269245441
1580421622.16455,-0.896253910124361,-0.39819943541619,-0.118410009918364
1580421622.16854,-0.951430533302815,-0.326909285114825,-0.108644235904478
1580421622.17254,-0.997817959868772,-0.253665980010682,-0.110597390707255
1580421622.17653,-1.03736934462501,-0.189700160219729,-0.109620813305867
1580421622.18052,-1.07057297627222,-0.132082093537804,-0.118898298619058
1580421622.18452,-1.09889372091249,-0.0847180895704582,-0.127199206530861
1580421622.18851,-1.11793698023957,-0.0461432822156098,-0.129152361333638
1580421622.1925,-1.12574959945067,-0.00854505226214997,-0.11792172121767
1580421622.1965,-1.12428473334859,0.0314946211947813,-0.0905775539787896
1580421622.20049,-1.11793698023957,0.060303654535744,-0.0651865415426869
1580421622.20449,-1.11110093842985,0.0817883573662925,-0.0329594872968642
1580421622.20848,-1.09938200961318,0.0993667505912867,0.000732433051041426
1580421622.21247,-1.08326848249027,0.101319905394064,0.0324711985961699
1580421622.21647,-1.06520180056458,0.105714503700312,0.0598153658350498
1580421622.22046,-1.03883421072709,0.102296482795452,0.0749523155565726
1580421622.22445,-1.01930266269932,0.0881361104753182,0.0744640268558783
1580421622.22845,-1.00074769207294,0.073975738155184,0.0734874494544897
1580421622.23244,-0.986587319752804,0.063721675440604,0.0725108720531011
1580421622.23643,-0.971938658731975,0.0485847257190812,0.0715342946517126
1580421622.24043,-0.960219729915313,0.041260395208667,0.0764171816586554
1580421622.24444,-0.950453955901427,0.0383306630045013,0.0832532234683754
1580421622.24844,-0.937270160982681,0.0368657969024184,0.0871595330739297
1580421622.25243,-0.92457465476463,0.0397955291065841,0.0979018844892039
1580421622.25643,-0.912855725947967,0.0393072404058898,0.104737926298924
1580421622.26042,-0.902113374532693,0.044678416113527,0.0993667505912867
1580421622.26441,-0.887464713511864,0.0451667048142212,0.0993667505912867
1580421622.26841,-0.877210650797284,0.0471198596169984,0.0876478217746239
1580421622.2724,-0.872816052491036,0.0485847257190812,0.077393759060044
1580421622.27639,-0.862073701075762,0.0490730144197755,0.0754406042572668
1580421622.28039,-0.857679102769513,0.0407721065079727,0.0744640268558783
1580421622.28438,-0.847425040054933,0.031006332494087,0.0817883573662925
1580421622.28837,-0.84254215304799,0.0100099183642328,0.0949721522850382
1580421622.29237,-0.834729533836882,-0.0144045166704814,0.110597390707255
1580421622.29636,-0.826428625925079,-0.0441901274128327,0.135500114442664
1580421622.30035,-0.81861600671397,-0.0725108720531011,0.154055085069047
1580421622.30435,-0.811291676203556,-0.101319905394064,0.179446097505149
1580421622.30834,-0.80152590218967,-0.130128938735027,0.201907377737086
1580421622.31234,-0.787365529869536,-0.158937972075989,0.224368657969023
1580421622.31633,-0.775646601052873,-0.179446097505149,0.239017318989852
1580421622.32032,-0.762951094834822,-0.196047913328755,0.258548867017623
1580421622.32431,-0.752697032120242,-0.208255130846112,0.269291218432897
1580421622.3283,-0.741466392004272,-0.221438925764858,0.285404745555809
1580421622.3323,-0.72877088578622,-0.230228122377355,0.29810025177386
1580421622.33629,-0.719981689173723,-0.240970473792629,0.303959716182192
1580421622.34028,-0.713145647364003,-0.252201113908599,0.317631799801632
1580421622.34428,-0.708751049057755,-0.263431754024568,0.334721904325932
1580421622.34827,-0.708751049057755,-0.275638971541925,0.3459525444419
1580421622.35226,-0.710704203860532,-0.292240787365531,0.353765163653009
1580421622.35626,-0.705333028152895,-0.311772335393302,0.359136339360646
1580421622.36025,-0.707774471656366,-0.334233615625239,0.367925535973143
1580421622.36424,-0.705333028152895,-0.35718318455787,0.371831845578697
1580421622.36824,-0.703868162050812,-0.375249866483559,0.370366979476614
1580421622.37223,-0.703379873350118,-0.394293125810636,0.367925535973143
1580421622.37623,-0.700450141145952,-0.410406652933547,0.364507515068283
1580421622.38022,-0.698985275043869,-0.423590447852293,0.362554360265506
1580421622.38421,-0.699961852445258,-0.428473334859236,0.35962462806134
1580421622.38821,-0.703868162050812,-0.43237964446479,0.350347142748149
1580421622.3922,-0.702403295948729,-0.427008468757153,0.358159761959257
1580421622.39619,-0.701915007248035,-0.422613870450904,0.3630426489662
1580421622.40019,-0.700450141145952,-0.400152590218967,0.368902113374531
1580421622.40417,-0.706797894254978,-0.383550774395362,0.378667887388417
1580421622.40817,-0.707774471656366,-0.358159761959259,0.391363393606468
1580421622.41216,-0.70826276035706,-0.337651636530099,0.402594033722437
1580421622.41615,-0.710704203860532,-0.320561532005799,0.408941786831463
1580421622.42015,-0.714610513466086,-0.308842603189136,0.4143129625391
1580421622.42414,-0.71851682307164,-0.301518272678722,0.416754406042571
1580421622.42813,-0.717540245670252,-0.296147096971085,0.420172426947431
1580421622.43213,-0.721446555275806,-0.291264209964142,0.428473334859234
1580421622.43612,-0.73218890669108,-0.288334477759976,0.433356221866177
1580421622.44012,-0.743907835507743,-0.282475013351645,0.444098573281451
1580421622.44411,-0.760021362630656,-0.271244373235676,0.46900129701686
1580421622.4481,-0.78101777676051,-0.253665980010682,0.487556267643242
1580421622.4521,-0.803967345693142,-0.228274967574578,0.505622949568934
1580421622.45609,-0.833264667734799,-0.203860532539863,0.524177920195317
1580421622.46008,-0.865003433279927,-0.176516365300984,0.540291447318229
1580421622.46408,-0.894789044022279,-0.158937972075989,0.554451819638363
1580421622.46807,-0.929945830472267,-0.142336156252384,0.572518501564051
1580421622.47206,-0.956801709010453,-0.127687495231555,0.575936522468911
1580421622.47606,-0.974868390936141,-0.12133974212253,0.58374914168002
1580421622.48005,-0.986587319752804,-0.118410009918364,0.585214007782103
1580421622.48407,-0.990981918059052,-0.122804608224612,0.585702296482797
1580421622.48806,-0.998306248569467,-0.126222629129472,0.583260852979326
1580421622.49206,-0.995864805065995,-0.125734340428778,0.575448233768217
1580421622.49605,-0.994399938963912,-0.119874876020447,0.565682459754331
1580421622.50004,-0.990005340657664,-0.114015411612115,0.557381551842528
1580421622.50404,-0.978286411841001,-0.101319905394064,0.554940108339057
1580421622.50803,-0.959243152513924,-0.0891126878767068,0.547615777828643
1580421622.51202,-0.93824673838407,-0.0729991607537954,0.545662623025866
1580421622.51602,-0.916273746852827,-0.0568856336308841,0.538826581216146
1580421622.52001,-0.895765621423667,-0.0368657969024184,0.53931486991684
1580421622.524,-0.878187228198673,-0.0231937132829785,0.530525673304343
1580421622.528,-0.858655680170902,-0.0192874036774242,0.526131074998094
1580421622.53199,-0.838635843442436,-0.0207522697795071,0.523201342793929
1580421622.53598,-0.817151140611887,-0.0339360646982527,0.522713054093234
1580421622.53998,-0.789318684672313,-0.0510261692225527,0.521248187991151
1580421622.54397,-0.770275425345236,-0.067139696345464,0.520759899290457
1580421622.54797,-0.754161898222325,-0.0788586251621268,0.51538872358282
1580421622.55196,-0.744884412909132,-0.0930189974822611,0.511482413977266
1580421622.55595,-0.738536659800106,-0.0983901731898982,0.507087815671017
1580421622.55995,-0.750255588616771,-0.108644235904478,0.519783321889069
1580421622.56393,-0.787365529869536,-0.119874876020447,0.528572518501566
1580421622.56793,-0.83912413214313,-0.126710917830167,0.523689631494623
1580421622.57192,-0.906019684138247,-0.138429846646829,0.5256427862974
1580421622.57591,-0.971450370031281,-0.159426260776684,0.528572518501566
1580421622.57991,-1.02613870450904,-0.189211871519035,0.544686045624477
1580421622.5839,-1.07692072938125,-0.228274967574578,0.586678873884185
1580421622.58789,-1.13600366216525,-0.266361486228734,0.655039291981385
1580421622.59189,-1.20143434805829,-0.306889448386359,0.716563668268865
1580421622.59588,-1.26637674525063,-0.350835431448845,0.755626764324408
1580421622.59988,-1.320088502327,-0.410406652933547,0.762951094834822
1580421622.60387,-1.34645609216449,-0.485114824139773,0.736583504997331
1580421622.60786,-1.34010833905547,-0.564217593652247,0.679942015716794
1580421622.61186,-1.29372091248951,-0.637949187457084,0.610605020218205
1580421622.61585,-1.20582894636454,-0.676523994811932,0.535408560311286
1580421622.61984,-1.10914778362707,-0.658457312886243,0.457282368200197
1580421622.62384,-1.02369726100557,-0.580819409475852,0.38696879530022
1580421622.62783,-0.964614328221561,-0.478767071030747,0.329350728618294
1580421622.63182,-0.919691767757687,-0.36743724727245,0.25708400091554
1580421622.63582,-0.864026855878539,-0.272220950637065,0.195071335927366
1580421622.63981,-0.795666437781339,-0.203372243839169,0.135500114442664
1580421622.64383,-0.734142061493857,-0.154055085069047,0.0886243991760125
1580421622.64782,-0.695078965438315,-0.10766765850309,0.0715342946517126
1580421622.65182,-0.686778057526512,-0.0593270771343555,0.0856946669718468
1580421622.65581,-0.705333028152895,-0.00512703135728998,0.127199206530861
1580421622.6598,-0.750255588616771,0.0554207675288012,0.162355992980849
1580421622.6638,-0.824475471122302,0.129640650034332,0.198001068131532
1580421622.66779,-0.920668345159076,0.216556038757915,0.235111009384298
1580421622.67178,-1.02516212710765,0.281498435950255,0.237552452887769
1580421622.67578,-1.10084687571527,0.301029983978026,0.204837109941252
1580421622.67977,-1.13795681696803,0.272220950637063,0.145265888456549
1580421622.68376,-1.14674601358053,0.220462348363469,0.0729991607537954
1580421622.68776,-1.15016403448539,0.167238879987792,-0.00854505226214997
1580421622.69175,-1.15065232318608,0.116456855115587,-0.0686045624475469
1580421622.69574,-1.14332799267567,0.0720225833524069,-0.118410009918364
1580421622.69974,-1.12184328984512,0.0451667048142212,-0.148683909361409
1580421622.70373,-1.08180361638819,0.0422369726100555,-0.172121766994735
1580421622.70772,-1.02272068360418,0.0549324788281069,-0.200442511635003
1580421622.71172,-0.964614328221561,0.0744640268558783,-0.226321812771801
1580421622.71571,-0.914808880750744,0.0852063782711525,-0.248294804303043
1580421622.71971,-0.877210650797284,0.0944838635843439,-0.256107423514154
1580421622.72369,-0.851819638361182,0.0856946669718468,-0.250736247806516
1580421622.72769,-0.835217822537576,0.0617685206378269,-0.238529030289158
1580421622.73168,-0.835217822537576,0.0349126420996413,-0.227786678873883
1580421622.73567,-0.844007019150073,0.0129396505683985,-0.237064164187075
1580421622.73967,-0.854749370565347,-0.0114747844663157,-0.251224536507211
1580421622.74366,-0.874280918593119,-0.0397955291065841,-0.247318226901655
1580421622.74765,-0.907972838941024,-0.060303654535744,-0.216067750057221
1580421622.75165,-0.959731441214618,-0.0686045624475469,-0.165774013885709
1580421622.75564,-1.01197833218891,-0.060303654535744,-0.117433432516975
1580421622.75963,-1.05738918135348,-0.0402838178072784,-0.0817883573662925
1580421622.76363,-1.09840543221179,-0.0197756923781185,-0.0524910353246355
1580421622.76762,-1.12672617685206,0.0148928053711757,-0.0334477759975584
1580421622.77162,-1.13893339436942,0.0642099641412983,-0.0197756923781185
1580421622.77561,-1.1403982604715,0.128175783932249,-0.0300297550926985
1580421622.7796,-1.12819104295415,0.195071335927366,-0.0559090562294955
1580421622.7836,-1.10817120622568,0.256107423514152,-0.0959487296864268
1580421622.78759,-1.07692072938125,0.304448004882886,-0.137941557946135
1580421622.79158,-1.04567025253681,0.347905699244677,-0.151125352864881
1580421622.79558,-1.01881437399863,0.389898527504386,-0.157961394674601
1580421622.79957,-1.00074769207294,0.427008468757151,-0.160891126878766
1580421622.80356,-0.984634164950027,0.459723811703668,-0.157473105973907
1580421622.80755,-0.973891813534753,0.477302204928662,-0.162355992980849
1580421622.81154,-0.979751277943084,0.485603112840465,-0.159914549477378
1580421622.81554,-0.990005340657664,0.475349050125885,-0.152101930266269
1580421622.81953,-0.998306248569467,0.453864347295337,-0.136964980544747
1580421622.82353,-1.0036774242771,0.421637293049514,-0.116456855115587
1580421622.82752,-1.0036774242771,0.3801327534905,-0.099855039291981
1580421622.83151,-1.00611886778058,0.336186770428014,-0.0827649347676811
1580421622.83551,-1.00563057907988,0.294682230869,-0.0715342946517126
1580421622.8395,-1.01100175478752,0.254154268711375,-0.0666514076447697
1580421622.84349,-1.01100175478752,0.209719996948195,-0.060303654535744
1580421622.84749,-1.01100175478752,0.163820859082932,-0.0573739223315783
1580421622.85148,-1.0124666208896,0.115968566414892,-0.0568856336308841
1580421622.85547,-1.01051346608682,0.0729991607537954,-0.0476081483176927
1580421622.85947,-0.996841382467384,0.0324711985961699,-0.0407721065079727
1580421622.86346,-0.985122453650721,-0.01196307316701,-0.0417486839093613
1580421622.86745,-0.969497215228504,-0.0495613031204698,-0.0451667048142212
1580421622.87145,-0.961196307316701,-0.0764171816586554,-0.0388189517051956
1580421622.87544,-0.950453955901427,-0.0988784618905925,-0.0422369726100555
1580421622.87943,-0.956801709010453,-0.108644235904478,-0.0397955291065841
1580421622.88345,-0.956313420309758,-0.113038834210727,-0.0354009308003356
1580421622.88745,-0.957289997711147,-0.110597390707255,-0.0339360646982527
1580421622.89144,-0.958266575112535,-0.10424963759823,-0.0271000228885327
1580421622.89543,-0.95533684290837,-0.105226214999618,-0.0280766002899213
1580421622.89943,-0.956801709010453,-0.109132524605172,-0.0246585793850613
1580421622.90342,-0.94850080109865,-0.109132524605172,-0.0329594872968642
1580421622.90741,-0.949477378500038,-0.109132524605172,-0.0427252613107498
1580421622.91141,-0.948012512397955,-0.10083161669337,-0.0432135500114441
1580421622.9154,-0.948989089799344,-0.080811779964904,-0.0466315709163041
1580421622.91939,-0.955825131609064,-0.0524910353246355,-0.0451667048142212
1580421622.92339,-0.964126039520867,-0.0178225375753414,-0.0539559014267184
1580421622.92738,-0.965102616922255,0.0158693827725642,-0.0568856336308841
1580421622.93138,-0.98609903105211,0.0510261692225527,-0.0612802319371326
1580421622.93537,-1.0041657129778,0.0886243991760125,-0.0681162737468526
1580421622.93936,-1.01832608529793,0.118898298619058,-0.0690928511482412
1580421622.94336,-1.01881437399863,0.141847867551689,-0.0700694285496297
1580421622.94735,-1.01197833218891,0.151613641565575,-0.0642099641412983
1580421622.95134,-1.01149004348821,0.153566796368352,-0.0622568093385212
1580421622.95534,-0.961684596017395,0.12475776302739,-0.060303654535744
1580421622.95933,-0.954848554207675,0.11792172121767,-0.0627450980392155
1580421622.96332,-0.929945830472267,0.0935072861829553,-0.0754406042572668
1580421622.96731,-0.979751277943084,0.191653315022506,-0.0949721522850382
1580421622.9713,-1.03639276722362,0.0871595330739297,-0.136964980544747
1580421622.9753,-0.984634164950027,0.0427252613107498,-0.123292896925307
1580421622.97929,-0.969985503929198,0.048096437018387,-0.144289311055161
1580421622.98328,-0.950453955901427,0.0441901274128327,-0.156008239871824
1580421622.98728,-0.941176470588236,0.060303654535744,-0.165774013885709
1580421622.99127,-0.930922407873656,0.0827649347676811,-0.173586633096818
1580421622.99527,-0.920668345159076,0.105226214999618,-0.178957808804455
1580421622.99926,-0.91432059205005,0.132082093537804,-0.183840695811398
1580421623.00325,-0.909925993743801,0.155031662470435,-0.186770428015564
1580421623.00725,-0.90748455024033,0.174074921797512,-0.190188448920424
1580421623.01124,-0.915297169451438,0.183840695811398,-0.194094758525978
1580421623.01523,-0.929457541771573,0.189211871519035,-0.200930800335698
1580421623.01923,-0.945571068894484,0.191653315022506,-0.201907377737086
1580421623.02322,-0.973403524834058,0.201419089036392,-0.202395666437781
1580421623.02721,-1.00758373388266,0.215579461356526,-0.206790264744029
1580421623.03121,-1.03395132372015,0.228763256275272,-0.206301976043335
1580421623.0352,-1.06764324406805,0.248783093003738,-0.212649729152361
1580421623.03919,-1.07154955367361,0.253177691309986,-0.222415503166246
1580421623.04321,-1.06031891355764,0.23657587548638,-0.223392080567635
1580421623.04721,-1.03639276722362,0.212161440451666,-0.220950637064163
1580421623.0512,-1.01539635309377,0.179934386205844,-0.205325398641946
1580421623.05519,-0.994888227664607,0.147707331960021,-0.174074921797512
1580421623.05919,-0.988052185854887,0.111573968108644,-0.146242465857938
1580421623.06318,-0.987563897154192,0.070557717250324,-0.108155947203784
1580421623.06717,-0.98951705195697,0.0251468680857556,-0.0710460059510183
1580421623.07117,-0.99635309376669,-0.0192874036774242,-0.0324711985961699
1580421623.07516,-1.00025940337224,-0.0612802319371326,0.00512703135728998
1580421623.07915,-1.00563057907988,-0.096437018387121,0.0407721065079727
1580421623.08315,-1.01149004348821,-0.126710917830167,0.0710460059510183
1580421623.08714,-1.02272068360418,-0.149660486762798,0.0935072861829553
1580421623.09114,-1.03102159151598,-0.170656900892652,0.104737926298924
1580421623.09513,-1.04762340733959,-0.183840695811398,0.103761348897535
1580421623.09912,-1.0642252231632,-0.193606469825284,0.0969253070878153
1580421623.10311,-1.07936217288472,-0.192629892423895,0.0847180895704582
1580421623.10711,-1.10035858701457,-0.179446097505149,0.080811779964904
1580421623.1111,-1.12672617685206,-0.152590218966964,0.0690928511482412
1580421623.1151,-1.15407034409094,-0.112062256809338,0.0686045624475469
1580421623.11909,-1.18043793392843,-0.0588387884336612,0.0563973449301898
1580421623.12308,-1.20973525597009,-0.00903334096284425,0.0500495918211641
1580421623.12707,-1.22877851529717,0.037842374303807,0.0441901274128327
1580421623.13106,-1.24782177462425,0.0778820477607383,0.0427252613107498
1580421623.13506,-1.26198214694438,0.108155947203784,0.0524910353246355
1580421623.13905,-1.27418936446174,0.124269474326695,0.0607919432364383
1580421623.14304,-1.2771190966659,0.121828030823224,0.067139696345464
1580421623.14704,-1.28053711757076,0.112550545510032,0.0642099641412983
1580421623.15103,-1.27125963225757,0.0954604409857325,0.0461432822156098
1580421623.15503,-1.25661097123674,0.0686045624475469,0.0319829098954756
1580421623.15902,-1.24391546501869,0.044678416113527,0.0285648889906156
1580421623.16301,-1.23659113450828,0.0231937132829785,0.0246585793850613
1580421623.16701,-1.23952086671244,0.00659189745937283,0.0197756923781185
1580421623.171,-1.24586861982147,-0.0148928053711757,0.0231937132829785
1580421623.17499,-1.25123979552911,-0.0271000228885327,0.0271000228885327
1580421623.17899,-1.2600289921416,-0.0339360646982527,0.0383306630045013
1580421623.18298,-1.27418936446174,-0.0349126420996413,0.0417486839093613
1580421623.18697,-1.28737315938048,-0.0280766002899213,0.0471198596169984
1580421623.19097,-1.29713893339437,-0.0187991149767299,0.0476081483176927
1580421623.19496,-1.3117875944152,-0.00219729915312428,0.0524910353246355
1580421623.19895,-1.3205767910277,0.0109864957656214,0.0607919432364383
1580421623.20294,-1.34108491645686,0.0236820019836728,0.0666514076447697
1580421623.20693,-1.36549935149157,0.0295414663920042,0.0725108720531011
1580421623.21093,-1.40065613794156,0.0246585793850613,0.0764171816586554
1580421623.21492,-1.43239490348669,0.0129396505683985,0.0896009765774011
1580421623.21892,-1.44704356450752,-0.00268558785381856,0.0993667505912867
1580421623.22291,-1.45485618371862,-0.00170901045242999,0.128664072632944
1580421623.2269,-1.46071564812696,0.0153810940718699,0.156496528572518
1580421623.2309,-1.4743877317464,0.0524910353246355,0.194583047226672
1580421623.23489,-1.48952468146792,0.0925307087815668,0.246341649500266
1580421623.23888,-1.49391927977417,0.118898298619058,0.291752498664835
1580421623.24288,-1.49001297016861,0.120363164721141,0.329839017318989
1580421623.24687,-1.47682917524987,0.0861829556725411,0.337651636530097
1580421623.25086,-1.45436789501793,0.0358892195010299,0.32544441901274
1580421623.25486,-1.42702372777905,-0.0314946211947813,0.316655222400243
1580421623.25885,-1.40114442664225,-0.103273060196841,0.306401159685663
1580421623.26284,-1.38210116731518,-0.176516365300984,0.290775921263446
1580421623.26684,-1.36696421759365,-0.241947051194018,0.267826352330815
1580421623.27083,-1.34938582436866,-0.299565117875945,0.230716411078049
1580421623.27482,-1.3283894102388,-0.354741741054399,0.202395666437781
1580421623.27882,-1.30690470740826,-0.40161745632105,0.176516365300984
1580421623.28284,-1.2942092011902,-0.434821087968261,0.164797436484321
1580421623.28683,-1.29518577859159,-0.451911192492561,0.174563210498206
1580421623.29082,-1.30251010910201,-0.442145418478676,0.187258716716258
1580421623.29482,-1.30836957351034,-0.423590447852293,0.188235294117646
1580421623.29881,-1.3205767910277,-0.391851682307164,0.196047913328755
1580421623.3028,-1.36061646448463,-0.33667505912871,0.178957808804455
1580421623.3068,-1.4314183260853,-0.268802929732205,0.10083161669337
1580421623.31079,-1.48805981536584,-0.217044327458609,-0.0339360646982527
1580421623.31479,-1.49440756847486,-0.187747005416952,-0.209231708247501
1580421623.31878,-1.46120393682765,-0.168215457389181,-0.39819943541619
1580421623.32277,-1.41774624246586,-0.127687495231555,-0.554940108339055
1580421623.32676,-1.39967956054017,-0.0803234912642097,-0.676523994811932
1580421623.33076,-1.40505073624781,-0.048096437018387,-0.782970931563288
1580421623.33475,-1.40895704585336,-0.0202639810788128,-0.925551232166018
1580421623.33875,-1.39040207522698,0.00952162966353853,-1.07740901808194
1580421623.34274,-1.35133897917144,0.0520027466239412,-1.20631723506523
1580421623.34673,-1.31422903791867,0.114015411612115,-1.27174792095827
1580421623.35073,-1.30397497520409,0.187747005416952,-1.24440375371939
1580421623.35472,-1.32106507972839,0.273197528038452,-1.13990997177081
1580421623.35871,-1.36647592889296,0.354253452353703,-0.99635309376669
1580421623.3627,-1.42507057297627,0.382574196993971,-0.826916914625773
1580421623.36669,-1.49733730067903,0.346440833142594,-0.622323949034866
1580421623.37069,-1.55690852216373,0.262455176623178,-0.397222858014802
1580421623.37468,-1.58913557640955,0.177981231403066,-0.211184863050278
1580421623.37867,-1.58962386511025,0.120851453421835,-0.0935072861829553
1580421623.38267,-1.57888151369497,0.0886243991760125,-0.0383306630045013
1580421623.38666,-1.56276798657206,0.0529793240253298,-0.0407721065079727
1580421623.39066,-1.51784542610819,-0.000732433051041426,-0.100343327992675
1580421623.39465,-1.45436789501793,-0.0749523155565726,-0.180422674906538
1580421623.39864,-1.37672999160754,-0.156008239871824,-0.248294804303043
1580421623.40264,-1.30006866559854,-0.232669565880826,-0.283451590753033
1580421623.40663,-1.23805600061036,-0.279545281147479,-0.276127260242619
1580421623.41062,-1.19508659494926,-0.293705653467613,-0.248783093003738
1580421623.41462,-1.16871900511177,-0.275150682841231,-0.229251544975966
1580421623.41861,-1.15651178759441,-0.238529030289158,-0.232181277180132
1580421623.4226,-1.15162890058747,-0.190676737621118,-0.238040741588463
1580421623.4266,-1.14674601358053,-0.152590218966964,-0.253177691309988
1580421623.43059,-1.13893339436942,-0.118410009918364,-0.272220950637065
1580421623.43458,-1.13356221866178,-0.0920424200808725,-0.287846189059282
1580421623.43858,-1.12526131074998,-0.0744640268558783,-0.297123674372473
1580421623.44257,-1.11403067063401,-0.0588387884336612,-0.299565117875945
1580421623.44656,-1.09840543221179,-0.0441901274128327,-0.288822766460671
1580421623.45055,-1.07643244068055,-0.0271000228885327,-0.279545281147479
1580421623.45455,-1.04762340733959,-0.00854505226214997,-0.271732661936371
1580421623.45854,-1.01393148699168,0.0153810940718699,-0.262943465323874
1580421623.46253,-0.98951705195697,0.0466315709163041,-0.267826352330816
1580421623.46653,-0.964126039520867,0.0803234912642097,-0.270756084534982
1580421623.47052,-0.946547646295873,0.116945143816281,-0.274174105439842
1580421623.47451,-0.924086366063936,0.151613641565575,-0.277103837644008
1580421623.47851,-0.897718776226444,0.178957808804455,-0.287357900358588
1580421623.4825,-0.869398031586176,0.188723582818341,-0.279545281147479
1580421623.48649,-0.840588998245213,0.188723582818341,-0.282963302052339
1580421623.49049,-0.805432211795225,0.173586633096818,-0.289311055161365
1580421623.49448,-0.763439383535516,0.154543373769741,-0.300053406576639
1580421623.49847,-0.730235751888303,0.132082093537804,-0.308842603189136
1580421623.50247,-0.696055542839703,0.10424963759823,-0.323979552910659
1580421623.50646,-0.667734798199435,0.0783703364614325,-0.339116502632182
1580421623.51045,-0.639414053559166,0.0559090562294955,-0.35034714274815
1580421623.51445,-0.610116731517509,0.0339360646982527,-0.359624628061342
1580421623.51844,-0.586678873884184,0.0134279392690928,-0.371343556878005
1580421623.52249,-0.563241016250858,-0.000732433051041426,-0.385503929198139
1580421623.52648,-0.542732890821698,-0.0129396505683985,-0.393316548409247
1580421623.53048,-0.525642786297398,-0.0207522697795071,-0.401129167620356
1580421623.53447,-0.505134660868238,-0.0236820019836728,-0.410406652933547
1580421623.53847,-0.488044556343938,-0.0231937132829785,-0.415777828641184
1580421623.54246,-0.469489585717556,-0.0192874036774242,-0.41528953994049
1580421623.54645,-0.45288776989395,-0.0075684748607614,-0.416266117341879
1580421623.55045,-0.437262531471733,-0.00561532005798426,-0.42212558175021
1580421623.55444,-0.418219272144656,0.0075684748607614,-0.413336385137713
1580421623.55843,-0.409918364232853,0.0124513618677042,-0.416754406042573
1580421623.56243,-0.398687724116884,0.0163576714732585,-0.409918364232853
1580421623.56642,-0.381597619592585,0.0153810940718699,-0.396246280613413
1580421623.57041,-0.369878690775922,0.00219729915312428,-0.37769130998703
1580421623.57441,-0.364507515068285,-0.0163576714732585,-0.344487678339819
1580421623.5784,-0.364995803768979,-0.0485847257190812,-0.308354314488442
1580421623.58239,-0.36743724727245,-0.0930189974822611,-0.260013733119708
1580421623.58639,-0.364995803768979,-0.153566796368352,-0.207278553444723
1580421623.59038,-0.358648050659953,-0.226321812771801,-0.168703746089875
1580421623.59437,-0.344487678339819,-0.303959716182193,-0.135988403143358
1580421623.59837,-0.335698481727322,-0.385992217898833,-0.10766765850309
1580421623.60236,-0.311284046692608,-0.451422903791867,-0.0983901731898982
1580421623.60635,-0.294682230869002,-0.48023193713283,-0.0881361104753182
1580421623.61034,-0.285404745555811,-0.488044556343938,-0.0744640268558783
1580421623.61434,-0.294682230869002,-0.44946974898909,-0.0441901274128327
1580421623.61833,-0.310307469291219,-0.378667887388419,0.0148928053711757
1580421623.62232,-0.350835431448845,-0.292240787365531,0.0876478217746239
1580421623.62632,-0.409430075532159,-0.200930800335698,0.155031662470435
1580421623.63031,-0.486579690241856,-0.108644235904478,0.225833524071106
1580421623.6343,-0.579842832074464,-0.0285648889906156,0.286381322957197
1580421623.6383,-0.678965438315403,0.0393072404058898,0.33228046082246
1580421623.64229,-0.781994354161899,0.0881361104753182,0.385992217898831
1580421623.64628,-0.877210650797284,0.110597390707255,0.447028305485617
1580421623.65028,-0.971450370031281,0.102296482795452,0.542244602121006
1580421623.65427,-1.06276035706111,0.0627450980392155,0.671641107804991
1580421623.65826,-1.15065232318608,-0.01196307316701,0.80494392309453
1580421623.66226,-1.24538033112077,-0.11108567940795,0.914808880750744
1580421623.66625,-1.33864347295338,-0.235111009384298,0.977798123140307
1580421623.67024,-1.41042191195544,-0.361577782864119,1.01051346608682
1580421623.67424,-1.46071564812696,-0.450934615091173,1.02565041580835
1580421623.67823,-1.49880216678111,-0.474860761425193,1.07057297627222
1580421623.68225,-1.52419317921721,-0.444586861982147,1.13649195086595
1580421623.68624,-1.5339589532311,-0.376226443884947,1.17018387121385
1580421623.69024,-1.51589227130541,-0.294193942168308,1.13014419775692
1580421623.69423,-1.45094987411307,-0.214602883955138,1.03883421072709
1580421623.69823,-1.3542687113756,-0.137453269245441,0.919691767757687
1580421623.70222,-1.23952086671244,-0.0759288929579611,0.787365529869536
1580421623.70621,-1.13453879606317,-0.041260395208667,0.654551003280691
1580421623.7102,-1.04811169604028,-0.0334477759975584,0.529549095902954
1580421623.7142,-0.989028763256275,-0.0515144579232469,0.439703974975203
1580421623.71819,-0.967544060425727,-0.0842298008697639,0.403570611123826
1580421623.72219,-0.974868390936141,-0.123781185626001,0.416754406042571
1580421623.72618,-0.998794537270161,-0.160891126878766,0.480231937132828
1580421623.73017,-1.04078736552987,-0.189700160219729,0.567147325856414
1580421623.73417,-1.08619821469444,-0.210696574349583,0.657480735484857
1580421623.73816,-1.12526131074998,-0.226810101472495,0.725841153582056
1580421623.74215,-1.15260547798886,-0.221438925764858,0.759044785229268
1580421623.74615,-1.14283970397497,-0.194583047226672,0.747814145113299
1580421623.75014,-1.11207751583123,-0.147219043259327,0.747325856412605
1580421623.75413,-1.09596398870832,-0.0686045624475469,0.824963759822996
1580421623.75813,-1.09889372091249,0.0280766002899213,0.902113374532693
1580421623.76212,-1.08180361638819,0.12133974212253,0.898207064927139
1580421623.76611,-1.0212558175021,0.209231708247501,0.80152590218967
1580421623.7701,-0.932875562676433,0.262943465323872,0.651132982375831
1580421623.7741,-0.874769207293813,0.29810025177386,0.467536430914777
1580421623.77809,-0.891859311818113,0.34253452353704,0.203860532539863
1580421623.78208,-0.935805294880598,0.3801327534905,-0.167727168688486
1580421623.78608,-0.939711604486153,0.35962462806134,-0.529549095902953
1580421623.79007,-0.919691767757687,0.26733806363012,-0.78443579766537
1580421623.79406,-0.903089951934081,0.142336156252384,-0.898207064927139
1580421623.79806,-0.904554818036164,0.0349126420996413,-0.831799801632716
1580421623.80205,-0.970473792629893,-0.0222171358815899,-0.629648279545281
1580421623.80604,-1.09352254520485,-0.0363775082017241,-0.354741741054399
1580421623.81004,-1.22975509269856,-0.0788586251621268,-0.0646982528419926
1580421623.81403,-1.36501106279088,-0.162355992980849,0.192141603723201
1580421623.81802,-1.49538414587625,-0.189700160219729,0.387457084000914
1580421623.82202,-1.58815899900816,-0.159914549477378,0.470466163118942
1580421623.82601,-1.64968337529564,-0.158937972075989,0.460700389105057
1580421623.83,-1.68532845044633,-0.169192034790569,0.409918364232851
1580421623.834,-1.67751583123522,-0.155519951171129,0.310307469291217
1580421623.83799,-1.60915541313802,-0.163332570382238,0.177004654001678
1580421623.84198,-1.48317692835889,-0.191653315022506,0.0319829098954756
1580421623.84597,-1.31667048142214,-0.244388494697489,-0.099855039291981
1580421623.84997,-1.11744869153887,-0.287357900358588,-0.195559624628061
1580421623.85396,-0.927016098268101,-0.300541695277333,-0.273197528038454
1580421623.85795,-0.784924086366065,-0.280033569848174,-0.338628213931488
1580421623.86195,-0.690684367132066,-0.220950637064163,-0.401129167620356
1580421623.86594,-0.627695124742504,-0.155031662470435,-0.465583276112001
1580421623.86993,-0.596444647898069,-0.0910658426794839,-0.519295033188373
1580421623.87393,-0.584237430380712,-0.0183108262760356,-0.54859235523003
1580421623.87792,-0.586678873884184,0.0754406042572668,-0.576913099870298
1580421623.88191,-0.585702296482795,0.186282139314869,-0.622812237735561
1580421623.88591,-0.588632028686961,0.305424582284274,-0.691660944533455
1580421623.8899,-0.593026626993209,0.411871519035628,-0.74927901121538
1580421623.89389,-0.619394216830701,0.5085526817731,-0.760509651331351
1580421623.89789,-0.692149233234149,0.606210421911957,-0.717540245670252
1580421623.90188,-0.807873655298696,0.700938429846648,-0.643808651865415
1580421623.90588,-0.952895399404898,0.782970931563288,-0.551033798733501
1580421623.90987,-1.09645227740902,0.853772793163959,-0.46655985351339
1580421623.91386,-1.21559472037842,0.902113374532693,-0.396246280613413
1580421623.91786,-1.28786144808118,0.89723048752575,-0.355718318455787
1580421623.92188,-1.30397497520409,0.829846646829939,-0.338139925230793
1580421623.92587,-1.28444342717632,0.707774471656368,-0.331792172121768
1580421623.92986,-1.26100556954299,0.579354543373771,-0.323979552910659
1580421623.93385,-1.2429388876173,0.469977874418248,-0.318120088502328
1580421623.93785,-1.2263370717937,0.39380483710994,-0.312260624093996
1580421623.94184,-1.20387579156176,0.331303883421072,-0.303959716182193
1580421623.94584,-1.15700007629511,0.272709239337757,-0.287357900358588
1580421623.94983,-1.10280003051804,0.232669565880826,-0.256595712214848
1580421623.95382,-1.04371709773404,0.207766842145418,-0.218509193560692
1580421623.95782,-0.990981918059052,0.186770428015564,-0.186282139314869
1580421623.96181,-0.942153047989624,0.153078507667658,-0.176028076600289
1580421623.9658,-0.902113374532693,0.106202792401007,-0.180422674906538
1580421623.9698,-0.867444876783399,0.0437018387121384,-0.190188448920424
1580421623.97379,-0.833264667734799,-0.0261234454871442,-0.195559624628061
1580421623.97778,-0.814709697108416,-0.102784771496147,-0.195559624628061
1580421623.98178,-0.812268253604945,-0.175539787899595,-0.182375829709315
1580421623.98577,-0.82545204852369,-0.23657587548638,-0.171145189593346
1580421623.98976,-0.854261081864653,-0.277592126344702,-0.147219043259327
1580421623.99376,-0.885511558709087,-0.299076829175251,-0.125246051728084
1580421623.99775,-0.920180056458381,-0.307866025787748,-0.106691081101701
1580421624.00174,-0.94850080109865,-0.301518272678722,-0.0866712443732354
1580421624.00573,-0.96559090562295,-0.280521858548868,-0.0681162737468526
1580421624.00973,-0.976821545738918,-0.23999389639124,-0.0485847257190812
1580421624.01372,-1.01149004348821,-0.188235294117646,-0.0388189517051956
1580421624.01771,-1.01441977569238,-0.123781185626001,-0.0300297550926985
1580421624.02171,-1.00318913557641,-0.0642099641412983,-0.0212405584802013
1580421624.0257,-0.979751277943084,-0.0144045166704814,-0.0251468680857556
1580421624.02969,-0.97242694743267,0.0368657969024184,-0.0334477759975584
1580421624.03369,-0.963637750820173,0.0842298008697639,-0.0510261692225527
1580421624.03768,-0.950453955901427,0.126222629129472,-0.0588387884336612
1580421624.04167,-0.917250324254216,0.155031662470435,-0.0612802319371326
1580421624.04567,-0.894300755321584,0.185793850614175,-0.070557717250324
1580421624.04966,-0.638437476157778,0.143801022354467,-0.0373540856031127
1580421624.05365,-1.13551537346456,0.479743648432134,-0.138429846646829
1580421624.05765,-1.09596398870832,0.188723582818341,-0.113527122911421
1580421624.06164,-0.971938658731975,0.167727168688486,-0.060303654535744
1580421624.06563,-0.968520637827115,0.213626306553749,-0.0720225833524069
1580421624.06963,-0.970473792629893,0.166262302586404,-0.0866712443732354
1580421624.07362,-0.969985503929198,0.151125352864881,-0.0861829556725411
1580421624.07762,-0.950942244602121,0.120363164721141,-0.0935072861829553
1580421624.08163,-0.939223315785458,0.0954604409857325,-0.0954604409857325
1580421624.08563,-0.926039520866713,0.0651865415426869,-0.0944838635843439
1580421624.08962,-0.909925993743801,0.034424353398947,-0.0817883573662925
1580421624.09361,-0.898207064927139,0.0046387426565957,-0.073975738155184
1580421624.09761,-0.887953002212559,-0.0144045166704814,-0.0622568093385212
1580421624.1016,-0.886488136110476,-0.0256351567864499,-0.0510261692225527
1580421624.10559,-0.887464713511864,-0.0236820019836728,-0.0441901274128327
1580421624.10959,-0.880628671702144,-0.0148928053711757,-0.0451667048142212
1580421624.11358,-0.873792629892424,0.00366216525520713,-0.0578622110322726
1580421624.11758,-0.870374608987564,0.0280766002899213,-0.0798352025635154
1580421624.12157,-0.871351186388953,0.0549324788281069,-0.103273060196841
1580421624.12556,-0.88355840390631,0.080811779964904,-0.139894712748912
1580421624.12956,-0.90406652933547,0.110109102006561,-0.164797436484321
1580421624.13355,-0.922133211261158,0.131593804837109,-0.190188448920424
1580421624.13754,-0.935805294880598,0.148683909361409,-0.214602883955138
1580421624.14154,-0.948012512397955,0.150637064164187,-0.218997482261386
1580421624.14553,-0.963149462119478,0.155031662470435,-0.218997482261386
1580421624.14952,-0.98609903105211,0.156984817273212,-0.197512779430838
1580421624.15352,-1.01734950789654,0.153566796368352,-0.182864118410009
1580421624.15751,-1.05641260395209,0.148683909361409,-0.164309147783626
1580421624.1615,-1.08766308079652,0.132570382238498,-0.151125352864881
1580421624.16549,-1.10572976272221,0.0988784618905925,-0.134523537041275
1580421624.16949,-1.10914778362707,0.0593270771343555,-0.116456855115587
1580421624.17348,-1.10133516441596,0.0280766002899213,-0.0837415121690697
1580421624.17747,-1.08766308079652,0.00854505226214997,-0.0407721065079727
1580421624.18147,-1.07496757457847,-0.0046387426565957,-0.000244144350347142
1580421624.18546,-1.0642252231632,-0.0158693827725642,0.0236820019836728
1580421624.18945,-1.05641260395209,-0.0290531776913099,0.0466315709163041
1580421624.19345,-1.06569008926528,-0.0461432822156098,0.0622568093385212
1580421624.19744,-1.08326848249027,-0.0646982528419926,0.0876478217746239
1580421624.20143,-1.11012436102846,-0.0622568093385212,0.115968566414892
1580421624.20543,-1.1403982604715,-0.0471198596169984,0.142824444953078
1580421624.20942,-1.17701991302357,-0.0217288471808956,0.173098344396124
1580421624.21341,-1.21266498817426,0.0183108262760356,0.202395666437781
1580421624.21741,-1.24782177462425,0.0642099641412983,0.228274967574578
1580421624.2214,-1.28395513847562,0.0988784618905925,0.252201113908598
1580421624.22539,-1.31813534752422,0.12133974212253,0.248783093003738
1580421624.22939,-1.33278400854505,0.129152361333638,0.235111009384298
1580421624.23338,-1.3371786068513,0.114991989013504,0.207766842145418
1580421624.23738,-1.3283894102388,0.0822766460669868,0.186770428015564
1580421624.24136,-1.31227588311589,0.0397955291065841,0.168703746089875
1580421624.24536,-1.30836957351034,0.000244144350347142,0.162355992980849
1580421624.24935,-1.31618219272145,-0.024170290684367,0.164309147783626
1580421624.25334,-1.32594796673533,-0.0324711985961699,0.174074921797512
1580421624.25734,-1.33424887464714,-0.034424353398947,0.195071335927366
1580421624.26133,-1.33669031815061,-0.0358892195010299,0.209231708247501
1580421624.26532,-1.33327229724575,-0.0422369726100555,0.220462348363469
1580421624.26932,-1.32594796673533,-0.0554207675288012,0.209719996948195
1580421624.27331,-1.32204165712978,-0.073975738155184,0.195559624628061
1580421624.2773,-1.32106507972839,-0.0886243991760125,0.184328984512092
1580421624.2813,-1.32643625543603,-0.099855039291981,0.179934386205844
1580421624.28529,-1.33229571984436,-0.0949721522850382,0.171633478294041
1580421624.28928,-1.34450293736172,-0.0891126878767068,0.165285725185015
1580421624.29328,-1.35719844357977,-0.073975738155184,0.190188448920424
1580421624.29727,-1.36403448538949,-0.0632333867399097,0.219974059662775
1580421624.30127,-1.37819485770962,-0.0510261692225527,0.254642557412069
1580421624.30526,-1.39137865262837,-0.0368657969024184,0.28101014724956
1580421624.30925,-1.41335164415961,-0.0148928053711757,0.305424582284274
1580421624.31325,-1.44753185320821,0.0222171358815899,0.344487678339817
1580421624.31724,-1.48464179446098,0.0559090562294955,0.391363393606468
1580421624.32126,-1.51442740520333,0.0725108720531011,0.42798504615854
1580421624.32525,-1.53737697413596,0.0817883573662925,0.451422903791865
1580421624.32924,-1.52907606622415,0.0690928511482412,0.448004882887005
1580421624.33324,-1.49391927977417,0.0598153658350498,0.423102159151597
1580421624.33723,-1.45143816281376,0.0437018387121384,0.3972228580148
1580421624.34123,-1.40993362325475,0.0251468680857556,0.353765163653009
1580421624.34522,-1.36208133058671,-0.0251468680857556,0.314213778896772
1580421624.34921,-1.30153353170062,-0.0993667505912867,0.280033569848172
1580421624.35321,-1.24000915541314,-0.180910963607232,0.223392080567635
1580421624.3572,-1.19069199664301,-0.240970473792629,0.177004654001678
1580421624.36119,-1.16139467460136,-0.274662394140536,0.135988403143358
1580421624.36519,-1.14772259098192,-0.277103837644008,0.140383001449607
1580421624.36918,-1.14723430228122,-0.267338063630122,0.157961394674601
1580421624.37317,-1.1579766536965,-0.253177691309988,0.161379415579461
1580421624.37717,-1.18629739833677,-0.226321812771801,0.132570382238498
1580421624.38116,-1.2429388876173,-0.176516365300984,0.0651865415426869
1580421624.38515,-1.32692454413672,-0.0900892652780954,-0.031006332494087
1580421624.38915,-1.41286335545892,-0.00952162966353853,-0.146730754558632
1580421624.39314,-1.48854810406653,0.0744640268558783,-0.268802929732205
1580421624.39714,-1.52565804531929,0.148195620660715,-0.409430075532159
1580421624.40112,-1.53591210803387,0.198489356832226,-0.553963530937667
1580421624.40512,-1.52419317921721,0.248294804303043,-0.683360036621652
1580421624.40911,-1.49587243457694,0.297611963073166,-0.800061036087587
1580421624.4131,-1.47048142214084,0.359136339360646,-0.90064850843061
1580421624.4171,-1.45632104982071,0.408453498130768,-0.976333257038224
1580421624.42109,-1.45387960631724,0.43482108796826,-1.00807202258335
1580421624.42508,-1.45290302891585,0.445563439383534,-0.981704432745861
1580421624.42908,-1.45241474021515,0.436285954070343,-0.917250324254216
1580421624.43307,-1.45094987411307,0.406012054627297,-0.822522316319525
1580421624.43706,-1.44899671931029,0.363530937666894,-0.733165484092469
1580421624.44106,-1.44411383230335,0.29810025177386,-0.659433890287632
1580421624.44505,-1.45143816281376,0.215579461356526,-0.586190585183489
1580421624.44904,-1.47145799954223,0.122316319523918,-0.526131074998093
1580421624.45304,-1.50466163118944,0.0231937132829785,-0.478767071030747
1580421624.45703,-1.56227969787137,-0.0871595330739297,-0.418219272144656
1580421624.46102,-1.63356984817273,-0.187258716716258,-0.35034714274815
1580421624.46502,-1.68874647135119,-0.274662394140536,-0.287846189059282
1580421624.46901,-1.71902037079423,-0.333745326924545,-0.233646143282215
1580421624.47301,-1.72927443350881,-0.363042648966202,-0.183352407110704
1580421624.477,-1.73122758831159,-0.37427328908217,-0.127199206530861
1580421624.48099,-1.71609063859007,-0.373296711680782,-0.0861829556725411
1580421624.48498,-1.69021133745327,-0.360112916762036,-0.0554207675288012
1580421624.48897,-1.64089417868315,-0.340581368734265,-0.0549324788281069
1580421624.49297,-1.59987792782483,-0.313237201495385,-0.0666514076447697
1580421624.49696,-1.55886167696651,-0.280521858548868,-0.103273060196841
1580421624.50095,-1.51882200350957,-0.252689402609294,-0.144777599755855
1580421624.50495,-1.47829404135195,-0.226810101472495,-0.186282139314869
1580421624.50894,-1.44704356450752,-0.213138017853055,-0.230228122377355
1580421624.51293,-1.42067597467002,-0.213138017853055,-0.264896620126651
1580421624.51693,-1.38796063172351,-0.218509193560692,-0.284916456855116
1580421624.52092,-1.34840924696727,-0.228763256275272,-0.297123674372473
1580421624.52492,-1.31081101701381,-0.238040741588463,-0.309819180590525
1580421624.52891,-1.27125963225757,-0.245853360799572,-0.321049820706493
1580421624.5329,-1.23219653620203,-0.249271381704432,-0.328862439917602
1580421624.5369,-1.19703974975204,-0.249759670405126,-0.329350728618296
1580421624.54089,-1.15162890058747,-0.2434119172961,-0.323491264209965
1580421624.54488,-1.1062180514229,-0.226810101472495,-0.314213778896773
1580421624.54888,-1.0637369344625,-0.204348821240558,-0.305912870984971
1580421624.55287,-1.01832608529793,-0.173586633096818,-0.290287632562753
1580421624.55686,-0.972915236133364,-0.142336156252384,-0.280033569848174
1580421624.56088,-0.92457465476463,-0.102784771496147,-0.265873197528039
1580421624.56488,-0.884534981307699,-0.0661631189440754,-0.252201113908599
1580421624.56887,-0.843030441748684,-0.0324711985961699,-0.244876783398183
1580421624.57286,-0.800061036087587,0.0100099183642328,-0.246341649500266
1580421624.57686,-0.76392767223621,0.0422369726100555,-0.259525444419014
1580421624.58085,-0.7219348439765,0.0759288929579611,-0.271244373235676
1580421624.58484,-0.692149233234149,0.0988784618905925,-0.287846189059282
1580421624.58884,-0.655527580682078,0.126222629129472,-0.312260624093996
1580421624.59283,-0.626718547341115,0.151125352864881,-0.337163347829405
1580421624.59682,-0.592050049591821,0.162355992980849,-0.364995803768979
1580421624.60082,-0.557869840543221,0.168703746089875,-0.393804837109942
1580421624.60481,-0.52466620889601,0.167727168688486,-0.425055313954376
1580421624.6088,-0.488044556343938,0.166750591287098,-0.464118410009918
1580421624.6128,-0.455817502098116,0.162844281681544,-0.49390402075227
1580421624.61679,-0.420660715648127,0.156496528572518,-0.527595941100175
1580421624.62078,-0.380621042191196,0.148195620660715,-0.553475242236972
1580421624.62478,-0.344975967040513,0.140871290150301,-0.573495078965438
1580421624.62877,-0.309819180590525,0.130617227435721,-0.603768978408484
1580421624.63276,-0.280521858548868,0.116945143816281,-0.626230258640421
1580421624.63676,-0.2434119172961,0.108155947203784,-0.652109559777218
1580421624.64075,-0.215091172655832,0.0988784618905925,-0.656015869382772
1580421624.64474,-0.182864118410009,0.0920424200808725,-0.661875333791103
1580421624.64873,-0.159914549477378,0.080811779964904,-0.664805065995269
1580421624.65273,-0.137941557946135,0.073975738155184,-0.658457312886243
1580421624.65672,-0.115968566414892,0.0686045624475469,-0.634042877851529
1580421624.66071,-0.107179369802395,0.0642099641412983,-0.605722133211261
1580421624.66471,-0.0969253070878153,0.0568856336308841,-0.568123903257801
1580421624.6687,-0.0891126878767068,0.0490730144197755,-0.512947280079347
1580421624.67269,-0.0949721522850382,0.0388189517051956,-0.440192263675899
1580421624.67669,-0.10766765850309,0.0466315709163041,-0.360112916762036
1580421624.68068,-0.132570382238498,0.0686045624475469,-0.266361486228734
1580421624.68467,-0.168215457389181,0.104737926298924,-0.191165026321812
1580421624.68867,-0.217532616159303,0.147707331960021,-0.132082093537804
1580421624.69266,-0.271732661936371,0.189211871519035,-0.0905775539787896
1580421624.69666,-0.332280460822462,0.211673151750972,-0.048096437018387
1580421624.70065,-0.402594033722439,0.210208285648889,0.0148928053711757
1580421624.70464,-0.488532845044633,0.203372243839169,0.103273060196841
1580421624.70864,-0.575448233768215,0.192629892423895,0.206301976043335
1580421624.71263,-0.677012283512626,0.170656900892652,0.329350728618294
1580421624.71662,-0.763439383535516,0.128664072632944,0.473395895323108
1580421624.72064,-0.838635843442436,0.0612802319371326,0.643808651865417
1580421624.72463,-0.925551232166018,-0.0261234454871442,0.807873655298696
1580421624.72863,-1.0129549095903,-0.12475776302739,0.971938658731975
1580421624.73262,-1.11891355764095,-0.228763256275272,1.12819104295415
1580421624.73662,-1.24635690852216,-0.321049820706493,1.25368123903258
1580421624.74061,-1.36696421759365,-0.388433661402305,1.33278400854505
1580421624.7446,-1.48610666056306,-0.440192263675899,1.35866330968185
1580421624.7486,-1.55886167696651,-0.509529259174487,1.30690470740825
1580421624.75259,-1.59401846341649,-0.568123903257801,1.20241092545968
1580421624.75658,-1.58718242160677,-0.585214007782101,1.09352254520485
1580421624.76058,-1.57058060578317,-0.546639200427252,1.01197833218891
1580421624.76457,-1.53249408712901,-0.451422903791867,0.947035934996567
1580421624.76856,-1.46803997863737,-0.320073243305105,0.878675516899367
1580421624.77256,-1.35036240177005,-0.206301976043335,0.786877241168842
1580421624.77655,-1.19752803845273,-0.159914549477378,0.678477149614711
1580421624.78054,-1.04127565423056,-0.187258716716258,0.576424811169606
1580421624.78454,-0.913344014648661,-0.270756084534982,0.477790493629357
1580421624.78853,-0.826916914625773,-0.362066071564813,0.416266117341877
1580421624.79252,-0.803479056992447,-0.434821087968261,0.402105745021743
1580421624.79652,-0.831799801632716,-0.467536430914778,0.422125581750208
1580421624.80051,-0.898207064927139,-0.459235523002976,0.468513008316165
1580421624.8045,-0.975356679636835,-0.416754406042573,0.539803158617534
1580421624.80849,-1.04078736552987,-0.372320134279393,0.60425726710918
1580421624.81249,-1.08278019378958,-0.330327306019685,0.654062714579997
1580421624.81648,-1.09303425650416,-0.303471427481499,0.676035706111239
1580421624.82047,-1.08229190508888,-0.288334477759976,0.673594262607768
1580421624.82447,-1.05445944914931,-0.274174105439842,0.645761806668194
1580421624.82846,-1.02418554970626,-0.2434119172961,0.605722133211263
1580421624.83245,-0.990493629358358,-0.203372243839169,0.578377965972383
1580421624.83645,-0.969497215228504,-0.154543373769741,0.594491493095294
1580421624.84044,-0.988540474555581,-0.110597390707255,0.737071793698025
1580421624.84443,-1.08522163729305,-0.0783703364614325,0.872816052491036
1580421624.84843,-1.17067215991455,-0.0612802319371326,0.874769207293813
1580421624.85242,-1.22389562829023,-0.0886243991760125,0.733653772793165
1580421624.85642,-1.24586861982147,-0.164797436484321,0.494392309452962
1580421624.86041,-1.24391546501869,-0.277592126344702,0.243900205996795
1580421624.8644,-1.23414969100481,-0.358159761959259,0.0651865415426869
1580421624.8684,-1.18287937743191,-0.375738155184253,-0.0114747844663157
1580421624.87239,-1.13014419775692,-0.341557946135653,-0.0383306630045013
1580421624.87638,-1.14528114747845,-0.255619134813459,-0.109620813305867
1580421624.88037,-1.17701991302357,-0.123781185626001,-0.200442511635003
1580421624.88436,-1.22536049439231,0.0563973449301898,-0.226321812771801
1580421624.88836,-1.30055695429923,0.265384908827343,-0.163820859082932
1580421624.89235,-1.36989394979782,0.470466163118942,-0.0612802319371326
1580421624.89634,-1.38063630121309,0.594491493095294,-0.00708018616006711
1580421624.90034,-1.3288776989395,0.561287861448083,0.0231937132829785
1580421624.90433,-1.23317311360342,0.398199435416188,0.0837415121690697
1580421624.90832,-1.13990997177081,0.273197528038452,0.156984817273212
1580421624.91232,-1.10133516441596,0.277103837644006,0.204837109941252
1580421624.91631,-1.1237964446479,0.366948958571754,0.195559624628061
1580421624.92031,-1.17116044861524,0.442633707179368,0.116945143816281
1580421624.9243,-1.18287937743191,0.437750820172425,-0.0168459601739528
1580421624.92829,-1.15260547798886,0.35620660715648,-0.167727168688486
1580421624.93229,-1.07154955367361,0.231204699778743,-0.286381322957199
1580421624.93628,-0.987075608453498,0.0886243991760125,-0.370366979476616
1580421624.94027,-0.911879148546578,-0.0305180437933927,-0.409918364232853
1580421624.94427,-0.84596017395285,-0.102784771496147,-0.390386816205082
1580421624.94826,-0.802990768291753,-0.125246051728084,-0.35376516365301
1580421624.95225,-0.770275425345236,-0.10424963759823,-0.339604791332876
1580421624.95625,-0.747814145113297,-0.0690928511482412,-0.365972381170367
1580421624.96027,-0.73560692759594,-0.0314946211947813,-0.42212558175021
1580421624.96426,-0.735118638895246,-0.0192874036774242,-0.473884184023804
1580421624.96825,-0.743907835507743,-0.0153810940718699,-0.519783321889067
1580421624.97225,-0.753673609521631,-0.00659189745937283,-0.554940108339055
1580421624.97624,-0.759044785229268,0.0202639810788128,-0.580331120775158
1580421624.98023,-0.772716868848708,0.0793469138628211,-0.571541924162661
1580421624.98423,-0.81177996490425,0.174563210498206,-0.523201342793927
1580421624.98822,-0.885999847409781,0.298588540474555,-0.458258945601587
1580421624.99221,-0.967544060425727,0.42798504615854,-0.400640878919662
1580421624.99621,-1.05152971694514,0.539803158617534,-0.358648050659953
1580421625.0002,-1.12477302204929,0.633554589150837,-0.328862439917602
1580421625.00419,-1.19118028534371,0.699961852445259,-0.309330891889831
1580421625.00819,-1.22487220569161,0.715098802166782,-0.303471427481499
1580421625.01218,-1.23854428931105,0.662851911192494,-0.300541695277333
1580421625.01618,-1.23903257801175,0.548592355230031,-0.297611963073168
1580421625.02017,-1.22487220569161,0.411383230334934,-0.283451590753033
1580421625.02416,-1.20436408026245,0.289799343862057,-0.261478599221791
1580421625.02815,-1.1833676661326,0.202395666437781,-0.232669565880826
1580421625.03215,-1.16041809719997,0.151125352864881,-0.204837109941252
1580421625.03614,-1.13698023956664,0.131105516136415,-0.175051499198901
1580421625.04013,-1.11598382543679,0.138918135347524,-0.167238879987792
1580421625.04412,-1.09156939040207,0.153078507667658,-0.163820859082932
1580421625.04812,-1.06715495536736,0.159426260776684,-0.175051499198901
1580421625.05211,-1.03883421072709,0.145265888456549,-0.180422674906538
1580421625.0561,-1.01051346608682,0.11108567940795,-0.192141603723201
1580421625.0601,-0.987075608453498,0.0729991607537954,-0.196047913328755
1580421625.06409,-0.96559090562295,0.0324711985961699,-0.193606469825284
1580421625.06808,-0.94508278019379,-0.0183108262760356,-0.191165026321812
1580421625.07208,-0.939711604486153,-0.0622568093385212,-0.179446097505149
1580421625.07607,-0.939711604486153,-0.0988784618905925,-0.172610055695429
1580421625.08007,-0.946547646295873,-0.129152361333638,-0.165285725185015
1580421625.08406,-0.953383688105593,-0.140383001449607,-0.162355992980849
1580421625.08805,-0.964126039520867,-0.143312733653772,-0.157961394674601
1580421625.09205,-0.969497215228504,-0.138429846646829,-0.151613641565575
1580421625.09604,-0.970473792629893,-0.126710917830167,-0.142824444953078
1580421625.10003,-0.976821545738918,-0.114015411612115,-0.132570382238498
1580421625.10403,-0.984145876249332,-0.0866712443732354,-0.118410009918364
1580421625.10802,-0.96900892652781,-0.067139696345464,-0.11108567940795
1580421625.11201,-0.963637750820173,-0.0451667048142212,-0.105226214999618
1580421625.11601,-0.942153047989624,-0.0280766002899213,-0.10424963759823
1580421625.12002,-0.920180056458381,-0.0207522697795071,-0.0993667505912867
1580421625.12402,-0.908461127641718,-0.00268558785381856,-0.0935072861829553
1580421625.12801,-0.890882734416724,0.00659189745937283,-0.0861829556725411
1580421625.13201,-0.867444876783399,0.0285648889906156,-0.0798352025635154
1580421625.136,-0.826428625925079,0.00903334096284425,-0.0764171816586554
1580421625.13999,-0.679942015716792,-0.048096437018387,-0.0539559014267184
1580421625.14399,-0.960708018616007,0.433844510566871,-0.0827649347676811
1580421625.14798,-1.05787747005417,0.0573739223315783,-0.144777599755855
1580421625.15197,-0.888441290913253,0.0339360646982527,-0.041260395208667
1580421625.15597,-0.884046692607004,0.0969253070878153,-0.0578622110322726
1580421625.15996,-0.886488136110476,0.0959487296864268,-0.0563973449301898
1580421625.16395,-0.895765621423667,0.135500114442664,-0.0417486839093613
1580421625.16795,-0.890882734416724,0.145754177157244,-0.0271000228885327
1580421625.17194,-0.910414282444496,0.156496528572518,-0.0222171358815899
1580421625.17593,-0.912367437247273,0.140383001449607,-0.0183108262760356
1580421625.17993,-0.922133211261158,0.128175783932249,-0.0207522697795071
1580421625.18392,-0.929457541771573,0.115968566414892,-0.0290531776913099
1580421625.18791,-0.947524223697261,0.101319905394064,-0.0349126420996413
1580421625.19191,-0.952407110704204,0.0925307087815668,-0.0397955291065841
1580421625.1959,-0.95191882200351,0.0842298008697639,-0.044678416113527
1580421625.19989,-0.950942244602121,0.0896009765774011,-0.0427252613107498
1580421625.20388,-0.952895399404898,0.104737926298924,-0.0476081483176927
1580421625.20788,-0.948012512397955,0.129152361333638,-0.0559090562294955
1580421625.21187,-0.943129625391013,0.154543373769741,-0.0715342946517126
1580421625.21586,-0.940688181887541,0.180422674906538,-0.0847180895704582
1580421625.21986,-0.94508278019379,0.202883955138475,-0.0979018844892039
1580421625.22385,-0.94508278019379,0.214602883955138,-0.103761348897535
1580421625.22784,-0.944594491493095,0.220462348363469,-0.107179369802395
1580421625.23184,-0.94166475928893,0.218020904859998,-0.112550545510032
1580421625.23583,-0.93824673838407,0.213138017853055,-0.118898298619058
1580421625.23983,-0.939223315785458,0.207278553444723,-0.118410009918364
1580421625.24382,-0.94508278019379,0.194583047226672,-0.122316319523918
1580421625.24781,-0.952407110704204,0.178469520103761,-0.117433432516975
1580421625.2518,-0.966567483024338,0.159426260776684,-0.113527122911421
1580421625.2558,-0.98951705195697,0.128175783932249,-0.0979018844892039
1580421625.25979,-1.02320897230488,0.106202792401007,-0.0646982528419926
1580421625.26379,-1.05738918135348,0.0769054703593497,-0.024170290684367
1580421625.26778,-1.08424505989166,0.041260395208667,0.0168459601739528
1580421625.27177,-1.10328831921874,0.00366216525520713,0.0529793240253298
1580421625.27577,-1.11207751583123,-0.0334477759975584,0.0759288929579611
1580421625.27975,-1.12428473334859,-0.0666514076447697,0.0969253070878153
1580421625.28375,-1.13063248645762,-0.0910658426794839,0.110597390707255
1580421625.28774,-1.13600366216525,-0.104737926298924,0.134035248340581
1580421625.29173,-1.1408865491722,-0.113038834210727,0.171633478294041
1580421625.29573,-1.15309376668955,-0.11108567940795,0.222415503166246
1580421625.29972,-1.17604333562219,-0.105226214999618,0.27075608453498
1580421625.30371,-1.20436408026245,-0.100343327992675,0.316166933699549
1580421625.30771,-1.23756771190967,-0.0905775539787896,0.35278858625162
1580421625.3117,-1.26637674525063,-0.0822766460669868,0.384039063096054
1580421625.3157,-1.28737315938048,-0.0715342946517126,0.399664301518271
1580421625.31969,-1.30592813000687,-0.0573739223315783,0.397711146715494
1580421625.32368,-1.32350652323186,-0.0437018387121384,0.375738155184251
1580421625.32768,-1.32545967803464,-0.0305180437933927,0.331792172121766
1580421625.33167,-1.31569390402075,-0.0246585793850613,0.281986724650949
1580421625.33566,-1.30446326390478,-0.0231937132829785,0.238040741588463
1580421625.33966,-1.29811551079576,-0.0227054245822842,0.208743419546806
1580421625.34365,-1.30251010910201,-0.00708018616006711,0.180422674906538
1580421625.34764,-1.31471732661936,0.0192874036774242,0.150637064164187
1580421625.35164,-1.32790112153811,0.0568856336308841,0.131105516136415
1580421625.35563,-1.33571374074922,0.0905775539787896,0.116945143816281
1580421625.35965,-1.33815518425269,0.116456855115587,0.127687495231555
1580421625.36364,-1.33962005035477,0.124269474326695,0.137453269245441
1580421625.36764,-1.33815518425269,0.122316319523918,0.146730754558632
1580421625.37163,-1.33327229724575,0.112062256809338,0.138918135347524
1580421625.37562,-1.33522545204852,0.0900892652780954,0.129152361333638
1580421625.37962,-1.33278400854505,0.063721675440604,0.128175783932249
1580421625.38361,-1.3283894102388,0.0280766002899213,0.138918135347524
1580421625.3876,-1.32155336842908,-0.00415045395590141,0.149172198062104
1580421625.3916,-1.32106507972839,-0.0251468680857556,0.150637064164187
1580421625.39559,-1.32448310063325,-0.0329594872968642,0.148683909361409
1580421625.39958,-1.35866330968185,-0.0163576714732585,0.169192034790569
1580421625.40358,-1.40993362325475,0.0148928053711757,0.213626306553749
1580421625.40757,-1.45876249332418,0.0383306630045013,0.272220950637063
1580421625.41156,-1.49782558937972,0.0534676127260241,0.329350728618294
1580421625.41556,-1.53200579842832,0.0715342946517126,0.368902113374531
1580421625.41955,-1.53933012893873,0.0813000686655982,0.399176012817577
1580421625.42354,-1.53249408712901,0.0803234912642097,0.429449912260623
1580421625.42754,-1.51003280689708,0.0627450980392155,0.433844510566871
1580421625.43153,-1.47048142214084,0.0256351567864499,0.41773098344396
1580421625.43553,-1.42604715037766,-0.0231937132829785,0.373785000381474
1580421625.43951,-1.37672999160754,-0.0798352025635154,0.330815594720377
1580421625.44351,-1.31960021362631,-0.151125352864881,0.329350728618294
1580421625.4475,-1.27956054016938,-0.216556038757915,0.343511100938429
1580421625.45149,-1.25758754863813,-0.271244373235676,0.360601205462729
1580421625.45549,-1.25319295033188,-0.315678644998856,0.353765163653009
1580421625.45948,-1.25563439383536,-0.355718318455787,0.313237201495383
1580421625.46347,-1.2429388876173,-0.404058899824522,0.261966887922483
1580421625.46747,-1.22194247348745,-0.434821087968261,0.179934386205844
1580421625.47146,-1.21803616388189,-0.430914778362707,0.0935072861829553
1580421625.47546,-1.23854428931105,-0.379644464789807,0.0192874036774242
1580421625.47945,-1.29274433508812,-0.290775921263448,-0.0529793240253298
1580421625.48344,-1.3718471046006,-0.194094758525978,-0.108644235904478
1580421625.48744,-1.45192645151446,-0.12475776302739,-0.171145189593346
1580421625.49143,-1.52321660181582,-0.0866712443732354,-0.270267795834288
1580421625.49542,-1.567650873579,-0.0593270771343555,-0.400640878919662
1580421625.49942,-1.5935301747158,-0.024170290684367,-0.53492027161059
1580421625.50341,-1.6018310826276,0.0417486839093613,-0.649179827573052
1580421625.5074,-1.59206530861372,0.136964980544747,-0.729747463187609
1580421625.5114,-1.6018310826276,0.237552452887769,-0.79127183947509
1580421625.51539,-1.61110856794079,0.341557946135651,-0.824475471122302
1580421625.51938,-1.61159685664149,0.439215686274508,-0.844495307850767
1580421625.52337,-1.59401846341649,0.520271610589763,-0.855725947966736
1580421625.52736,-1.56179140917067,0.57349507896544,-0.85963225757229
1580421625.53136,-1.53640039673457,0.589120317387657,-0.866956588082704
1580421625.53535,-1.50173189898528,0.56324101625086,-0.857190814068819
1580421625.53935,-1.47634088654917,0.47925535973144,-0.823498893720913
1580421625.54334,-1.46120393682765,0.35278858625162,-0.776134889753568
1580421625.54733,-1.46706340123598,0.191653315022506,-0.71851682307164
1580421625.55133,-1.51442740520333,0.0183108262760356,-0.627206836041809
1580421625.55532,-1.59694819562066,-0.140871290150301,-0.514900434882124
1580421625.55931,-1.67214465552758,-0.263920042725262,-0.409918364232853
1580421625.56331,-1.71950865949493,-0.34009308003357,-0.310795757991913
1580421625.5673,-1.74685282673381,-0.364995803768979,-0.23657587548638
1580421625.57129,-1.74489967193103,-0.349370565346762,-0.187258716716258
1580421625.57529,-1.72780956740673,-0.31958495460441,-0.147707331960021
1580421625.57928,-1.6960708018616,-0.282963302052339,-0.120851453421835
1580421625.58327,-1.6531013962005,-0.249759670405126,-0.101808194094758
1580421625.58727,-1.60280766002899,-0.216067750057221,-0.0979018844892039
1580421625.59126,-1.55007248035401,-0.190188448920424,-0.099855039291981
1580421625.59525,-1.50514991989014,-0.165285725185015,-0.102784771496147
1580421625.59927,-1.46755168993668,-0.143801022354467,-0.112062256809338
1580421625.60327,-1.44313725490196,-0.125246051728084,-0.118898298619058
1580421625.60726,-1.41579308766308,-0.104737926298924,-0.132082093537804
1580421625.61125,-1.38649576562142,-0.0910658426794839,-0.161867704280155
1580421625.61525,-1.35280384527352,-0.0720225833524069,-0.195559624628061
1580421625.61924,-1.30495155260548,-0.0607919432364383,-0.234134431982909
1580421625.62323,-1.25661097123674,-0.0524910353246355,-0.273685816739148
1580421625.62723,-1.20289921416037,-0.0515144579232469,-0.299076829175251
1580421625.63122,-1.14821087968261,-0.0563973449301898,-0.308842603189136
1580421625.63522,-1.0979171435111,-0.0690928511482412,-0.313237201495385
1580421625.63921,-1.0383459220264,-0.0769054703593497,-0.307866025787748
1580421625.6432,-0.990981918059052,-0.0847180895704582,-0.303959716182193
1580421625.64719,-0.947035934996567,-0.0861829556725411,-0.296147096971085
1580421625.65119,-0.906019684138247,-0.0837415121690697,-0.286381322957199
1580421625.65518,-0.867933165484093,-0.0622568093385212,-0.276127260242619
1580421625.65918,-0.833752956435493,-0.044678416113527,-0.270756084534982
1580421625.66317,-0.793713282978562,-0.0153810940718699,-0.269779507133594
1580421625.66716,-0.764904249637599,0.0168459601739528,-0.264896620126651
1580421625.67116,-0.73218890669108,0.0500495918211641,-0.261478599221791
1580421625.67515,-0.69800869764248,0.0827649347676811,-0.269779507133594
1580421625.67914,-0.664805065995269,0.108644235904478,-0.276615548943314
1580421625.68313,-0.627695124742504,0.134523537041275,-0.288822766460671
1580421625.68712,-0.594979781795987,0.154055085069047,-0.305424582284276
1580421625.69112,-0.561287861448081,0.171633478294041,-0.323979552910659
1580421625.69511,-0.52466620889601,0.177492942702372,-0.347417410543985
1580421625.69911,-0.49390402075227,0.178469520103761,-0.373785000381476
1580421625.7031,-0.462165255207141,0.175051499198901,-0.405523765926604
1580421625.70709,-0.429449912260624,0.161379415579461,-0.438239108873121
1580421625.71109,-0.401129167620356,0.148195620660715,-0.476325627527276
1580421625.71508,-0.365972381170367,0.131593804837109,-0.508064393072404
1580421625.71907,-0.335210193026628,0.116456855115587,-0.54517433432517
1580421625.72307,-0.302983138780805,0.0988784618905925,-0.581307698176547
1580421625.72706,-0.273197528038454,0.0793469138628211,-0.615487907225146
1580421625.73105,-0.249271381704432,0.0646982528419926,-0.641855497062638
1580421625.73505,-0.227298390173189,0.0456549935149155,-0.659922178988326
1580421625.73904,-0.213626306553749,0.0261234454871442,-0.667734798199435
1580421625.74303,-0.200930800335698,0.0144045166704814,-0.668223086900129
1580421625.74703,-0.195071335927366,0.00805676356145568,-0.651621271076523
1580421625.75102,-0.190188448920424,0.00903334096284425,-0.638925764858472
1580421625.75501,-0.189700160219729,0.0183108262760356,-0.630624856946669
1580421625.75903,-0.185793850614175,0.0329594872968642,-0.618417639429312
1580421625.76303,-0.183352407110704,0.0617685206378269,-0.621835660334172
1580421625.76702,-0.178957808804455,0.0930189974822611,-0.622323949034866
1580421625.77101,-0.172610055695429,0.132570382238498,-0.618417639429312
1580421625.77501,-0.164309147783626,0.170168612191958,-0.607186999313344
1580421625.779,-0.153078507667658,0.196047913328755,-0.582772564278629
1580421625.78299,-0.148683909361409,0.208255130846112,-0.53833829251545
1580421625.78699,-0.158937972075989,0.192141603723201,-0.45288776989395
1580421625.79098,-0.176028076600289,0.146730754558632,-0.341069657434959
1580421625.79497,-0.205325398641946,0.0822766460669868,-0.225833524071106
1580421625.79897,-0.246341649500266,0.0183108262760356,-0.10424963759823
1580421625.80296,-0.320073243305105,-0.0300297550926985,0.00659189745937283
1580421625.80695,-0.420172426947433,-0.0534676127260241,0.11108567940795
1580421625.81095,-0.541268024719615,-0.0764171816586554,0.218997482261386
1580421625.81494,-0.669199664301518,-0.104737926298924,0.321049820706492
1580421625.81893,-0.799084458686199,-0.147707331960021,0.416754406042571
1580421625.82293,-0.914808880750744,-0.206301976043335,0.495857175555045
1580421625.82692,-1.00709544518196,-0.296147096971085,0.564705882352943
1580421625.83092,-1.08570992599374,-0.40503547722591,0.634042877851531
1580421625.83491,-1.15651178759441,-0.525154497596704,0.735118638895248
1580421625.8389,-1.24538033112077,-0.627206836041809,0.884046692607004
1580421625.84289,-1.37624170290684,-0.705821316853589,1.07887388418402
1580421625.84688,-1.53102922102693,-0.744884412909132,1.31227588311589
1580421625.85088,-1.68679331654841,-0.726329442282749,1.58278782330053
1580421625.85487,-1.77907988097963,-0.659433890287632,1.8586709391928
1580421625.85887,-1.77712672617685,-0.577401388570992,2.12771801327535
1580421625.86286,-1.78054474708171,-0.467536430914778,2.20975051499199
1580421625.86685,-1.79324025329976,-0.322514686808576,2.01443503471427
1580421625.87084,-1.76101319905394,-0.172121766994735,1.65603112840467
1580421625.87484,-1.64333562218662,-0.037842374303807,1.28688487067979
1580421625.87883,-1.46364538033112,0.0524910353246355,0.977309834439613
1580421625.88283,-1.26100556954299,0.0769054703593497,0.741466392004273
1580421625.88682,-1.07496757457847,0.0280766002899213,0.571053635461968
1580421625.89081,-0.931898985275044,-0.0754406042572668,0.463141832608528
1580421625.89481,-0.841565575646602,-0.183840695811398,0.38355077439536
1580421625.8988,-0.79810788128481,-0.267826352330816,0.343999389639123
1580421625.90279,-0.820080872816053,-0.317631799801633,0.334233615625237
1580421625.90679,-0.894300755321584,-0.31958495460441,0.352300297550926
1580421625.91078,-0.976821545738918,-0.281986724650951,0.406012054627297
1580421625.91477,-1.05397116044862,-0.229739833676661,0.46900129701686
1580421625.91876,-1.08766308079652,-0.187258716716258,0.496833752956434
1580421625.92276,-1.06764324406805,-0.158937972075989,0.489509422446019
1580421625.92675,-1.0637369344625,-0.119874876020447,0.496345464255739
1580421625.93074,-1.1062180514229,-0.0676279850461583,0.492927443350879
1580421625.93474,-1.19948119325551,-0.0104982070649271,0.620370794232091
1580421625.93873,-1.32936598764019,0.0529793240253298,0.840100709544519
1580421625.94272,-1.4055390249485,0.0793469138628211,0.915785458152133
1580421625.94672,-1.34840924696727,0.0485847257190812,0.818127718013276
1580421625.95071,-1.23903257801175,0.00268558785381856,0.623300526436257
1580421625.9547,-1.15651178759441,0.00805676356145568,0.364995803768977
1580421625.9587,-1.06520180056458,0.0959487296864268,0.162355992980849
1580421625.96269,-1.01441977569238,0.225345235370412,0.0227054245822842
1580421625.96668,-1.03688105592432,0.322514686808574,-0.152590218966964
1580421625.97068,-1.14625772487983,0.416266117341877,-0.275638971541925
1580421625.97467,-1.32252994583047,0.545662623025866,-0.277592126344702
1580421625.97866,-1.45436789501793,0.669199664301519,-0.134523537041275
1580421625.98266,-1.44313725490196,0.679453727016099,-0.00903334096284425
1580421625.98665,-1.32399481193256,0.491462577248797,-0.0681162737468526
1580421625.99064,-1.18092622262913,0.070557717250324,-0.196536202029449
1580421625.99464,-1.0637369344625,-0.413336385137713,-0.266361486228734
1580421625.99866,-0.983169298847944,-0.614511329823758,-0.207278553444723
1580421626.00265,-0.992446784161135,-0.444098573281453,-0.073975738155184
1580421626.00664,-1.08424505989166,-0.116456855115587,0.0495613031204698
1580421626.01064,-1.17018387121385,0.155031662470435,0.0559090562294955
1580421626.01463,-1.19557488364996,0.280033569848172,-0.0515144579232469
1580421626.01862,-1.18141451132982,0.28101014724956,-0.197024490730143
1580421626.02262,-1.13551537346456,0.204348821240558,-0.33325703822385
1580421626.02661,-1.07887388418402,0.0935072861829553,-0.438239108873121
1580421626.0306,-1.00563057907988,-0.000244144350347142,-0.501716639963378
1580421626.0346,-0.918715190356298,-0.0583504997329669,-0.518318455786984
1580421626.03859,-0.836682688639659,-0.0754406042572668,-0.491462577248798
1580421626.04258,-0.772228580148013,-0.0798352025635154,-0.459235523002976
1580421626.04658,-0.738048371099412,-0.0930189974822611,-0.424567025253682
1580421626.05057,-0.753673609521631,-0.113527122911421,-0.396246280613413
1580421626.05457,-0.807873655298696,-0.128175783932249,-0.379156176089113
1580421626.05856,-0.871351186388953,-0.106691081101701,-0.411383230334936
1580421626.06255,-0.909925993743801,-0.0573739223315783,-0.489509422446021
1580421626.06655,-0.92457465476463,0.00903334096284425,-0.564217593652247
1580421626.07054,-0.930434119172961,0.0803234912642097,-0.577401388570992
1580421626.07453,-0.936781872281987,0.151125352864881,-0.525154497596704
1580421626.07855,-0.94850080109865,0.231692988479438,-0.461188677805753
1580421626.08255,-0.97584496833753,0.34253452353704,-0.410406652933547
1580421626.08654,-1.02027924010071,0.494880598153657,-0.374761577782865
1580421626.09053,-1.07985046158541,0.664805065995271,-0.345952544441902
1580421626.09453,-1.1403982604715,0.80836194399939,-0.322026398107882
1580421626.09852,-1.18580910963607,0.85963225757229,-0.310795757991913
1580421626.10251,-1.21461814297703,0.794201571679256,-0.298588540474556
1580421626.10651,-1.22438391699092,0.649668116273748,-0.272220950637065
1580421626.1105,-1.22096589608606,0.488044556343937,-0.234134431982909
1580421626.11449,-1.20582894636454,0.345464255741206,-0.186770428015564
1580421626.11849,-1.17897306782635,0.233646143282215,-0.154543373769741
1580421626.12248,-1.13893339436942,0.136964980544747,-0.12475776302739
1580421626.12647,-1.09840543221179,0.0729991607537954,-0.101319905394064
1580421626.13047,-1.05787747005417,0.0246585793850613,-0.0861829556725411
1580421626.13446,-1.01881437399863,-0.00415045395590141,-0.0769054703593497
1580421626.13845,-0.991470206759747,-0.0231937132829785,-0.0695811398489354
1580421626.14245,-0.969497215228504,-0.0368657969024184,-0.0759288929579611
1580421626.14644,-0.956313420309758,-0.0510261692225527,-0.0803234912642097
1580421626.15043,-0.944594491493095,-0.0690928511482412,-0.0905775539787896
1580421626.15443,-0.942641336690318,-0.0822766460669868,-0.0969253070878153
1580421626.15845,-0.943129625391013,-0.0988784618905925,-0.101808194094758
1580421626.16244,-0.949965667200733,-0.10766765850309,-0.0974135957885096
1580421626.16643,-0.956313420309758,-0.10766765850309,-0.0920424200808725
1580421626.17043,-0.96900892652781,-0.102784771496147,-0.0949721522850382
1580421626.17442,-0.983657587548638,-0.0949721522850382,-0.0969253070878153
1580421626.17841,-0.994888227664607,-0.0813000686655982,-0.0969253070878153
1580421626.18241,-1.00025940337224,-0.0715342946517126,-0.0974135957885096
1580421626.1864,-1.00123598077363,-0.0593270771343555,-0.0983901731898982
1580421626.19039,-1.01149004348821,-0.0495613031204698,-0.0876478217746239
1580421626.19439,-1.00709544518196,-0.0388189517051956,-0.0793469138628211
1580421626.19838,-0.987075608453498,-0.0334477759975584,-0.070557717250324
1580421626.20238,-0.96559090562295,-0.0246585793850613,-0.0563973449301898
1580421626.20637,-0.943129625391013,-0.0183108262760356,-0.0515144579232469
1580421626.21036,-0.918715190356298,-0.0197756923781185,-0.0461432822156098
1580421626.21436,-0.893324177920196,-0.0178225375753414,-0.0500495918211641
1580421626.21835,-0.872816052491036,-0.0158693827725642,-0.0559090562294955
1580421626.22234,-0.867933165484093,-0.0046387426565957,-0.0632333867399097
1580421626.22634,-0.841565575646602,0.024170290684367,-0.0607919432364383
1580421626.23033,-0.712657358663309,-0.0207522697795071,-0.0544441901274126
1580421626.23432,-0.891859311818113,0.290775921263446,-0.0695811398489354
1580421626.23831,-1.0383459220264,0.096437018387121,-0.103273060196841
1580421626.24231,-0.920180056458381,0.063721675440604,-0.0285648889906156
1580421626.2463,-0.90064850843061,0.0861829556725411,-0.027588311589227
1580421626.25029,-0.901136797131304,0.0847180895704582,-0.0393072404058898
1580421626.25428,-0.901136797131304,0.0954604409857325,-0.0461432822156098
1580421626.25828,-0.901625085831999,0.104737926298924,-0.0461432822156098
1580421626.26227,-0.934340428778516,0.130617227435721,-0.0539559014267184
1580421626.26627,-0.94166475928893,0.128664072632944,-0.0529793240253298
1580421626.27026,-0.93824673838407,0.144777599755855,-0.0510261692225527
1580421626.27425,-0.926527809567407,0.158449683375295,-0.0646982528419926
1580421626.27825,-0.915785458152133,0.174563210498206,-0.0793469138628211
1580421626.28224,-0.901625085831999,0.185793850614175,-0.0891126878767068
1580421626.28623,-0.891371023117419,0.194094758525978,-0.103761348897535
1580421626.29023,-0.885999847409781,0.200442511635003,-0.118898298619058
1580421626.29422,-0.885999847409781,0.198001068131532,-0.133058670939192
1580421626.29821,-0.885511558709087,0.192629892423895,-0.145754177157244
1580421626.30221,-0.892347600518807,0.182864118410009,-0.148195620660715
1580421626.3062,-0.895765621423667,0.175051499198901,-0.144777599755855
1580421626.31019,-0.90064850843061,0.172610055695429,-0.131105516136415
1580421626.31419,-0.90748455024033,0.170168612191958,-0.108644235904478
1580421626.31818,-0.916762035553521,0.172121766994735,-0.0954604409857325
1580421626.32217,-0.927016098268101,0.170656900892652,-0.0666514076447697
1580421626.32616,-0.938735027084764,0.170656900892652,-0.048096437018387
1580421626.33016,-0.951430533302815,0.171633478294041,-0.0354009308003356
1580421626.33415,-0.958266575112535,0.159426260776684,-0.0227054245822842
1580421626.33814,-0.970473792629893,0.145265888456549,-0.00219729915312428
1580421626.34214,-0.980239566643778,0.125246051728084,0.00903334096284425
1580421626.34613,-0.99293507286183,0.099855039291981,0.0305180437933927
1580421626.35012,-1.00904859998474,0.0715342946517126,0.0529793240253298
1580421626.35412,-1.02760357061112,0.0329594872968642,0.0734874494544897
1580421626.35811,-1.04420538643473,-0.00317387655451284,0.0866712443732354
1580421626.3621,-1.05885404745556,-0.0427252613107498,0.100343327992675
1580421626.3661,-1.07008468757153,-0.0798352025635154,0.110597390707255
1580421626.37009,-1.07399099717708,-0.120851453421835,0.108155947203784
1580421626.37408,-1.07154955367361,-0.147707331960021,0.101808194094758
1580421626.37808,-1.07106126497291,-0.168215457389181,0.0930189974822611
1580421626.38207,-1.07740901808194,-0.174563210498206,0.0886243991760125
1580421626.38607,-1.10035858701457,-0.172121766994735,0.0925307087815668
1580421626.39006,-1.12477302204929,-0.157961394674601,0.0974135957885096
1580421626.39405,-1.14186312657359,-0.151613641565575,0.114015411612115
1580421626.39807,-1.15992980849927,-0.138429846646829,0.149172198062104
1580421626.40206,-1.17311360341802,-0.122316319523918,0.186282139314869
1580421626.40606,-1.17555504692149,-0.0935072861829553,0.239017318989852
1580421626.41005,-1.17604333562219,-0.063721675440604,0.278568703746089
1580421626.41404,-1.16676585030899,-0.0354009308003356,0.3117723353933
1580421626.41804,-1.15211718928817,-0.0158693827725642,0.324956130312046
1580421626.42203,-1.14235141527428,-0.00219729915312428,0.319096665903714
1580421626.42602,-1.13649195086595,0.00415045395590141,0.283939879453726
1580421626.43002,-1.13942168307011,0.0129396505683985,0.228274967574578
1580421626.43401,-1.13942168307011,0.0290531776913099,0.170656900892652
1580421626.43801,-1.13893339436942,0.0451667048142212,0.112550545510032
1580421626.442,-1.14235141527428,0.0686045624475469,0.0783703364614325
1580421626.44599,-1.14576943617914,0.0959487296864268,0.0549324788281069
1580421626.44999,-1.15162890058747,0.129152361333638,0.0407721065079727
1580421626.45398,-1.16237125200275,0.161379415579461,0.0314946211947813
1580421626.45797,-1.18239108873121,0.186770428015564,0.034424353398947
1580421626.46197,-1.20241092545968,0.205813687342641,0.0407721065079727
1580421626.46596,-1.22340733958953,0.215579461356526,0.0573739223315783
1580421626.46995,-1.23805600061036,0.217044327458609,0.070557717250324
1580421626.47395,-1.25075150682841,0.215091172655832,0.0920424200808725
1580421626.47793,-1.26540016784924,0.210208285648889,0.115968566414892
1580421626.48193,-1.28346684977493,0.204348821240558,0.136964980544747
1580421626.48592,-1.30836957351034,0.204837109941252,0.163332570382238
1580421626.48992,-1.33083085374228,0.206301976043335,0.177981231403066
1580421626.49391,-1.35719844357977,0.203860532539863,0.205813687342641
1580421626.4979,-1.38649576562142,0.200930800335698,0.235111009384298
1580421626.5019,-1.40651560234989,0.189211871519035,0.265384908827343
1580421626.50589,-1.42458228427558,0.178957808804455,0.290287632562752
1580421626.50988,-1.42897688258183,0.161867704280155,0.306889448386357
1580421626.51388,-1.42995345998322,0.136964980544747,0.344487678339817
1580421626.51787,-1.43385976958877,0.102784771496147,0.385992217898831
1580421626.52186,-1.43825436789502,0.0485847257190812,0.417242694743265
1580421626.52586,-1.43483634699016,-0.0246585793850613,0.420660715648125
1580421626.52985,-1.41823453116655,-0.114015411612115,0.370855268177309
1580421626.53384,-1.40309758144503,-0.190188448920424,0.29126420996414
1580421626.53784,-1.39186694132906,-0.239017318989852,0.212161440451666
1580421626.54183,-1.38991378652628,-0.273197528038454,0.149660486762798
1580421626.54583,-1.38942549782559,-0.308842603189136,0.117433432516975
1580421626.54982,-1.37526512550546,-0.362066071564813,0.112062256809338
1580421626.55381,-1.36403448538949,-0.420660715648127,0.10766765850309
1580421626.5578,-1.36159304188602,-0.468513008316167,0.0925307087815668
1580421626.56179,-1.36549935149157,-0.488044556343938,0.0607919432364383
1580421626.56579,-1.3713588158999,-0.477790493629358,0.0168459601739528
1580421626.56978,-1.3796597238117,-0.448493171587701,-0.0349126420996413
1580421626.57377,-1.39821469443809,-0.404058899824522,-0.0749523155565726
1580421626.57777,-1.41579308766308,-0.345464255741208,-0.105226214999618
1580421626.58176,-1.41969939726864,-0.291264209964142,-0.131593804837109
1580421626.58575,-1.42507057297627,-0.237064164187075,-0.160891126878766
1580421626.58975,-1.43581292439155,-0.178469520103761,-0.214114595254443
1580421626.59374,-1.45925078202487,-0.127199206530861,-0.300053406576639
1580421626.59773,-1.48610666056306,-0.0979018844892039,-0.428473334859236
1580421626.60173,-1.4997787441825,-0.119874876020447,-0.582284275577935
1580421626.60572,-1.48805981536584,-0.167238879987792,-0.72535286488136
1580421626.60972,-1.46852826733806,-0.204837109941252,-0.824475471122302
1580421626.61371,-1.45973907072557,-0.183352407110704,-0.892347600518807
1580421626.6177,-1.46266880292973,-0.0896009765774011,-0.935317006179904
1580421626.6217,-1.47878233005264,0.0554207675288012,-0.954848554207675
1580421626.62569,-1.50759136339361,0.237064164187075,-0.952895399404898
1580421626.62968,-1.5505607690547,0.430914778362705,-0.913344014648661
1580421626.63368,-1.58034637979705,0.603280689707791,-0.853772793163959
1580421626.63769,-1.585229266804,0.735606927595942,-0.785412375066759
1580421626.64169,-1.56960402838178,0.790783550774396,-0.7219348439765
1580421626.64568,-1.53933012893873,0.765392538338293,-0.661875333791103
1580421626.64967,-1.51003280689708,0.659922178988328,-0.599862668802929
1580421626.65367,-1.48805981536584,0.504158083466852,-0.554940108339055
1580421626.65766,-1.4738994430457,0.339604791332874,-0.531013962005035
1580421626.66166,-1.47585259784848,0.191165026321812,-0.512947280079347
1580421626.66565,-1.47682917524987,0.0729991607537954,-0.485603112840467
1580421626.66964,-1.46950484473945,-0.0153810940718699,-0.446540016784924
1580421626.67364,-1.44557869840543,-0.0734874494544897,-0.403082322423133
1580421626.67763,-1.4226291294728,-0.10424963759823,-0.356206607156482
1580421626.68162,-1.40114442664225,-0.108644235904478,-0.318608377203022
1580421626.68562,-1.37575341420615,-0.0993667505912867,-0.291752498664836
1580421626.68961,-1.35182726787213,-0.0778820477607383,-0.288822766460671
1580421626.6936,-1.32790112153811,-0.0544441901274126,-0.288822766460671
1580421626.6976,-1.30739299610895,-0.0388189517051956,-0.288334477759976
1580421626.70159,-1.28834973678187,-0.0271000228885327,-0.292729076066225
1580421626.70559,-1.26686503395132,-0.0231937132829785,-0.294193942168308
1580421626.70958,-1.24196231021591,-0.0314946211947813,-0.296635385671779
1580421626.71357,-1.2175478751812,-0.0500495918211641,-0.296147096971085
1580421626.71756,-1.19411001754787,-0.0715342946517126,-0.287357900358588
1580421626.72155,-1.16530098420691,-0.096437018387121,-0.272709239337759
1580421626.72555,-1.13307392996109,-0.119386587319752,-0.272220950637065
1580421626.72954,-1.09498741130693,-0.140871290150301,-0.262943465323874
1580421626.73353,-1.05445944914931,-0.158937972075989,-0.251224536507211
1580421626.73753,-1.0124666208896,-0.170168612191958,-0.237064164187075
1580421626.74152,-0.968032349126421,-0.182375829709315,-0.218997482261386
1580421626.74551,-0.925551232166018,-0.189700160219729,-0.195559624628061
1580421626.74951,-0.877698939497979,-0.193118181124589,-0.176028076600289
1580421626.7535,-0.841077286945907,-0.195559624628061,-0.156496528572518
1580421626.75749,-0.809826810101473,-0.189211871519035,-0.138918135347524
1580421626.76149,-0.78101777676051,-0.182864118410009,-0.127687495231555
1580421626.76548,-0.755138475623713,-0.176516365300984,-0.123292896925307
1580421626.76947,-0.727306019684137,-0.166750591287098,-0.126710917830167
1580421626.77347,-0.69800869764248,-0.155031662470435,-0.132570382238498
1580421626.77746,-0.677012283512626,-0.144289311055161,-0.151613641565575
1580421626.78146,-0.653574425879301,-0.134035248340581,-0.179934386205844
