Timestamp_seconds,Accel_X_g,Accel_Y_g,Accel_Z_g
1580421620.23142,-0.981216144045167,-0.127687495231555,-0.197512779430838
1580421620.23542,-0.977798123140307,-0.125246051728084,-0.195559624628061
1580421620.23941,-0.976333257038224,-0.125734340428778,-0.195071335927366
1580421620.24341,-0.977798123140307,-0.122804608224612,-0.200442511635003
1580421620.24741,-0.97926298924239,-0.127199206530861,-0.194583047226672
1580421620.25141,-0.983657587548638,-0.122804608224612,-0.197512779430838
1580421620.25541,-0.985610742351415,-0.119874876020447,-0.202395666437781
1580421620.25941,-0.990005340657664,-0.12133974212253,-0.203372243839169
1580421620.26341,-0.988540474555581,-0.123781185626001,-0.207278553444723
1580421620.26741,-0.991470206759747,-0.125246051728084,-0.202883955138475
1580421620.2714,-0.994399938963912,-0.12133974212253,-0.198001068131532
1580421620.2754,-0.98951705195697,-0.115968566414892,-0.197512779430838
1580421620.2794,-0.98609903105211,-0.111573968108644,-0.201419089036392
1580421620.2834,-0.979751277943084,-0.11792172121767,-0.206790264744029
1580421620.2874,-0.976333257038224,-0.123292896925307,-0.204837109941252
1580421620.2914,-0.980239566643778,-0.122804608224612,-0.205325398641946
1580421620.2954,-0.97926298924239,-0.124269474326695,-0.197024490730143
1580421620.29938,-0.978286411841001,-0.126710917830167,-0.196047913328755
1580421620.30338,-0.979751277943084,-0.12475776302739,-0.195559624628061
1580421620.30737,-0.982192721446555,-0.127199206530861,-0.195559624628061
1580421620.31137,-0.985122453650721,-0.124269474326695,-0.196047913328755
1580421620.31537,-0.984634164950027,-0.124269474326695,-0.201907377737086
1580421620.31937,-0.985122453650721,-0.114015411612115,-0.213626306553749
1580421620.32337,-0.98268101014725,-0.102784771496147,-0.223880369268329
1580421620.32737,-0.975356679636835,-0.099855039291981,-0.227298390173189
1580421620.33137,-0.971450370031281,-0.101808194094758,-0.221438925764858
1580421620.33537,-0.970962081330587,-0.104737926298924,-0.213138017853055
1580421620.33937,-0.974868390936141,-0.120363164721141,-0.203372243839169
1580421620.34336,-0.984145876249332,-0.134035248340581,-0.201907377737086
1580421620.34736,-0.986587319752804,-0.139894712748912,-0.192141603723201
1580421620.35136,-0.989028763256275,-0.137453269245441,-0.186770428015564
1580421620.35536,-0.994399938963912,-0.129152361333638,-0.191165026321812
1580421620.35936,-0.986587319752804,-0.118898298619058,-0.200930800335698
1580421620.36336,-0.97926298924239,-0.119386587319752,-0.208255130846112
1580421620.36736,-0.973891813534753,-0.118898298619058,-0.200930800335698
1580421620.37135,-0.976821545738918,-0.119874876020447,-0.196536202029449
1580421620.37535,-0.976333257038224,-0.127199206530861,-0.197512779430838
1580421620.37936,-0.974380102235447,-0.136964980544747,-0.193118181124589
1580421620.38336,-0.980239566643778,-0.146730754558632,-0.187258716716258
1580421620.38736,-0.986587319752804,-0.152590218966964,-0.177981231403066
1580421620.39136,-0.990005340657664,-0.161379415579461,-0.181399252307926
1580421620.39536,-0.990493629358358,-0.167238879987792,-0.178957808804455
1580421620.39936,-0.990981918059052,-0.166750591287098,-0.165774013885709
1580421620.40336,-0.98951705195697,-0.161867704280155,-0.171633478294041
1580421620.40735,-0.989028763256275,-0.155519951171129,-0.169680323491264
1580421620.41135,-0.980239566643778,-0.155519951171129,-0.177004654001678
1580421620.41535,-0.974868390936141,-0.157473105973907,-0.178469520103761
1580421620.41935,-0.976821545738918,-0.157473105973907,-0.178957808804455
1580421620.42335,-0.979751277943084,-0.156984817273212,-0.179934386205844
1580421620.42735,-0.981216144045167,-0.160891126878766,-0.177004654001678
1580421620.43135,-0.979751277943084,-0.158449683375295,-0.177492942702372
1580421620.43535,-0.97926298924239,-0.155519951171129,-0.175539787899595
1580421620.43934,-0.978774700541695,-0.147707331960021,-0.178957808804455
1580421620.44334,-0.97584496833753,-0.141359578850995,-0.175051499198901
1580421620.44734,-0.97926298924239,-0.135988403143358,-0.183352407110704
1580421620.45134,-0.984634164950027,-0.129640650034332,-0.187258716716258
1580421620.45534,-0.985122453650721,-0.137941557946135,-0.189211871519035
1580421620.45932,-0.98268101014725,-0.148683909361409,-0.185793850614175
1580421620.46332,-0.986587319752804,-0.153078507667658,-0.182375829709315
1580421620.46732,-0.989028763256275,-0.151613641565575,-0.176028076600289
1580421620.47132,-0.98609903105211,-0.150637064164187,-0.177492942702372
1580421620.47531,-0.984634164950027,-0.156008239871824,-0.177981231403066
1580421620.47931,-0.976821545738918,-0.158937972075989,-0.189211871519035
1580421620.48331,-0.974380102235447,-0.162355992980849,-0.185305561913481
1580421620.48731,-0.977798123140307,-0.153566796368352,-0.177981231403066
1580421620.49131,-0.978774700541695,-0.146242465857938,-0.177492942702372
1580421620.49531,-0.978774700541695,-0.141359578850995,-0.183352407110704
1580421620.49931,-0.976333257038224,-0.143312733653772,-0.191165026321812
1580421620.50331,-0.97584496833753,-0.142824444953078,-0.184328984512092
1580421620.5073,-0.97584496833753,-0.144289311055161,-0.185793850614175
1580421620.5113,-0.97584496833753,-0.145265888456549,-0.188235294117646
1580421620.5153,-0.976333257038224,-0.148195620660715,-0.182864118410009
1580421620.5193,-0.974868390936141,-0.144289311055161,-0.179934386205844
1580421620.5233,-0.974868390936141,-0.136964980544747,-0.179446097505149
1580421620.5273,-0.976333257038224,-0.135988403143358,-0.189211871519035
1580421620.5313,-0.973403524834058,-0.141847867551689,-0.193606469825284
1580421620.5353,-0.976333257038224,-0.143312733653772,-0.189700160219729
1580421620.53931,-0.979751277943084,-0.147219043259327,-0.182864118410009
1580421620.5433,-0.980239566643778,-0.144289311055161,-0.183840695811398
1580421620.5473,-0.978286411841001,-0.144289311055161,-0.183840695811398
1580421620.5513,-0.97926298924239,-0.142336156252384,-0.184328984512092
1580421620.5553,-0.980727855344472,-0.142824444953078,-0.187747005416952
1580421620.5593,-0.979751277943084,-0.142336156252384,-0.185793850614175
1580421620.5633,-0.981704432745861,-0.145754177157244,-0.181887541008621
1580421620.5673,-0.984145876249332,-0.147219043259327,-0.181887541008621
1580421620.5713,-0.984145876249332,-0.147219043259327,-0.178469520103761
1580421620.57529,-0.981216144045167,-0.146242465857938,-0.178957808804455
1580421620.57929,-0.978286411841001,-0.147707331960021,-0.182375829709315
1580421620.58329,-0.977798123140307,-0.146730754558632,-0.183352407110704
1580421620.58729,-0.973891813534753,-0.144777599755855,-0.177492942702372
1580421620.59129,-0.973891813534753,-0.139894712748912,-0.179934386205844
1580421620.59529,-0.973403524834058,-0.140383001449607,-0.178469520103761
1580421620.59929,-0.971938658731975,-0.143312733653772,-0.177492942702372
1580421620.60329,-0.97242694743267,-0.139894712748912,-0.178469520103761
1580421620.60729,-0.97242694743267,-0.136964980544747,-0.184328984512092
1580421620.61128,-0.978286411841001,-0.132570382238498,-0.188235294117646
1580421620.61528,-0.979751277943084,-0.125734340428778,-0.187258716716258
1580421620.61926,-0.983657587548638,-0.128664072632944,-0.185793850614175
1580421620.62326,-0.982192721446555,-0.135988403143358,-0.191653315022506
1580421620.62726,-0.98609903105211,-0.144777599755855,-0.194094758525978
1580421620.63126,-0.98609903105211,-0.146730754558632,-0.186282139314869
1580421620.63526,-0.983657587548638,-0.147219043259327,-0.182864118410009
1580421620.63926,-0.978774700541695,-0.150637064164187,-0.185305561913481
1580421620.64325,-0.978286411841001,-0.147707331960021,-0.184817273212786
1580421620.64725,-0.97584496833753,-0.152101930266269,-0.187258716716258
1580421620.65125,-0.976333257038224,-0.153566796368352,-0.193118181124589
1580421620.65525,-0.976333257038224,-0.155031662470435,-0.191653315022506
1580421620.65925,-0.978286411841001,-0.147707331960021,-0.185305561913481
1580421620.66325,-0.97584496833753,-0.147707331960021,-0.184817273212786
1580421620.66725,-0.978286411841001,-0.147219043259327,-0.182864118410009
1580421620.67125,-0.976333257038224,-0.147707331960021,-0.190676737621118
1580421620.67525,-0.975356679636835,-0.147219043259327,-0.189700160219729
1580421620.67924,-0.974380102235447,-0.142336156252384,-0.183840695811398
1580421620.68324,-0.978286411841001,-0.137941557946135,-0.183352407110704
1580421620.68724,-0.978286411841001,-0.139894712748912,-0.183840695811398
1580421620.69124,-0.982192721446555,-0.136476691844052,-0.180910963607232
1580421620.69524,-0.983657587548638,-0.141847867551689,-0.184328984512092
1580421620.69925,-0.984634164950027,-0.143801022354467,-0.183840695811398
1580421620.70325,-0.984145876249332,-0.146730754558632,-0.183352407110704
1580421620.70725,-0.985610742351415,-0.149172198062104,-0.182375829709315
1580421620.71124,-0.983657587548638,-0.144777599755855,-0.184817273212786
1580421620.71524,-0.984145876249332,-0.142336156252384,-0.184328984512092
1580421620.71924,-0.976821545738918,-0.144289311055161,-0.188723582818341
1580421620.72324,-0.978286411841001,-0.145265888456549,-0.183840695811398
1580421620.72724,-0.976821545738918,-0.148683909361409,-0.185793850614175
1580421620.73124,-0.97584496833753,-0.153566796368352,-0.188723582818341
1580421620.73524,-0.977798123140307,-0.151613641565575,-0.184328984512092
1580421620.73924,-0.979751277943084,-0.152590218966964,-0.187747005416952
1580421620.74323,-0.979751277943084,-0.151613641565575,-0.183352407110704
1580421620.74723,-0.980727855344472,-0.152101930266269,-0.188235294117646
1580421620.75123,-0.980727855344472,-0.151613641565575,-0.193118181124589
1580421620.75523,-0.978286411841001,-0.149172198062104,-0.186770428015564
1580421620.75923,-0.978774700541695,-0.149172198062104,-0.190676737621118
1580421620.76323,-0.978774700541695,-0.149172198062104,-0.187747005416952
1580421620.76723,-0.981704432745861,-0.145754177157244,-0.183352407110704
1580421620.77123,-0.981704432745861,-0.151613641565575,-0.181887541008621
1580421620.77522,-0.982192721446555,-0.151613641565575,-0.178469520103761
1580421620.7792,-0.98609903105211,-0.152590218966964,-0.180422674906538
1580421620.7832,-0.987075608453498,-0.152590218966964,-0.185793850614175
1580421620.7872,-0.98268101014725,-0.152101930266269,-0.185305561913481
1580421620.7912,-0.980727855344472,-0.154543373769741,-0.185793850614175
1580421620.7952,-0.978286411841001,-0.156008239871824,-0.178469520103761
1580421620.7992,-0.974868390936141,-0.155519951171129,-0.181887541008621
1580421620.8032,-0.976821545738918,-0.153566796368352,-0.185793850614175
1580421620.8072,-0.974868390936141,-0.155031662470435,-0.187747005416952
1580421620.81119,-0.974380102235447,-0.153078507667658,-0.190188448920424
1580421620.81519,-0.980239566643778,-0.149660486762798,-0.182864118410009
1580421620.81919,-0.97926298924239,-0.151125352864881,-0.187747005416952
1580421620.82319,-0.983657587548638,-0.152590218966964,-0.188723582818341
1580421620.82719,-0.980239566643778,-0.153566796368352,-0.187258716716258
1580421620.83119,-0.978774700541695,-0.150637064164187,-0.190188448920424
1580421620.83519,-0.979751277943084,-0.147219043259327,-0.186282139314869
1580421620.83919,-0.978286411841001,-0.150148775463492,-0.188235294117646
1580421620.84318,-0.978286411841001,-0.147707331960021,-0.196536202029449
1580421620.84718,-0.981704432745861,-0.150637064164187,-0.196047913328755
1580421620.85118,-0.983657587548638,-0.152101930266269,-0.191653315022506
1580421620.85518,-0.981216144045167,-0.153078507667658,-0.192141603723201
1580421620.85919,-0.98609903105211,-0.154055085069047,-0.189211871519035
1580421620.86319,-0.98609903105211,-0.150637064164187,-0.189700160219729
1580421620.86719,-0.984145876249332,-0.149660486762798,-0.186282139314869
1580421620.87119,-0.987075608453498,-0.148683909361409,-0.181399252307926
1580421620.87519,-0.983657587548638,-0.150148775463492,-0.188723582818341
1580421620.87918,-0.982192721446555,-0.148683909361409,-0.196047913328755
1580421620.88318,-0.981216144045167,-0.144777599755855,-0.190188448920424
1580421620.88718,-0.979751277943084,-0.141847867551689,-0.190676737621118
1580421620.89118,-0.976821545738918,-0.144777599755855,-0.192629892423895
1580421620.89518,-0.97926298924239,-0.144289311055161,-0.191653315022506
1580421620.89918,-0.977309834439613,-0.143801022354467,-0.192141603723201
1580421620.90318,-0.978774700541695,-0.141847867551689,-0.189700160219729
1580421620.90718,-0.978286411841001,-0.142336156252384,-0.194583047226672
1580421620.91118,-0.981216144045167,-0.140871290150301,-0.193606469825284
1580421620.91517,-0.978774700541695,-0.139894712748912,-0.194094758525978
1580421620.91917,-0.979751277943084,-0.135011825741969,-0.194094758525978
1580421620.92317,-0.977309834439613,-0.134523537041275,-0.195071335927366
1580421620.92717,-0.980727855344472,-0.134523537041275,-0.195559624628061
1580421620.93117,-0.97926298924239,-0.136476691844052,-0.191165026321812
1580421620.93517,-0.979751277943084,-0.139894712748912,-0.191653315022506
1580421620.93915,-0.980239566643778,-0.144777599755855,-0.191165026321812
1580421620.94315,-0.979751277943084,-0.147219043259327,-0.188235294117646
1580421620.94714,-0.980239566643778,-0.149660486762798,-0.191165026321812
1580421620.95114,-0.982192721446555,-0.147219043259327,-0.191653315022506
1580421620.95514,-0.980239566643778,-0.145265888456549,-0.190676737621118
1580421620.95914,-0.977798123140307,-0.142824444953078,-0.194094758525978
1580421620.96314,-0.979751277943084,-0.143312733653772,-0.195559624628061
1580421620.96714,-0.976333257038224,-0.141359578850995,-0.191653315022506
1580421620.97114,-0.974868390936141,-0.144777599755855,-0.192141603723201
1580421620.97514,-0.97584496833753,-0.145265888456549,-0.191653315022506
1580421620.97914,-0.97926298924239,-0.143312733653772,-0.189700160219729
1580421620.98313,-0.980727855344472,-0.139894712748912,-0.185305561913481
1580421620.98713,-0.981216144045167,-0.140871290150301,-0.187258716716258
1580421620.99113,-0.978286411841001,-0.143801022354467,-0.194094758525978
1580421620.99513,-0.978286411841001,-0.148683909361409,-0.196536202029449
1580421620.99913,-0.977798123140307,-0.147707331960021,-0.198977645532921
1580421621.00313,-0.97584496833753,-0.147707331960021,-0.191653315022506
1580421621.00713,-0.974380102235447,-0.144777599755855,-0.188723582818341
1580421621.01112,-0.973891813534753,-0.143312733653772,-0.193606469825284
1580421621.01512,-0.980727855344472,-0.138918135347524,-0.191165026321812
1580421621.01913,-0.980727855344472,-0.143312733653772,-0.193118181124589
1580421621.02313,-0.98268101014725,-0.145265888456549,-0.193606469825284
1580421621.02713,-0.982192721446555,-0.152101930266269,-0.195559624628061
1580421621.03113,-0.983657587548638,-0.155519951171129,-0.193118181124589
1580421621.03513,-0.980727855344472,-0.153566796368352,-0.192141603723201
1580421621.03913,-0.981216144045167,-0.149172198062104,-0.191653315022506
1580421621.04313,-0.983169298847944,-0.146730754558632,-0.193606469825284
1580421621.04712,-0.985610742351415,-0.141847867551689,-0.196047913328755
1580421621.05112,-0.983657587548638,-0.137453269245441,-0.197024490730143
1580421621.05512,-0.979751277943084,-0.139406424048218,-0.198001068131532
1580421621.05912,-0.982192721446555,-0.135988403143358,-0.198489356832226
1580421621.06312,-0.985122453650721,-0.134035248340581,-0.191653315022506
1580421621.06712,-0.982192721446555,-0.134523537041275,-0.196047913328755
1580421621.07112,-0.983169298847944,-0.132082093537804,-0.192629892423895
1580421621.07512,-0.984145876249332,-0.132082093537804,-0.190676737621118
1580421621.07911,-0.985610742351415,-0.131593804837109,-0.191653315022506
1580421621.08311,-0.983169298847944,-0.130617227435721,-0.192141603723201
1580421621.08711,-0.978286411841001,-0.130128938735027,-0.191165026321812
1580421621.09111,-0.977798123140307,-0.131105516136415,-0.192629892423895
1580421621.09511,-0.976821545738918,-0.135011825741969,-0.196536202029449
1580421621.09909,-0.976333257038224,-0.134523537041275,-0.188235294117646
1580421621.10309,-0.980727855344472,-0.131593804837109,-0.189211871519035
1580421621.10709,-0.983657587548638,-0.134035248340581,-0.197024490730143
1580421621.11109,-0.98268101014725,-0.134523537041275,-0.195559624628061
1580421621.11508,-0.983169298847944,-0.139894712748912,-0.197024490730143
1580421621.11908,-0.984634164950027,-0.141847867551689,-0.189211871519035
1580421621.12308,-0.981704432745861,-0.139894712748912,-0.185793850614175
1580421621.12708,-0.98268101014725,-0.139406424048218,-0.193118181124589
1580421621.13108,-0.984145876249332,-0.138918135347524,-0.197512779430838
1580421621.13508,-0.982192721446555,-0.138429846646829,-0.197512779430838
1580421621.13908,-0.980239566643778,-0.138918135347524,-0.202395666437781
1580421621.14308,-0.98268101014725,-0.141359578850995,-0.200442511635003
1580421621.14707,-0.982192721446555,-0.143312733653772,-0.203372243839169
1580421621.15107,-0.983169298847944,-0.146242465857938,-0.198001068131532
1580421621.15507,-0.985122453650721,-0.140871290150301,-0.199954222934309
1580421621.15907,-0.986587319752804,-0.140383001449607,-0.201419089036392
1580421621.16307,-0.984145876249332,-0.133546959639887,-0.205325398641946
1580421621.16707,-0.980727855344472,-0.133546959639887,-0.204348821240558
1580421621.17107,-0.972915236133364,-0.132570382238498,-0.205325398641946
1580421621.17507,-0.970473792629893,-0.127687495231555,-0.200930800335698
1580421621.17905,-0.975356679636835,-0.129640650034332,-0.200930800335698
1580421621.18304,-0.973891813534753,-0.125246051728084,-0.201419089036392
1580421621.18704,-0.980239566643778,-0.135011825741969,-0.203372243839169
1580421621.19104,-0.985610742351415,-0.141847867551689,-0.198001068131532
1580421621.19504,-0.990493629358358,-0.149660486762798,-0.198001068131532
1580421621.19904,-0.990005340657664,-0.147219043259327,-0.196536202029449
1580421621.20304,-0.987075608453498,-0.148195620660715,-0.189700160219729
1580421621.20704,-0.988540474555581,-0.140383001449607,-0.196536202029449
1580421621.21104,-0.985122453650721,-0.134035248340581,-0.201419089036392
1580421621.21503,-0.98268101014725,-0.131105516136415,-0.208743419546806
1580421621.21903,-0.978286411841001,-0.129152361333638,-0.203372243839169
1580421621.22303,-0.978774700541695,-0.132082093537804,-0.202883955138475
1580421621.22703,-0.980727855344472,-0.130617227435721,-0.195071335927366
1580421621.23103,-0.979751277943084,-0.125734340428778,-0.195071335927366
1580421621.23503,-0.97926298924239,-0.125734340428778,-0.193118181124589
1580421621.23903,-0.978774700541695,-0.12475776302739,-0.196536202029449
1580421621.24303,-0.975356679636835,-0.127199206530861,-0.200442511635003
1580421621.24703,-0.97242694743267,-0.123781185626001,-0.194583047226672
1580421621.25102,-0.974868390936141,-0.125246051728084,-0.194583047226672
1580421621.25502,-0.976333257038224,-0.129152361333638,-0.190188448920424
1580421621.25903,-0.984634164950027,-0.128664072632944,-0.192629892423895
1580421621.26303,-0.990981918059052,-0.129640650034332,-0.196047913328755
1580421621.26703,-0.992446784161135,-0.122316319523918,-0.202883955138475
1580421621.27103,-0.991470206759747,-0.115968566414892,-0.207766842145418
1580421621.27503,-0.997329671168078,-0.11108567940795,-0.207278553444723
1580421621.27903,-0.99977111467155,-0.113527122911421,-0.202395666437781
1580421621.28303,-1.00025940337224,-0.11450370031281,-0.203372243839169
1580421621.28702,-1.00172426947433,-0.11450370031281,-0.199954222934309
1580421621.29102,-1.00123598077363,-0.107179369802395,-0.195559624628061
1580421621.29502,-0.996841382467384,-0.0939955748836496,-0.196047913328755
1580421621.29902,-0.988540474555581,-0.0871595330739297,-0.197512779430838
1580421621.30302,-0.979751277943084,-0.0935072861829553,-0.206301976043335
1580421621.30702,-0.977798123140307,-0.099855039291981,-0.214602883955138
1580421621.31102,-0.980239566643778,-0.104737926298924,-0.210208285648889
1580421621.31501,-0.982192721446555,-0.108644235904478,-0.203372243839169
1580421621.31901,-0.98609903105211,-0.109132524605172,-0.199465934233615
1580421621.32301,-0.990005340657664,-0.103273060196841,-0.203372243839169
1580421621.32701,-0.987075608453498,-0.100343327992675,-0.213138017853055
1580421621.33101,-0.988052185854887,-0.102784771496147,-0.216067750057221
1580421621.33501,-0.995864805065995,-0.105226214999618,-0.215091172655832
1580421621.33899,-0.998306248569467,-0.11108567940795,-0.214114595254443
1580421621.34299,-1.00074769207294,-0.124269474326695,-0.211673151750972
1580421621.34699,-0.999282825970855,-0.133546959639887,-0.207278553444723
1580421621.35098,-1.00025940337224,-0.135011825741969,-0.201419089036392
1580421621.35498,-0.994888227664607,-0.134523537041275,-0.194583047226672
1580421621.35898,-0.98951705195697,-0.132082093537804,-0.195559624628061
1580421621.36298,-0.981704432745861,-0.130617227435721,-0.195071335927366
1580421621.36698,-0.976821545738918,-0.127199206530861,-0.193606469825284
1580421621.37098,-0.974868390936141,-0.126222629129472,-0.198001068131532
1580421621.37498,-0.972915236133364,-0.129152361333638,-0.195071335927366
1580421621.37898,-0.970473792629893,-0.132570382238498,-0.196047913328755
1580421621.38297,-0.97584496833753,-0.129152361333638,-0.194583047226672
1580421621.38697,-0.97584496833753,-0.128664072632944,-0.196047913328755
1580421621.39097,-0.977309834439613,-0.128664072632944,-0.198001068131532
1580421621.39497,-0.977798123140307,-0.126710917830167,-0.205325398641946
1580421621.39897,-0.977309834439613,-0.122316319523918,-0.200442511635003
1580421621.40297,-0.980239566643778,-0.120851453421835,-0.200442511635003
1580421621.40697,-0.981216144045167,-0.119874876020447,-0.199465934233615
1580421621.41097,-0.983657587548638,-0.124269474326695,-0.205325398641946
1580421621.41496,-0.983657587548638,-0.123781185626001,-0.197512779430838
1580421621.41897,-0.987563897154192,-0.122316319523918,-0.199954222934309
1580421621.42297,-0.988540474555581,-0.117433432516975,-0.202883955138475
1580421621.42697,-0.987075608453498,-0.116456855115587,-0.207766842145418
1580421621.43097,-0.988540474555581,-0.113527122911421,-0.206301976043335
1580421621.43497,-0.98951705195697,-0.114991989013504,-0.202883955138475
1580421621.43897,-0.984145876249332,-0.118410009918364,-0.192629892423895
1580421621.44297,-0.98268101014725,-0.125734340428778,-0.192629892423895
1580421621.44697,-0.984145876249332,-0.132082093537804,-0.192629892423895
1580421621.45097,-0.984634164950027,-0.142824444953078,-0.194094758525978
1580421621.45496,-0.984634164950027,-0.148683909361409,-0.190188448920424
1580421621.45896,-0.983169298847944,-0.152590218966964,-0.192141603723201
1580421621.46296,-0.981704432745861,-0.155519951171129,-0.187258716716258
1580421621.46696,-0.979751277943084,-0.156496528572518,-0.187258716716258
1580421621.47096,-0.97584496833753,-0.158937972075989,-0.184328984512092
1580421621.47496,-0.973403524834058,-0.158449683375295,-0.184328984512092
1580421621.47896,-0.970473792629893,-0.163820859082932,-0.185793850614175
1580421621.48296,-0.967544060425727,-0.164309147783626,-0.188723582818341
1580421621.48695,-0.966567483024338,-0.164797436484321,-0.189211871519035
1580421621.49095,-0.966567483024338,-0.169192034790569,-0.179446097505149
1580421621.49495,-0.961684596017395,-0.170168612191958,-0.179446097505149
1580421621.49893,-0.95875486381323,-0.174074921797512,-0.180910963607232
1580421621.50293,-0.961196307316701,-0.175539787899595,-0.177004654001678
1580421621.50693,-0.961684596017395,-0.171633478294041,-0.171633478294041
1580421621.51093,-0.959731441214618,-0.165774013885709,-0.181399252307926
1580421621.51493,-0.969497215228504,-0.158937972075989,-0.180910963607232
1580421621.51892,-0.971938658731975,-0.152590218966964,-0.184817273212786
1580421621.52292,-0.977309834439613,-0.149660486762798,-0.186770428015564
1580421621.52692,-0.977309834439613,-0.142824444953078,-0.189211871519035
1580421621.53092,-0.980727855344472,-0.136476691844052,-0.189700160219729
1580421621.53492,-0.98609903105211,-0.136964980544747,-0.189700160219729
1580421621.53892,-0.98268101014725,-0.134035248340581,-0.190188448920424
1580421621.54292,-0.985122453650721,-0.136964980544747,-0.184817273212786
1580421621.54692,-0.984634164950027,-0.139894712748912,-0.189211871519035
1580421621.55092,-0.987075608453498,-0.150148775463492,-0.189700160219729
1580421621.55491,-0.985122453650721,-0.157473105973907,-0.182375829709315
1580421621.55891,-0.987563897154192,-0.172610055695429,-0.172610055695429
1580421621.56291,-0.98609903105211,-0.178469520103761,-0.166750591287098
1580421621.56691,-0.98268101014725,-0.183352407110704,-0.173586633096818
1580421621.57091,-0.982192721446555,-0.180422674906538,-0.172121766994735
1580421621.57491,-0.977798123140307,-0.179446097505149,-0.176516365300984
1580421621.57892,-0.971450370031281,-0.173586633096818,-0.177004654001678
1580421621.58292,-0.963637750820173,-0.175051499198901,-0.174563210498206
1580421621.58692,-0.962661173418784,-0.169192034790569,-0.173098344396124
1580421621.59091,-0.960708018616007,-0.169680323491264,-0.176028076600289
1580421621.59491,-0.963637750820173,-0.168703746089875,-0.180422674906538
1580421621.59891,-0.964614328221561,-0.168703746089875,-0.180910963607232
1580421621.60291,-0.964126039520867,-0.167727168688486,-0.184328984512092
1580421621.60691,-0.96900892652781,-0.161379415579461,-0.185793850614175
1580421621.61091,-0.966567483024338,-0.159426260776684,-0.185793850614175
1580421621.61491,-0.967544060425727,-0.155519951171129,-0.184817273212786
1580421621.61891,-0.966079194323644,-0.154543373769741,-0.185793850614175
1580421621.6229,-0.96217288471809,-0.145754177157244,-0.179934386205844
1580421621.6269,-0.961684596017395,-0.134523537041275,-0.185793850614175
1580421621.6309,-0.96559090562295,-0.119386587319752,-0.185793850614175
1580421621.6349,-0.971938658731975,-0.106202792401007,-0.193118181124589
1580421621.6389,-0.97584496833753,-0.10424963759823,-0.204348821240558
1580421621.6429,-0.984145876249332,-0.114991989013504,-0.215091172655832
1580421621.6469,-0.991470206759747,-0.120363164721141,-0.207766842145418
1580421621.6509,-1.0041657129778,-0.126710917830167,-0.199954222934309
1580421621.65489,-1.01344319829099,-0.12133974212253,-0.193118181124589
1580421621.65887,-1.01588464179446,-0.12475776302739,-0.195071335927366
1580421621.66287,-1.01100175478752,-0.134035248340581,-0.197512779430838
1580421621.66687,-1.00904859998474,-0.143312733653772,-0.195071335927366
1580421621.67087,-1.0041657129778,-0.152101930266269,-0.190188448920424
1580421621.67487,-0.998794537270161,-0.156008239871824,-0.191165026321812
1580421621.67887,-0.994888227664607,-0.158937972075989,-0.182864118410009
1580421621.68287,-0.990493629358358,-0.156008239871824,-0.173586633096818
1580421621.68686,-0.982192721446555,-0.154055085069047,-0.173586633096818
1580421621.69086,-0.974868390936141,-0.155519951171129,-0.174074921797512
1580421621.69486,-0.96559090562295,-0.155031662470435,-0.178957808804455
1580421621.69886,-0.958266575112535,-0.156984817273212,-0.181399252307926
1580421621.70286,-0.959243152513924,-0.153566796368352,-0.177492942702372
1580421621.70686,-0.965102616922255,-0.157961394674601,-0.186282139314869
1580421621.71086,-0.967544060425727,-0.159426260776684,-0.181887541008621
1580421621.71486,-0.973891813534753,-0.160891126878766,-0.185305561913481
1580421621.71885,-0.978286411841001,-0.159914549477378,-0.187258716716258
1580421621.72285,-0.979751277943084,-0.159426260776684,-0.186770428015564
1580421621.72685,-0.981704432745861,-0.156496528572518,-0.193606469825284
1580421621.73085,-0.983657587548638,-0.150637064164187,-0.190188448920424
1580421621.73485,-0.987075608453498,-0.147219043259327,-0.192141603723201
1580421621.73886,-0.985610742351415,-0.148683909361409,-0.190676737621118
1580421621.74286,-0.978774700541695,-0.154543373769741,-0.194583047226672
1580421621.74686,-0.978774700541695,-0.159426260776684,-0.197024490730143
1580421621.75086,-0.976821545738918,-0.164797436484321,-0.193606469825284
1580421621.75486,-0.97926298924239,-0.160891126878766,-0.184328984512092
1580421621.75885,-0.983169298847944,-0.151125352864881,-0.185793850614175
1580421621.76285,-0.98268101014725,-0.150148775463492,-0.198977645532921
1580421621.76685,-0.980239566643778,-0.156008239871824,-0.204348821240558
1580421621.77085,-0.97926298924239,-0.162844281681544,-0.210208285648889
1580421621.77485,-0.984634164950027,-0.169680323491264,-0.207278553444723
1580421621.77885,-0.98951705195697,-0.166750591287098,-0.193606469825284
1580421621.78285,-0.990005340657664,-0.166262302586404,-0.177981231403066
1580421621.78685,-0.988052185854887,-0.170656900892652,-0.170656900892652
1580421621.79084,-0.980727855344472,-0.167727168688486,-0.169680323491264
1580421621.79484,-0.981704432745861,-0.160891126878766,-0.173098344396124
1580421621.79884,-0.985122453650721,-0.145265888456549,-0.168215457389181
1580421621.80284,-0.983169298847944,-0.136476691844052,-0.165774013885709
1580421621.80684,-0.982192721446555,-0.131105516136415,-0.159426260776684
1580421621.81084,-0.983657587548638,-0.133058670939192,-0.161867704280155
1580421621.81484,-0.98609903105211,-0.138429846646829,-0.171145189593346
1580421621.81882,-0.983169298847944,-0.142336156252384,-0.188723582818341
1580421621.82282,-0.98609903105211,-0.147219043259327,-0.198001068131532
1580421621.82681,-0.983657587548638,-0.146730754558632,-0.198977645532921
1580421621.83081,-0.980239566643778,-0.147219043259327,-0.193118181124589
1580421621.83481,-0.978286411841001,-0.145265888456549,-0.185793850614175
1580421621.83881,-0.977798123140307,-0.145754177157244,-0.179446097505149
1580421621.84281,-0.978286411841001,-0.147707331960021,-0.182864118410009
1580421621.84681,-0.980239566643778,-0.149660486762798,-0.177492942702372
1580421621.85081,-0.988052185854887,-0.148683909361409,-0.175051499198901
1580421621.85481,-0.991470206759747,-0.150637064164187,-0.172121766994735
1580421621.8588,-0.99293507286183,-0.157961394674601,-0.171633478294041
1580421621.8628,-0.991470206759747,-0.160891126878766,-0.178957808804455
1580421621.8668,-0.987563897154192,-0.157961394674601,-0.185793850614175
1580421621.8708,-0.985610742351415,-0.151613641565575,-0.187747005416952
1580421621.8748,-0.981704432745861,-0.145265888456549,-0.186282139314869
1580421621.8788,-0.985610742351415,-0.138429846646829,-0.187747005416952
1580421621.8828,-0.986587319752804,-0.137453269245441,-0.186282139314869
1580421621.8868,-0.983169298847944,-0.137941557946135,-0.190676737621118
1580421621.89079,-0.986587319752804,-0.139894712748912,-0.191653315022506
1580421621.89479,-0.985610742351415,-0.142336156252384,-0.194583047226672
1580421621.8988,-0.985122453650721,-0.137941557946135,-0.198001068131532
1580421621.9028,-0.984145876249332,-0.137941557946135,-0.192629892423895
1580421621.9068,-0.98609903105211,-0.131593804837109,-0.188723582818341
1580421621.9108,-0.987075608453498,-0.131593804837109,-0.178469520103761
1580421621.9148,-0.984634164950027,-0.141847867551689,-0.179446097505149
1580421621.9188,-0.987563897154192,-0.148683909361409,-0.176028076600289
1580421621.9228,-0.98609903105211,-0.152590218966964,-0.174074921797512
1580421621.9268,-0.985122453650721,-0.148195620660715,-0.180910963607232
1580421621.93079,-0.988052185854887,-0.145265888456549,-0.180910963607232
1580421621.93479,-0.987075608453498,-0.137941557946135,-0.181399252307926
1580421621.93879,-0.980727855344472,-0.133546959639887,-0.184817273212786
1580421621.94279,-0.981704432745861,-0.116456855115587,-0.173586633096818
1580421621.94679,-0.98951705195697,-0.0896009765774011,-0.164309147783626
1580421621.95079,-0.995864805065995,-0.0651865415426869,-0.168703746089875
1580421621.95479,-0.993423361562524,-0.0627450980392155,-0.189211871519035
1580421621.95878,-0.990981918059052,-0.0861829556725411,-0.205325398641946
1580421621.96278,-1.0041657129778,-0.115480277714198,-0.196047913328755
1580421621.96678,-1.01881437399863,-0.135988403143358,-0.191165026321812
1580421621.97078,-1.02662699320974,-0.137941557946135,-0.180910963607232
1580421621.97478,-1.03248645761807,-0.12475776302739,-0.167238879987792
1580421621.97876,-1.03150988021668,-0.115480277714198,-0.172610055695429
1580421621.98276,-1.01490806439307,-0.114991989013504,-0.190188448920424
1580421621.98676,-1.01002517738613,-0.12475776302739,-0.192629892423895
1580421621.99076,-1.00856031128405,-0.132082093537804,-0.191653315022506
1580421621.99475,-1.00807202258335,-0.128664072632944,-0.191165026321812
1580421621.99875,-1.00758373388266,-0.122316319523918,-0.192141603723201
1580421622.00275,-1.00953688868544,-0.119386587319752,-0.192141603723201
1580421622.00675,-1.00856031128405,-0.11450370031281,-0.189700160219729
1580421622.01075,-1.01051346608682,-0.11792172121767,-0.197512779430838
1580421622.01475,-1.02320897230488,-0.119386587319752,-0.202883955138475
1580421622.01875,-1.03199816891737,-0.123781185626001,-0.207766842145418
1580421622.02275,-1.05201800564584,-0.11792172121767,-0.195071335927366
1580421622.02674,-1.07057297627222,-0.105226214999618,-0.186282139314869
1580421622.03074,-1.07838559548333,-0.109132524605172,-0.193118181124589
1580421622.03474,-1.07740901808194,-0.125734340428778,-0.214602883955138
1580421622.03874,-1.07740901808194,-0.140383001449607,-0.23999389639124
1580421622.04274,-1.10280003051804,-0.122316319523918,-0.224856946669718
1580421622.04674,-1.14821087968261,-0.0749523155565726,-0.208743419546806
1580421622.05074,-1.17994964522774,-0.0510261692225527,-0.186282139314869
1580421622.05474,-1.20192263675898,-0.077393759060044,-0.182864118410009
1580421622.05875,-1.21559472037842,-0.139894712748912,-0.187258716716258
1580421622.06274,-1.2346379797055,-0.194094758525978,-0.185305561913481
1580421622.06674,-1.26540016784924,-0.218509193560692,-0.198001068131532
1580421622.07074,-1.30104524299992,-0.218020904859998,-0.233646143282215
1580421622.07474,-1.33864347295338,-0.207278553444723,-0.263920042725262
1580421622.07874,-1.37233539330129,-0.189700160219729,-0.290775921263448
1580421622.08274,-1.40212100404364,-0.172121766994735,-0.317631799801633
1580421622.08674,-1.42995345998322,-0.179934386205844,-0.318608377203022
1580421622.09074,-1.45583276112001,-0.203860532539863,-0.320561532005799
1580421622.09473,-1.47048142214084,-0.232181277180132,-0.324956130312048
1580421622.09873,-1.48561837186236,-0.263431754024568,-0.329350728618296
1580421622.10273,-1.4992904554818,-0.287846189059282,-0.33325703822385
1580421622.10673,-1.50466163118944,-0.304936293583582,-0.334721904325933
1580421622.11073,-1.49294270237278,-0.308354314488442,-0.339604791332876
1580421622.11473,-1.47536430914778,-0.284428168154422,-0.355230029755093
1580421622.11873,-1.43678950179294,-0.250247959105822,-0.363530937666896
1580421622.12273,-1.38503089951934,-0.226321812771801,-0.388433661402305
1580421622.12672,-1.31422903791867,-0.220950637064163,-0.403082322423133
1580421622.13072,-1.24440375371939,-0.239505607690546,-0.413336385137713
1580421622.13472,-1.1750667582208,-0.277103837644008,-0.410894941634242
1580421622.1387,-1.12428473334859,-0.325932707713436,-0.386968795300222
1580421622.1427,-1.09498741130693,-0.383550774395362,-0.349858854047456
1580421622.1467,-1.08668650339513,-0.433356221866179,-0.287846189059282
1580421622.1507,-1.09498741130693,-0.448493171587701,-0.237064164187075
1580421622.1547,-1.11842526894026,-0.393316548409247,-0.177981231403066
1580421622.1587,-1.14821087968261,-0.245853360799572,-0.119874876020447
1580421622.16269,-1.14821087968261,-0.0363775082017241,-0.0876478217746239
1580421622.16669,-1.11354238193332,0.197024490730143,-0.0959487296864268
1580421622.17069,-1.06080720225834,0.428473334859234,-0.109620813305867
1580421622.17469,-0.996841382467384,0.633554589150837,-0.11108567940795
1580421622.17869,-0.914808880750744,0.743907835507745,-0.128664072632944
1580421622.18269,-0.814709697108416,0.743419546807051,-0.213138017853055
1580421622.18669,-0.747325856412603,0.704844739452202,-0.285404745555811
1580421622.19069,-0.747814145113297,0.681895170519571,-0.304448004882888
1580421622.19468,-0.77759975585565,0.697032120241094,-0.292729076066225
1580421622.19868,-0.795178149080645,0.739024948500802,-0.300053406576639
1580421622.20268,-0.80836194399939,0.779064621957733,-0.298588540474556
1580421622.20668,-0.811291676203556,0.78101777676051,-0.291264209964142
1580421622.21068,-0.804455634393836,0.753185320820936,-0.280033569848174
1580421622.21468,-0.796643015182728,0.696543831540399,-0.262943465323874
1580421622.21869,-0.79468986037995,0.627206836041811,-0.237064164187075
1580421622.22269,-0.808850232700085,0.557381551842528,-0.200442511635003
1580421622.22669,-0.827405203326467,0.486579690241854,-0.164797436484321
1580421622.23068,-0.852307927061876,0.4143129625391,-0.151125352864881
1580421622.23468,-0.882581826504921,0.350347142748149,-0.146730754558632
1580421622.23868,-0.908949416342413,0.297123674372472,-0.131593804837109
1580421622.24268,-0.927504386968796,0.252201113908598,-0.118898298619058
1580421622.24668,-0.944594491493095,0.217044327458609,-0.0939955748836496
1580421622.25068,-0.95533684290837,0.185793850614175,-0.067139696345464
1580421622.25468,-0.957289997711147,0.155031662470435,-0.0432135500114441
1580421622.25868,-0.956801709010453,0.127687495231555,-0.0173342488746471
1580421622.26268,-0.959243152513924,0.101808194094758,0.00122072175173571
1580421622.26667,-0.961196307316701,0.0861829556725411,0.0134279392690928
1580421622.27067,-0.969497215228504,0.0681162737468526,0.024170290684367
1580421622.27467,-0.979751277943084,0.0559090562294955,0.0324711985961699
1580421622.27867,-0.980727855344472,0.0393072404058898,0.0349126420996413
1580421622.28267,-0.990005340657664,0.0319829098954756,0.0285648889906156
1580421622.28667,-1.00318913557641,0.0187991149767299,0.0163576714732585
1580421622.29067,-1.0129549095903,0.00512703135728998,0.0109864957656214
1580421622.29466,-1.02272068360418,-0.00512703135728998,-0.00708018616006711
1580421622.29865,-1.03395132372015,-0.0197756923781185,-0.0197756923781185
1580421622.30264,-1.04957656214237,-0.0217288471808956,-0.0334477759975584
1580421622.30664,-1.06276035706111,-0.0266117341878385,-0.0461432822156098
1580421622.31064,-1.07301441977569,-0.0285648889906156,-0.0588387884336612
1580421622.31464,-1.08424505989166,-0.0295414663920042,-0.0734874494544897
1580421622.31864,-1.09596398870832,-0.0222171358815899,-0.0886243991760125
1580421622.32264,-1.11207751583123,-0.0217288471808956,-0.111573968108644
1580421622.32664,-1.12867933165484,-0.0144045166704814,-0.127199206530861
1580421622.33063,-1.14283970397497,-0.00903334096284425,-0.135988403143358
1580421622.33463,-1.16383611810483,-0.00317387655451284,-0.145265888456549
1580421622.33863,-1.18043793392843,-0.00122072175173571,-0.154055085069047
1580421622.34263,-1.19655146105135,0.000732433051041426,-0.161867704280155
1580421622.34663,-1.21217669947356,0.00122072175173571,-0.166262302586404
1580421622.35063,-1.23024338139925,-0.00708018616006711,-0.163820859082932
1580421622.35463,-1.25319295033188,-0.0187991149767299,-0.158937972075989
1580421622.35863,-1.27516594186313,-0.048096437018387,-0.151613641565575
1580421622.36262,-1.29372091248951,-0.0778820477607383,-0.143312733653772
1580421622.36662,-1.31374074921798,-0.115480277714198,-0.127687495231555
1580421622.37062,-1.337666895552,-0.152101930266269,-0.112062256809338
1580421622.37462,-1.35719844357977,-0.181887541008621,-0.0954604409857325
1580421622.3786,-1.37477683680476,-0.212649729152361,-0.0842298008697639
1580421622.3826,-1.3884489204242,-0.238040741588463,-0.063721675440604
1580421622.3866,-1.39382009613184,-0.259525444419014,-0.0510261692225527
1580421622.3906,-1.38796063172351,-0.279056992446785,-0.0432135500114441
1580421622.3946,-1.37331197070268,-0.304448004882888,-0.0339360646982527
1580421622.39859,-1.35573357747768,-0.330327306019685,-0.0314946211947813
1580421622.40259,-1.32936598764019,-0.366948958571756,-0.0305180437933927
1580421622.40659,-1.30397497520409,-0.401129167620356,-0.0329594872968642
1580421622.41059,-1.2688181887541,-0.433356221866179,-0.0373540856031127
1580421622.41459,-1.22536049439231,-0.460212100404364,-0.0471198596169984
1580421622.41859,-1.18190280003052,-0.488532845044633,-0.067139696345464
1580421622.42259,-1.13698023956664,-0.51783016708629,-0.0969253070878153
1580421622.42659,-1.10572976272221,-0.542732890821698,-0.122804608224612
1580421622.43058,-1.08229190508888,-0.556893263141832,-0.142336156252384
1580421622.43458,-1.07838559548333,-0.565194171053635,-0.166750591287098
1580421622.43858,-1.07496757457847,-0.563241016250858,-0.189211871519035
1580421622.44258,-1.07740901808194,-0.556404974441138,-0.221438925764858
1580421622.44658,-1.07936217288472,-0.547615777828641,-0.250736247806516
1580421622.45058,-1.08229190508888,-0.540291447318227,-0.274174105439842
1580421622.45458,-1.08619821469444,-0.532967116807813,-0.295170519569696
1580421622.45859,-1.08619821469444,-0.529060807202258,-0.308842603189136
1580421622.46259,-1.07740901808194,-0.535896849011978,-0.324467841611353
1580421622.46658,-1.06178377965972,-0.54517433432517,-0.338628213931488
1580421622.47058,-1.03199816891737,-0.556893263141832,-0.34692912184329
1580421622.47458,-0.997817959868772,-0.576913099870298,-0.349858854047456
1580421622.47858,-0.952895399404898,-0.594491493095292,-0.347905699244679
1580421622.48258,-0.90748455024033,-0.615976195925841,-0.341069657434959
1580421622.48658,-0.86646829938201,-0.643320363164721,-0.336186770428016
1580421622.49058,-0.833264667734799,-0.68091859311818,-0.324956130312048
1580421622.49458,-0.80152590218967,-0.719493400473029,-0.309330891889831
1580421622.49857,-0.782970931563288,-0.757091630426491,-0.286381322957199
1580421622.50257,-0.773205157549402,-0.789318684672313,-0.267826352330816
1580421622.50657,-0.769298847943848,-0.819104295414665,-0.253177691309988
1580421622.51057,-0.771740291447319,-0.843518730449379,-0.234622720683603
1580421622.51457,-0.78443579766537,-0.861585412375067,-0.221438925764858
1580421622.51857,-0.79468986037995,-0.87330434119173,-0.209719996948195
1580421622.52257,-0.807873655298696,-0.879652094300756,-0.209719996948195
1580421622.52657,-0.816174563210499,-0.877210650797284,-0.203372243839169
1580421622.53057,-0.811291676203556,-0.867444876783399,-0.209231708247501
1580421622.53456,-0.80152590218967,-0.853772793163959,-0.211673151750972
1580421622.53854,-0.789806973373008,-0.837659266041047,-0.222415503166246
1580421622.54254,-0.776623178454262,-0.825940337224385,-0.234134431982909
1580421622.54654,-0.765880827038988,-0.816662851911193,-0.248294804303043
1580421622.55054,-0.765880827038988,-0.814221408407722,-0.260502021820402
1580421622.55454,-0.765880827038988,-0.81177996490425,-0.280521858548868
1580421622.55854,-0.76392767223621,-0.806408789196613,-0.298588540474556
1580421622.56254,-0.769787136644542,-0.789318684672313,-0.372808422980087
1580421622.56653,-0.900160219729916,-0.633554589150835,-0.481208514534218
1580421622.57053,-0.975356679636835,-0.486091401541161,-0.414312962539102
1580421622.57453,-0.965102616922255,-0.505134660868238,-0.388921950102999
1580421622.57853,-0.969985503929198,-0.578866254673075,-0.492439154650187
1580421622.58253,-1.03248645761807,-0.719005111772335,-0.474372472724498
1580421622.58653,-1.13502708476387,-0.83570611123827,-0.257572289616236
1580421622.59053,-1.31813534752422,-0.608651865415426,-0.0925307087815668
1580421622.59453,-1.49294270237278,-0.096437018387121,0.0187991149767299
1580421622.59853,-1.49001297016861,0.323491264209963,0.0920424200808725
1580421622.60252,-1.35768673228046,0.536873426413369,0.0197756923781185
1580421622.60652,-1.16676585030899,0.537850003814757,-0.154055085069047
1580421622.61052,-0.975356679636835,0.405035477225908,-0.344487678339819
1580421622.61452,-0.870862897688259,0.241458762493323,-0.450446326390479
1580421622.61853,-0.881116960402839,0.111573968108644,-0.45288776989395
1580421622.62253,-0.988540474555581,0.0598153658350498,-0.373296711680782
1580421622.62653,-1.11110093842985,0.0607919432364383,-0.271732661936371
1580421622.63053,-1.20534065766384,0.0988784618905925,-0.135011825741969
1580421622.63452,-1.23756771190967,0.108155947203784,-0.0373540856031127
1580421622.63852,-1.1921568627451,0.0476081483176927,-0.027588311589227
1580421622.64252,-1.11207751583123,-0.0627450980392155,-0.0983901731898982
1580421622.64652,-1.05201800564584,-0.167238879987792,-0.150148775463492
1580421622.65052,-1.05006485084306,-0.239017318989852,-0.165285725185015
1580421622.65452,-1.07936217288472,-0.291752498664836,-0.229739833676661
1580421622.65852,-1.11696040283818,-0.350835431448845,-0.310795757991913
1580421622.66252,-1.15455863279164,-0.402105745021744,-0.345952544441902
1580421622.66651,-1.18141451132982,-0.437262531471733,-0.32300297550927
1580421622.67051,-1.19703974975204,-0.488044556343938,-0.310795757991913
1580421622.67451,-1.19801632715343,-0.531990539406424,-0.316166933699551
1580421622.67851,-1.23073167009995,-0.518806744487678,-0.264896620126651
1580421622.68251,-1.25563439383536,-0.43579766536965,-0.168215457389181
1580421622.68651,-1.24391546501869,-0.339604791332876,-0.0949721522850382
1580421622.69051,-1.18239108873121,-0.290287632562753,-0.0954604409857325
1580421622.69451,-1.08229190508888,-0.289311055161365,-0.119874876020447
1580421622.69849,-0.979751277943084,-0.308842603189136,-0.175539787899595
1580421622.70248,-0.891371023117419,-0.331303883421073,-0.231204699778743
1580421622.70648,-0.83912413214313,-0.345464255741208,-0.262455176623179
1580421622.71048,-0.823498893720913,-0.341557946135653,-0.271732661936371
1580421622.71448,-0.825940337224385,-0.320561532005799,-0.255619134813459
1580421622.71848,-0.821545738918136,-0.309330891889831,-0.256595712214848
1580421622.72248,-0.80494392309453,-0.318608377203022,-0.282475013351645
1580421622.72648,-0.785900663767453,-0.349370565346762,-0.323491264209965
1580421622.73048,-0.779552910658428,-0.400640878919662,-0.344975967040513
1580421622.73447,-0.795666437781339,-0.481208514534218,-0.342046234836348
1580421622.73847,-0.843030441748684,-0.548104066529335,-0.349858854047456
1580421622.74247,-0.92115663385977,-0.570077058060578,-0.334233615625239
1580421622.74647,-1.03150988021668,-0.512947280079347,-0.265873197528039
1580421622.75047,-1.11061264972915,-0.410894941634242,-0.221927214465552
1580421622.75447,-1.11354238193332,-0.355230029755093,-0.229739833676661
1580421622.75847,-1.07594415197986,-0.353276874952316,-0.251224536507211
1580421622.76247,-1.04615854123751,-0.372320134279393,-0.279545281147479
1580421622.76646,-1.05006485084306,-0.363042648966202,-0.294193942168308
1580421622.77046,-1.08033875028611,-0.32642099641413,-0.275150682841231
1580421622.77446,-1.08766308079652,-0.271732661936371,-0.251224536507211
1580421622.77847,-1.06031891355764,-0.227786678873883,-0.250736247806516
1580421622.78247,-1.0212558175021,-0.204348821240558,-0.23999389639124
1580421622.78647,-0.990493629358358,-0.215091172655832,-0.231692988479438
1580421622.79047,-0.976821545738918,-0.221927214465552,-0.264896620126651
1580421622.79447,-0.971450370031281,-0.213138017853055,-0.288822766460671
1580421622.79847,-0.971450370031281,-0.192141603723201,-0.285893034256505
1580421622.80246,-0.977309834439613,-0.168215457389181,-0.297123674372473
1580421622.80646,-0.98268101014725,-0.155031662470435,-0.321538109407188
1580421622.81046,-0.99293507286183,-0.149172198062104,-0.340581368734265
1580421622.81446,-1.00611886778058,-0.142336156252384,-0.34351110093843
1580421622.81846,-1.02369726100557,-0.135500114442664,-0.36401922636759
1580421622.82246,-1.03150988021668,-0.135500114442664,-0.376226443884947
1580421622.82646,-1.03199816891737,-0.142824444953078,-0.378667887388419
1580421622.83046,-1.01979095140002,-0.176028076600289,-0.378179598687725
1580421622.83446,-1.01051346608682,-0.229739833676661,-0.371831845578699
1580421622.83845,-0.999282825970855,-0.283939879453728,-0.363042648966202
1580421622.84245,-0.992446784161135,-0.33325703822385,-0.355718318455787
1580421622.84645,-0.980727855344472,-0.36743724727245,-0.338628213931488
1580421622.85045,-0.968520637827115,-0.373785000381476,-0.328374151216908
1580421622.85445,-0.954848554207675,-0.366948958571756,-0.317631799801633
1580421622.85843,-0.935317006179904,-0.35718318455787,-0.309819180590525
1580421622.86243,-0.912367437247273,-0.348882276646068,-0.297123674372473
1580421622.86643,-0.904554818036164,-0.355230029755093,-0.280033569848174
1580421622.87042,-0.907972838941024,-0.360112916762036,-0.271244373235676
1580421622.87442,-0.923598077363241,-0.359624628061342,-0.247318226901655
1580421622.87842,-0.950453955901427,-0.333745326924545,-0.220462348363469
1580421622.88242,-0.976333257038224,-0.305424582284276,-0.213626306553749
1580421622.88642,-0.989028763256275,-0.278080415045396,-0.227298390173189
1580421622.89042,-1.00123598077363,-0.262943465323874,-0.23315785458152
1580421622.89442,-1.01051346608682,-0.247318226901655,-0.236087586785686
1580421622.89842,-1.01197833218891,-0.228763256275272,-0.220950637064163
1580421622.90242,-1.0124666208896,-0.204348821240558,-0.203372243839169
1580421622.90641,-1.0124666208896,-0.182375829709315,-0.192141603723201
1580421622.91041,-1.01393148699168,-0.162355992980849,-0.191165026321812
1580421622.91441,-1.00318913557641,-0.147219043259327,-0.206301976043335
1580421622.91841,-0.984145876249332,-0.146730754558632,-0.236087586785686
1580421622.92241,-0.973403524834058,-0.148683909361409,-0.248294804303043
1580421622.92641,-0.971938658731975,-0.147707331960021,-0.257572289616236
1580421622.93041,-0.96900892652781,-0.153078507667658,-0.268802929732205
1580421622.9344,-0.964614328221561,-0.177981231403066,-0.264896620126651
1580421622.93841,-0.976821545738918,-0.215579461356526,-0.262455176623179
1580421622.94241,-0.996841382467384,-0.246341649500266,-0.254154268711376
1580421622.94641,-1.00660715648127,-0.266849774929428,-0.256595712214848
1580421622.95041,-0.999282825970855,-0.287357900358588,-0.265384908827345
1580421622.95441,-0.979751277943084,-0.305912870984971,-0.279056992446785
1580421622.95841,-0.962661173418784,-0.324956130312048,-0.285893034256505
1580421622.96241,-0.950942244602121,-0.328862439917602,-0.288334477759976
1580421622.96641,-0.943617914091707,-0.306889448386359,-0.282475013351645
1580421622.9704,-0.941176470588236,-0.274174105439842,-0.278568703746091
1580421622.9744,-0.937758449683376,-0.242923628595406,-0.276127260242619
1580421622.9784,-0.936293583581293,-0.227298390173189,-0.289311055161365
1580421622.9824,-0.937270160982681,-0.223392080567635,-0.295170519569696
1580421622.9864,-0.949477378500038,-0.223880369268329,-0.300541695277333
1580421622.9904,-0.961196307316701,-0.230228122377355,-0.295658808270391
1580421622.9944,-0.968520637827115,-0.240482185091935,-0.288334477759976
1580421622.9984,-0.973891813534753,-0.242923628595406,-0.282963302052339
1580421623.00239,-0.970962081330587,-0.249759670405126,-0.278568703746091
1580421623.00639,-0.964126039520867,-0.260502021820402,-0.274662394140536
1580421623.01039,-0.959243152513924,-0.277592126344702,-0.285404745555811
1580421623.01439,-0.94850080109865,-0.282475013351645,-0.300541695277333
1580421623.01837,-0.947524223697261,-0.280033569848174,-0.320073243305105
1580421623.02237,-0.944594491493095,-0.262943465323874,-0.331303883421073
1580421623.02637,-0.948989089799344,-0.261478599221791,-0.349858854047456
1580421623.03037,-0.961196307316701,-0.277592126344702,-0.328374151216908
1580421623.03437,-1.00856031128405,-0.286381322957199,-0.285893034256505
1580421623.03836,-1.04859998474098,-0.302006561379416,-0.280033569848174
1580421623.04236,-1.0637369344625,-0.32983901731899,-0.297123674372473
1580421623.04636,-1.06520180056458,-0.364507515068285,-0.302006561379416
1580421623.05036,-1.07496757457847,-0.36743724727245,-0.276127260242619
1580421623.05436,-1.07496757457847,-0.330815594720379,-0.282963302052339
1580421623.05836,-1.05836575875486,-0.294682230869002,-0.282963302052339
1580421623.06236,-1.05055313954376,-0.261478599221791,-0.270267795834288
1580421623.06636,-1.05445944914931,-0.223880369268329,-0.259525444419014
1580421623.07035,-1.04029907682918,-0.195559624628061,-0.24682993820096
1580421623.07435,-1.03053330281529,-0.168215457389181,-0.242435339894712
1580421623.07835,-1.02174410620279,-0.142824444953078,-0.252201113908599
1580421623.08235,-1.01686121919585,-0.116945143816281,-0.262943465323874
1580421623.08635,-1.0124666208896,-0.0993667505912867,-0.262943465323874
1580421623.09035,-1.0124666208896,-0.0842298008697639,-0.258060578316931
1580421623.09435,-1.02516212710765,-0.100343327992675,-0.242435339894712
1580421623.09836,-1.04225223163195,-0.120851453421835,-0.213626306553749
1580421623.10236,-1.0637369344625,-0.131593804837109,-0.194094758525978
1580421623.10635,-1.06129549095903,-0.145754177157244,-0.192629892423895
1580421623.11035,-1.04957656214237,-0.154543373769741,-0.201419089036392
1580421623.11435,-1.03932249942779,-0.136964980544747,-0.201907377737086
1580421623.11835,-1.0378576333257,-0.109620813305867,-0.213626306553749
1580421623.12235,-1.03297474631876,-0.099855039291981,-0.221927214465552
1580421623.12635,-1.05445944914931,-0.0930189974822611,-0.206301976043335
1580421623.13035,-1.08815136949721,-0.0979018844892039,-0.200930800335698
1580421623.13435,-1.11989013504234,-0.109620813305867,-0.191653315022506
1580421623.13835,-1.149187457084,-0.110597390707255,-0.185305561913481
1580421623.14234,-1.16969558251316,-0.109132524605172,-0.188723582818341
1580421623.14634,-1.18483253223468,-0.104737926298924,-0.198489356832226
1580421623.15034,-1.20289921416037,-0.104737926298924,-0.198977645532921
1580421623.15434,-1.22780193789578,-0.110597390707255,-0.184328984512092
1580421623.15834,-1.25856412603952,-0.101808194094758,-0.167238879987792
1580421623.16234,-1.2771190966659,-0.114015411612115,-0.161379415579461
1580421623.16634,-1.28932631418326,-0.123781185626001,-0.161379415579461
1580421623.17033,-1.2942092011902,-0.134035248340581,-0.171145189593346
1580421623.17433,-1.29665064469368,-0.147707331960021,-0.177492942702372
1580421623.17831,-1.30202182040131,-0.151613641565575,-0.169680323491264
1580421623.18231,-1.31227588311589,-0.147707331960021,-0.152101930266269
1580421623.18631,-1.3288776989395,-0.125734340428778,-0.141359578850995
1580421623.19031,-1.34645609216449,-0.114991989013504,-0.183352407110704
1580421623.19431,-1.35182726787213,-0.105226214999618,-0.206301976043335
1580421623.19831,-1.34206149385824,-0.0837415121690697,-0.265873197528039
1580421623.20231,-1.33034256504158,-0.0524910353246355,-0.301029983978028
1580421623.20631,-1.33034256504158,-0.0144045166704814,-0.322026398107882
1580421623.2103,-1.33131914244297,0.0153810940718699,-0.344975967040513
1580421623.2143,-1.34499122606241,0.0358892195010299,-0.349858854047456
1580421623.2183,-1.36842908369574,0.0588387884336612,-0.364995803768979
1580421623.2223,-1.39430838483253,0.0524910353246355,-0.38452735179675
1580421623.2263,-1.42653543907836,0.0324711985961699,-0.390875104905776
1580421623.2303,-1.47292286564431,0.0222171358815899,-0.386480506599527
1580421623.2343,-1.51296253910124,0.0153810940718699,-0.388433661402305
1580421623.23829,-1.5510490577554,0.0134279392690928,-0.39136339360647
1580421623.24229,-1.58620584420539,0.0217288471808956,-0.402594033722439
1580421623.24629,-1.61989776455329,0.0334477759975584,-0.417242694743267
1580421623.25029,-1.65065995269703,0.0656748302433812,-0.416266117341879
1580421623.25429,-1.67946898603799,0.11450370031281,-0.414801251239796
1580421623.2583,-1.70730144197757,0.169680323491264,-0.414312962539102
1580421623.2623,-1.71999694819562,0.219974059662775,-0.408941786831464
1580421623.2663,-1.72585641260395,0.248294804303043,-0.40503547722591
1580421623.2703,-1.71999694819562,0.231692988479438,-0.419195849546044
1580421623.27429,-1.72487983520256,0.217532616159303,-0.443121995880064
1580421623.27829,-1.74978255893797,0.233646143282215,-0.424567025253682
1580421623.28229,-1.78640421149004,0.28101014724956,-0.406012054627299
1580421623.28629,-1.8074006256199,0.320073243305103,-0.373296711680782
1580421623.29029,-1.8244907301442,0.331792172121766,-0.351812008850233
1580421623.29429,-1.8498817425803,0.320561532005797,-0.341069657434959
1580421623.29829,-1.87087815671016,0.289799343862057,-0.308354314488442
1580421623.30229,-1.8840619516289,0.238529030289158,-0.293705653467613
1580421623.30628,-1.87966735332265,0.166262302586404,-0.305424582284276
1580421623.31028,-1.88601510643168,0.103273060196841,-0.316166933699551
1580421623.31428,-1.8923628595407,0.073975738155184,-0.310307469291219
1580421623.31828,-1.88992141603723,0.0280766002899213,-0.34692912184329
1580421623.32228,-1.86990157930877,-0.0114747844663157,-0.378667887388419
1580421623.32628,-1.83132677195392,-0.0505378805218584,-0.445563439383536
1580421623.33028,-1.77859159227894,-0.0588387884336612,-0.51783016708629
1580421623.33428,-1.69411764705882,-0.0734874494544897,-0.577401388570992
1580421623.33826,-1.5681391622797,-0.135500114442664,-0.593514915693904
1580421623.34225,-1.42555886167697,-0.231692988479438,-0.56568245975433
1580421623.34625,-1.2863965819791,-0.373785000381476,-0.477302204928664
1580421623.35025,-1.15553521019303,-0.599374380102235,-0.409430075532159
1580421623.35425,-1.07887388418402,-0.895277332722973,-0.313725490196079
1580421623.35825,-1.10719462882429,-1.02223239490349,-0.360112916762036
1580421623.36225,-1.19606317235065,-0.67750057221332,-0.295658808270391
1580421623.36625,-1.21217669947356,-0.151125352864881,-0.0788586251621268
1580421623.37025,-1.11842526894026,0.122316319523918,-0.0290531776913099
1580421623.37424,-0.987075608453498,0.281986724650949,-0.269291218432899
1580421623.37824,-0.866956588082704,0.540779736018923,-0.515388723582818
1580421623.38224,-0.765880827038988,0.828381780727856,-0.592050049591821
1580421623.38624,-0.71509880216678,1.01832608529793,-0.560799572747387
1580421623.39024,-0.72535286488136,1.11256580453193,-0.510017547875181
1580421623.39424,-0.731212329289692,1.11940184634165,-0.467536430914778
1580421623.39824,-0.707774471656366,1.03590447852293,-0.389410238803693
1580421623.40224,-0.649668116273746,0.874769207293813,-0.303959716182193
1580421623.40623,-0.55542839703975,0.679942015716794,-0.269779507133594
1580421623.41023,-0.459235523002976,0.491950865949491,-0.274174105439842
1580421623.41423,-0.382574196993973,0.33569848172732,-0.279056992446785
1580421623.41824,-0.323979552910659,0.207766842145418,-0.292729076066225
1580421623.42224,-0.273685816739148,0.0993667505912867,-0.303959716182193
1580421623.42624,-0.236087586785686,0.0168459601739528,-0.310795757991913
1580421623.43024,-0.213138017853055,-0.0354009308003356,-0.306401159685665
1580421623.43424,-0.207766842145418,-0.0837415121690697,-0.302494850080111
1580421623.43824,-0.223392080567635,-0.120851453421835,-0.294682230869002
1580421623.44224,-0.257572289616236,-0.142824444953078,-0.268802929732205
1580421623.44623,-0.307866025787748,-0.137453269245441,-0.226810101472495
1580421623.45023,-0.372808422980087,-0.10083161669337,-0.171633478294041
1580421623.45423,-0.448493171587701,-0.0358892195010299,-0.121828030823224
1580421623.45823,-0.526131074998093,0.0402838178072784,-0.0744640268558783
1580421623.46223,-0.582772564278629,0.116945143816281,-0.0466315709163041
1580421623.46623,-0.614023041123064,0.172121766994735,-0.0207522697795071
1580421623.47023,-0.625741969939726,0.197512779430838,0.0114747844663157
1580421623.47423,-0.624277103837644,0.194094758525978,0.0510261692225527
1580421623.47822,-0.629159990844586,0.180910963607232,0.0954604409857325
1580421623.48222,-0.641855497062638,0.148683909361409,0.128175783932249
1580421623.48622,-0.657969024185549,0.108155947203784,0.149660486762798
1580421623.49022,-0.688731212329289,0.0568856336308841,0.162844281681544
1580421623.49422,-0.723887998779277,0.00122072175173571,0.166750591287098
1580421623.4982,-0.761486228732739,-0.0593270771343555,0.148683909361409
1580421623.5022,-0.802502479591059,-0.114991989013504,0.131105516136415
1580421623.5062,-0.844983596551462,-0.173098344396124,0.123781185626001
1580421623.5102,-0.891859311818113,-0.222415503166246,0.110597390707255
1580421623.51419,-0.930922407873656,-0.261966887922485,0.102296482795452
1580421623.51819,-0.96559090562295,-0.293217364766919,0.0910658426794839
1580421623.52219,-0.991958495460441,-0.306889448386359,0.0720225833524069
1580421623.52619,-1.01100175478752,-0.307866025787748,0.048096437018387
1580421623.53019,-1.0212558175021,-0.295658808270391,0.0168459601739528
1580421623.53419,-1.02858014801251,-0.270756084534982,-0.0100099183642328
1580421623.53819,-1.03981078812848,-0.241947051194018,-0.037842374303807
1580421623.54218,-1.05787747005417,-0.205325398641946,-0.0725108720531011
1580421623.54618,-1.08668650339513,-0.186770428015564,-0.106202792401007
1580421623.55018,-1.13063248645762,-0.172610055695429,-0.136964980544747
1580421623.55418,-1.19411001754787,-0.168215457389181,-0.166750591287098
1580421623.55818,-1.26442359044785,-0.172121766994735,-0.196536202029449
1580421623.56218,-1.33864347295338,-0.182375829709315,-0.226321812771801
1580421623.56618,-1.40846875715267,-0.203372243839169,-0.2434119172961
1580421623.57018,-1.4651102464332,-0.239017318989852,-0.269779507133594
1580421623.57417,-1.50563820859083,-0.277592126344702,-0.288822766460671
1580421623.57816,-1.54177157244221,-0.313237201495385,-0.305424582284276
1580421623.58215,-1.57497520408942,-0.338139925230793,-0.332280460822462
1580421623.58615,-1.6106202792401,-0.34692912184329,-0.351323720149539
1580421623.59015,-1.64577706569009,-0.35034714274815,-0.36401922636759
1580421623.59415,-1.68532845044633,-0.363530937666896,-0.376226443884947
1580421623.59815,-1.7214618142977,-0.401129167620356,-0.39136339360647
1580421623.60215,-1.75173571374075,-0.461188677805753,-0.380621042191196
1580421623.60615,-1.76638437476158,-0.53150225070573,-0.358159761959259
1580421623.61014,-1.76540779736019,-0.601327534905012,-0.327885862516213
1580421623.61414,-1.75466544594492,-0.674570840009155,-0.307866025787748
1580421623.61814,-1.74782940413519,-0.746837567711909,-0.287846189059282
1580421623.62214,-1.75222400244144,-0.833752956435493,-0.266849774929428
1580421623.62614,-1.77175555046922,-0.93141069657435,-0.261966887922485
1580421623.63014,-1.8074006256199,-1.04225223163195,-0.250247959105822
1580421623.63414,-1.84695201037614,-1.1662775616083,-0.250736247806516
1580421623.63814,-1.8757610437171,-1.28834973678187,-0.238040741588463
1580421623.64213,-1.87673762111849,-1.3972381170367,-0.245853360799572
1580421623.64613,-1.84792858777752,-1.48171206225681,-0.259525444419014
1580421623.65013,-1.79958800640879,-1.53493553063249,-0.275638971541925
1580421623.65413,-1.72878614480812,-1.56081483176928,-0.290775921263448
1580421623.65814,-1.64821850919356,-1.56472114137484,-0.335210193026628
1580421623.66214,-1.56374456397345,-1.56716258487831,-0.375249866483559
1580421623.66614,-1.47829404135195,-1.55739681086442,-0.420660715648127
1580421623.67014,-1.39479667353323,-1.5422598611429,-0.474860761425193
1580421623.67414,-1.30104524299992,-1.51931029221027,-0.542244602121004
1580421623.67813,-1.20729381246662,-1.48610666056306,-0.604745555809872
1580421623.68213,-1.11061264972915,-1.45827420462348,-0.658945601586938
1580421623.68613,-1.0295567254139,-1.43337148088808,-0.713633936064697
1580421623.69013,-0.963637750820173,-1.44216067750057,-0.753185320820936
1580421623.69413,-0.929457541771573,-1.47145799954223,-0.738048371099412
1580421623.69813,-0.90748455024033,-1.52224002441443,-0.683848325322346
1580421623.70213,-0.895765621423667,-1.58718242160677,-0.613046463721675
1580421623.70613,-0.901625085831999,-1.65505455100328,-0.523689631494621
1580421623.71013,-0.904554818036164,-1.7214618142977,-0.440192263675899
1580421623.71412,-0.906996261539636,-1.79226367589838,-0.361089494163425
1580421623.71812,-0.906019684138247,-1.85915922789349,-0.282475013351645
1580421623.72212,-0.902113374532693,-1.90066376745251,-0.216067750057221
1580421623.72612,-0.892347600518807,-1.92410162508583,-0.172121766994735
1580421623.73012,-0.871351186388953,-1.9358205539025,-0.151613641565575
1580421623.73412,-0.850354772259099,-1.93093766689555,-0.148683909361409
1580421623.7381,-0.827893492027162,-1.9016403448539,-0.151613641565575
1580421623.7421,-0.814709697108416,-1.86550698100252,-0.136964980544747
1580421623.74609,-0.813733119707027,-1.81960784313726,-0.134035248340581
1580421623.75009,-0.800061036087587,-1.77907988097963,-0.120363164721141
1580421623.75409,-0.803479056992447,-1.738551918822,-0.100343327992675
1580421623.75809,-0.939223315785458,-1.58913557640955,-0.363042648966202
1580421623.76209,-1.01149004348821,-1.17409018081941,-0.484626535439078
1580421623.76609,-1.02906843671321,-0.868421454184787,-0.264408331425956
1580421623.77009,-0.885999847409781,-0.976821545738918,-0.42212558175021
1580421623.77409,-0.899183642328527,-1.10328831921874,-0.838635843442436
1580421623.77808,-1.28395513847562,-0.745372701609826,-0.555916685740444
1580421623.78208,-1.75954833295186,0.245365072098878,0.0349126420996413
1580421623.78608,-2.01736476691844,1.16334782940413,0.484626535439077
1580421623.79008,-1.99783321889067,1.58474097810331,0.445563439383534
1580421623.79408,-1.77859159227894,1.44899671931029,0.202883955138475
1580421623.79808,-1.46462195773251,0.948989089799344,-0.048096437018387
1580421623.80208,-1.17701991302357,0.338139925230792,-0.340581368734265
1580421623.80608,-0.994888227664607,-0.208255130846112,-0.795178149080645
1580421623.81008,-0.985610742351415,-0.488532845044633,-1.12184328984512
1580421623.81407,-1.23903257801175,-0.388433661402305,-0.773693446250096
1580421623.81808,-1.44362554360266,-0.318608377203022,-0.372808422980087
1580421623.82208,-1.41237506675822,-0.494392309452964,-0.185305561913481
1580421623.82608,-1.28981460288396,-0.767833981841765,-0.254642557412071
1580421623.83008,-1.19411001754787,-0.931898985275044,-0.376714732585642
1580421623.83408,-1.1662775616083,-0.94508278019379,-0.465094987411307
1580421623.83808,-1.2087586785687,-0.90064850843061,-0.477302204928664
1580421623.84208,-1.32497138933394,-0.919691767757687,-0.327885862516213
1580421623.84608,-1.50075532158389,-1.02711528191043,-0.170168612191958
1580421623.85007,-1.71609063859007,-1.13502708476387,-0.0588387884336612
1580421623.85407,-1.81472495613031,-1.22536049439231,-0.034424353398947
1580421623.85807,-1.7556420233463,-1.22096589608606,0.0075684748607614
1580421623.86207,-1.61696803234913,-1.09352254520485,-0.0158693827725642
1580421623.86607,-1.47048142214084,-0.925062943465324,-0.0437018387121384
1580421623.87007,-1.34840924696727,-0.748790722514686,-0.0212405584802013
1580421623.87407,-1.24538033112077,-0.590585183489738,-0.0124513618677042
1580421623.87807,-1.11842526894026,-0.473884184023804,-0.0554207675288012
1580421623.88206,-0.95533684290837,-0.40845349813077,-0.157473105973907
1580421623.88606,-0.797619592584116,-0.383550774395362,-0.304448004882888
1580421623.89006,-0.692637521934843,-0.376714732585642,-0.437750820172427
1580421623.89406,-0.650156404974441,-0.363042648966202,-0.501228351262684
1580421623.89804,-0.667246509498741,-0.341069657434959,-0.510505836575875
1580421623.90204,-0.709727626459143,-0.315190356298162,-0.490974288548104
1580421623.90604,-0.748302433813992,-0.285404745555811,-0.464118410009918
1580421623.91004,-0.776623178454262,-0.261966887922485,-0.447516594186313
1580421623.91403,-0.796643015182728,-0.262943465323874,-0.444586861982147
1580421623.91803,-0.828381780727856,-0.271732661936371,-0.450446326390479
1580421623.92203,-0.872327763790341,-0.277103837644008,-0.469489585717556
1580421623.92603,-0.922621499961853,-0.271244373235676,-0.495857175555047
1580421623.93003,-0.968520637827115,-0.259525444419014,-0.516853589684901
1580421623.93403,-1.00709544518196,-0.23999389639124,-0.536385137712672
1580421623.93803,-1.0378576333257,-0.232669565880826,-0.532478828107118
1580421623.94203,-1.06471351186389,-0.226321812771801,-0.516853589684901
1580421623.94602,-1.08326848249027,-0.226321812771801,-0.496345464255741
1580421623.95002,-1.09596398870832,-0.244388494697489,-0.461676966506447
1580421623.95402,-1.09547570000763,-0.263431754024568,-0.429449912260624
1580421623.95802,-1.08815136949721,-0.291264209964142,-0.377203021286336
1580421623.96202,-1.08375677119097,-0.308354314488442,-0.300053406576639
1580421623.96602,-1.08131532768749,-0.321049820706493,-0.244388494697489
1580421623.97002,-1.06276035706111,-0.330815594720379,-0.231204699778743
1580421623.97402,-1.03541618982223,-0.359624628061342,-0.258548867017625
1580421623.97803,-1.00758373388266,-0.38110933089189,-0.276615548943314
1580421623.98203,-0.985610742351415,-0.387457084000916,-0.256107423514154
1580421623.98602,-0.976821545738918,-0.358159761959259,-0.223880369268329
1580421623.99002,-0.976333257038224,-0.308842603189136,-0.208743419546806
1580421623.99402,-0.971938658731975,-0.23657587548638,-0.207766842145418
1580421623.99802,-0.957778286411841,-0.167238879987792,-0.200930800335698
1580421624.00202,-0.957778286411841,-0.115968566414892,-0.196047913328755
1580421624.00602,-0.964614328221561,-0.0822766460669868,-0.206790264744029
1580421624.01002,-0.970473792629893,-0.0593270771343555,-0.232669565880826
1580421624.01402,-0.973403524834058,-0.0397955291065841,-0.256595712214848
1580421624.01801,-0.971938658731975,-0.0295414663920042,-0.260990310521096
1580421624.02201,-0.970962081330587,-0.031006332494087,-0.266361486228734
1580421624.02601,-0.967055771725033,-0.0451667048142212,-0.278080415045396
1580421624.03001,-0.967544060425727,-0.0666514076447697,-0.287357900358588
1580421624.03401,-0.966567483024338,-0.0891126878767068,-0.289311055161365
1580421624.03801,-0.971938658731975,-0.108155947203784,-0.293705653467613
1580421624.04201,-0.970473792629893,-0.126710917830167,-0.301029983978028
1580421624.04601,-0.974868390936141,-0.138429846646829,-0.295170519569696
1580421624.05,-0.970962081330587,-0.160402838178072,-0.297123674372473
1580421624.054,-0.976821545738918,-0.171633478294041,-0.297611963073168
1580421624.05798,-0.987075608453498,-0.177492942702372,-0.285404745555811
1580421624.06198,-0.994888227664607,-0.174074921797512,-0.256107423514154
1580421624.06598,-1.0036774242771,-0.169192034790569,-0.243900205996795
1580421624.06998,-0.99293507286183,-0.174563210498206,-0.261966887922485
1580421624.07398,-0.97926298924239,-0.205813687342641,-0.284428168154422
1580421624.07798,-0.969497215228504,-0.2434119172961,-0.269779507133594
1580421624.08198,-0.964126039520867,-0.275638971541925,-0.251712825207905
1580421624.08597,-0.956313420309758,-0.291752498664836,-0.260502021820402
1580421624.08997,-0.94508278019379,-0.297611963073168,-0.241947051194018
1580421624.09397,-0.946059357595178,-0.283939879453728,-0.223880369268329
1580421624.09797,-0.946059357595178,-0.280521858548868,-0.209719996948195
1580421624.10197,-0.942641336690318,-0.274174105439842,-0.209231708247501
1580421624.10597,-0.951430533302815,-0.269779507133594,-0.200442511635003
1580421624.10997,-0.96559090562295,-0.262943465323874,-0.225345235370412
1580421624.11397,-0.968032349126421,-0.265873197528039,-0.258548867017625
1580421624.11796,-0.968032349126421,-0.260990310521096,-0.254642557412071
1580421624.12196,-0.969985503929198,-0.241947051194018,-0.271732661936371
1580421624.12596,-0.966567483024338,-0.215579461356526,-0.273197528038454
1580421624.12996,-0.968032349126421,-0.181887541008621,-0.284428168154422
1580421624.13396,-0.969497215228504,-0.160891126878766,-0.308842603189136
1580421624.13797,-0.972915236133364,-0.152101930266269,-0.337651636530099
1580421624.14197,-0.982192721446555,-0.141847867551689,-0.349858854047456
1580421624.14597,-0.994888227664607,-0.140871290150301,-0.359624628061342
1580421624.14997,-1.00611886778058,-0.158937972075989,-0.339116502632182
1580421624.15396,-1.03639276722362,-0.167238879987792,-0.291264209964142
1580421624.15796,-1.07301441977569,-0.165774013885709,-0.264896620126651
1580421624.16196,-1.09694056610971,-0.167238879987792,-0.261966887922485
1580421624.16596,-1.09401083390555,-0.203372243839169,-0.281010147249562
1580421624.16996,-1.08717479209583,-0.242923628595406,-0.266849774929428
1580421624.17396,-1.09645227740902,-0.260990310521096,-0.237552452887769
1580421624.17796,-1.10572976272221,-0.260013733119708,-0.211673151750972
1580421624.18196,-1.11061264972915,-0.242435339894712,-0.182375829709315
1580421624.18596,-1.11061264972915,-0.225345235370412,-0.172121766994735
1580421624.18995,-1.11989013504234,-0.206301976043335,-0.172121766994735
1580421624.19395,-1.12623788815137,-0.191165026321812,-0.166262302586404
1580421624.19795,-1.11940184634165,-0.170168612191958,-0.167238879987792
1580421624.20195,-1.11403067063401,-0.131105516136415,-0.162844281681544
1580421624.20595,-1.10719462882429,-0.0788586251621268,-0.173586633096818
1580421624.20995,-1.09303425650416,-0.0363775082017241,-0.181887541008621
1580421624.21395,-1.08619821469444,-0.0104982070649271,-0.203372243839169
1580421624.21793,-1.08815136949721,0.00415045395590141,-0.222415503166246
1580421624.22192,-1.09547570000763,0.00903334096284425,-0.236087586785686
1580421624.22592,-1.09987029831388,0.0134279392690928,-0.255130846112765
1580421624.22992,-1.10768291752499,0.00122072175173571,-0.262943465323874
1580421624.23392,-1.13356221866178,-0.00366216525520713,-0.261966887922485
1580421624.23792,-1.16090638590066,-0.00610360875867855,-0.257084000915542
1580421624.24192,-1.19069199664301,-0.00659189745937283,-0.259525444419014
1580421624.24592,-1.21217669947356,-0.00903334096284425,-0.251712825207905
1580421624.24992,-1.22340733958953,-0.00366216525520713,-0.266361486228734
1580421624.25391,-1.23073167009995,0.0148928053711757,-0.278568703746091
1580421624.25791,-1.23952086671244,0.0192874036774242,-0.316655222400245
1580421624.26191,-1.24831006332494,0.00317387655451284,-0.327885862516213
1580421624.26591,-1.27565423056382,-0.0202639810788128,-0.32642099641413
1580421624.26991,-1.30153353170062,-0.0476081483176927,-0.325932707713436
1580421624.27391,-1.32106507972839,-0.0725108720531011,-0.302006561379416
1580421624.27791,-1.34792095826658,-0.0749523155565726,-0.293705653467613
1580421624.28191,-1.3630579079881,-0.0646982528419926,-0.306889448386359
1580421624.2859,-1.37526512550546,-0.0529793240253298,-0.327397573815519
1580421624.2899,-1.38258945601587,-0.0417486839093613,-0.337163347829405
1580421624.2939,-1.39528496223392,-0.0271000228885327,-0.357671473258565
1580421624.29791,-1.41286335545892,-0.0109864957656214,-0.367925535973145
1580421624.30191,-1.44069581139849,0.0075684748607614,-0.371343556878005
1580421624.30591,-1.4651102464332,0.0280766002899213,-0.375249866483559
1580421624.30991,-1.49001297016861,0.0520027466239412,-0.362554360265507
1580421624.31391,-1.52175173571374,0.0661631189440754,-0.361577782864119
1580421624.31791,-1.56618600747692,0.0710460059510183,-0.36060120546273
1580421624.3219,-1.63356984817273,0.0817883573662925,-0.337163347829405
1580421624.3259,-1.7048599984741,0.0881361104753182,-0.327397573815519
1580421624.3299,-1.77859159227894,0.10083161669337,-0.32983901731899
1580421624.3339,-1.85525291828794,0.124269474326695,-0.35718318455787
1580421624.3379,-1.90847638666362,0.148195620660715,-0.378667887388419
1580421624.3419,-1.93337911039902,0.166750591287098,-0.385992217898833
1580421624.3459,-1.94265659571222,0.193606469825284,-0.40161745632105
1580421624.3499,-1.9436331731136,0.235599298084992,-0.371343556878005
1580421624.35389,-1.94460975051499,0.29810025177386,-0.328862439917602
1580421624.35789,-1.92166018158236,0.341069657434957,-0.298588540474556
1580421624.36189,-1.87624933241779,0.351812008850231,-0.298100251773862
1580421624.36589,-1.84402227817197,0.355230029755091,-0.293705653467613
1580421624.36989,-1.832791638056,0.37329671168078,-0.258060578316931
1580421624.37389,-1.82546730754559,0.402105745021743,-0.225345235370412
1580421624.37787,-1.80154116121157,0.406012054627297,-0.211184863050278
1580421624.38187,-1.78835736629282,0.37329671168078,-0.196536202029449
1580421624.38587,-1.80495918211643,0.332768749523154,-0.164797436484321
1580421624.38986,-1.85183489738308,0.295658808270389,-0.136964980544747
1580421624.39386,-1.9011520561532,0.234134431982909,-0.161867704280155
1580421624.39786,-1.9529106584268,0.205325398641946,-0.221927214465552
1580421624.40186,-1.99099717708095,0.209719996948195,-0.305912870984971
1580421624.40586,-2.0290836957351,0.228763256275272,-0.382574196993973
1580421624.40986,-2.03836118104829,0.254154268711375,-0.437262531471733
1580421624.41386,-2.00808728160525,0.302983138780803,-0.489997711146716
1580421624.41786,-1.92263675898375,0.295658808270389,-0.570565346761272
1580421624.42185,-1.7903105210956,0.250736247806515,-0.673105973907072
1580421624.42585,-1.65017166399634,0.200930800335698,-0.7048447394522
1580421624.42985,-1.48805981536584,0.139894712748912,-0.674570840009155
1580421624.43385,-1.28883802548257,0.0861829556725411,-0.642343785763332
1580421624.43785,-1.07496757457847,0.00219729915312428,-0.533455405508507
1580421624.44185,-0.875745784695201,-0.174074921797512,-0.458258945601587
1580421624.44585,-0.710704203860532,-0.46314183260853,-0.448493171587701
1580421624.44985,-0.652109559777218,-0.778088044556345,-0.529549095902953
1580421624.45385,-0.704356450751506,-0.82545204852369,-0.482673380636301
1580421624.45785,-0.862561989776456,-0.763439383535516,-0.325932707713436
1580421624.46185,-1.05250629434653,-0.77076371404593,-0.397222858014802
1580421624.46585,-1.06617837796597,-0.681406881818875,-0.591073472190432
1580421624.46985,-0.981704432745861,-0.383062485694667,-0.655039291981383
1580421624.47385,-0.894789044022279,-0.0144045166704814,-0.637949187457084
1580421624.47785,-0.833264667734799,0.303959716182192,-0.565194171053635
1580421624.48185,-0.779064621957733,0.585702296482797,-0.451422903791867
1580421624.48585,-0.7219348439765,0.849866483558404,-0.385992217898833
1580421624.48985,-0.672617685206378,1.06324864576181,-0.371831845578699
1580421624.49384,-0.650644693675135,1.16774242771038,-0.359624628061342
1580421624.49784,-0.610605020218204,1.13600366216525,-0.332768749523156
1580421624.50184,-0.55201037613489,1.0212558175021,-0.301518272678722
1580421624.50584,-0.483161669336996,0.858167391470207,-0.283451590753033
1580421624.50984,-0.408941786831464,0.676523994811934,-0.280033569848174
1580421624.51384,-0.339116502632182,0.489997711146714,-0.283939879453728
1580421624.51784,-0.282963302052339,0.324467841611352,-0.298588540474556
1580421624.52183,-0.249759670405126,0.174074921797512,-0.314213778896773
1580421624.52583,-0.237552452887769,0.0510261692225527,-0.321538109407188
1580421624.52983,-0.239017318989852,-0.0471198596169984,-0.308354314488442
1580421624.53383,-0.253665980010682,-0.121828030823224,-0.268314641031511
1580421624.53781,-0.289311055161365,-0.177492942702372,-0.213626306553749
1580421624.54181,-0.344975967040513,-0.197024490730143,-0.154055085069047
1580421624.54581,-0.423102159151599,-0.184817273212786,-0.0983901731898982
1580421624.54981,-0.510017547875181,-0.158449683375295,-0.060303654535744
1580421624.55381,-0.606698710612649,-0.129640650034332,-0.037842374303807
1580421624.5578,-0.683848325322346,-0.108155947203784,-0.0075684748607614
1580421624.5618,-0.705821316853589,-0.0935072861829553,0.0300297550926985
1580421624.5658,-0.694102388036926,-0.0725108720531011,0.080811779964904
1580421624.5698,-0.674570840009155,-0.0529793240253298,0.116456855115587
1580421624.5738,-0.665293354695963,-0.0271000228885327,0.143312733653772
1580421624.5778,-0.668223086900129,-0.0114747844663157,0.152101930266269
1580421624.5818,-0.681895170519569,-0.0100099183642328,0.153566796368352
1580421624.5858,-0.710215915159838,-0.0231937132829785,0.141847867551689
1580421624.58979,-0.750743877317465,-0.0529793240253298,0.136476691844052
1580421624.59379,-0.799084458686199,-0.0881361104753182,0.127199206530861
1580421624.59779,-0.857190814068819,-0.135011825741969,0.119874876020447
1580421624.60179,-0.916762035553521,-0.179934386205844,0.111573968108644
1580421624.60579,-0.98268101014725,-0.228763256275272,0.105714503700312
1580421624.60979,-1.04127565423056,-0.271732661936371,0.0832532234683754
1580421624.61379,-1.09401083390555,-0.307377737087053,0.0578622110322726
1580421624.6178,-1.1403982604715,-0.331303883421073,0.0295414663920042
1580421624.6218,-1.18483253223468,-0.34692912184329,0.00512703135728998
1580421624.62579,-1.21461814297703,-0.349858854047456,-0.0349126420996413
1580421624.62979,-1.23659113450828,-0.342046234836348,-0.0749523155565726
1580421624.63379,-1.2605172808423,-0.331303883421073,-0.099855039291981
1580421624.63779,-1.28981460288396,-0.32300297550927,-0.129640650034332
1580421624.64179,-1.32399481193256,-0.309819180590525,-0.163332570382238
1580421624.64579,-1.36452277409018,-0.308842603189136,-0.204837109941252
1580421624.64979,-1.41042191195544,-0.297611963073168,-0.244388494697489
1580421624.65379,-1.45436789501793,-0.290287632562753,-0.286381322957199
1580421624.65778,-1.50319676508736,-0.288822766460671,-0.304448004882888
1580421624.66178,-1.54958419165331,-0.299076829175251,-0.306889448386359
1580421624.66578,-1.6194094758526,-0.314702067597468,-0.299565117875945
1580421624.66978,-1.70632486457618,-0.348882276646068,-0.288822766460671
1580421624.67378,-1.81521324483101,-0.395757991912719,-0.278080415045396
1580421624.67778,-1.92507820248722,-0.438239108873121,-0.265384908827345
1580421624.68178,-2.01150530251011,-0.479255359731441,-0.250736247806516
1580421624.68578,-2.05398641947051,-0.520271610589761,-0.229251544975966
1580421624.68977,-2.04324406805524,-0.567147325856412,-0.220950637064163
1580421624.69377,-1.98562600137331,-0.613046463721675,-0.219974059662775
1580421624.69775,-1.91140611886778,-0.656992446784161,-0.211673151750972
1580421624.70175,-1.832791638056,-0.697032120241092,-0.204348821240558
1580421624.70575,-1.78445105668727,-0.74927901121538,-0.203372243839169
1580421624.70975,-1.76687266346227,-0.826428625925079,-0.202395666437781
1580421624.71375,-1.78298619058518,-0.953383688105593,-0.205813687342641
1580421624.71775,-1.82351415274281,-1.11598382543679,-0.217044327458609
1580421624.72175,-1.87869077592126,-1.28834973678187,-0.218509193560692
1580421624.72574,-1.92703135729,-1.43923094529641,-0.249759670405126
1580421624.72974,-1.93679713130388,-1.54323643854429,-0.291264209964142
1580421624.73374,-1.90457007705806,-1.60671396963455,-0.352788586251622
1580421624.73774,-1.83816281376364,-1.6364995803769,-0.414801251239796
1580421624.74174,-1.75124742504006,-1.65847257190814,-0.473884184023804
1580421624.74574,-1.63259327077134,-1.66286717021439,-0.533943694209201
1580421624.74974,-1.49001297016861,-1.661890592813,-0.582284275577935
1580421624.75374,-1.34743266956588,-1.66140230411231,-0.606698710612649
1580421624.75774,-1.20338750286107,-1.66677347981994,-0.629159990844586
1580421624.76173,-1.06861982146944,-1.67507438773175,-0.664316777294575
1580421624.76573,-0.949965667200733,-1.71120775158312,-0.707286182955672
1580421624.76973,-0.875745784695201,-1.77468528267338,-0.744396124208437
1580421624.77373,-0.826916914625773,-1.8498817425803,-0.766369115739682
1580421624.77771,-0.789318684672313,-1.93044937819486,-0.782482642862593
1580421624.78171,-0.764904249637599,-2.01980621042191,-0.797131303883422
1580421624.78571,-0.759533073929962,-2.08377203021286,-0.799572747386893
1580421624.78971,-0.765880827038988,-2.10720988784619,-0.755626764324408
1580421624.7937,-0.771740291447319,-2.08474860761425,-0.686778057526512
1580421624.7977,-0.758068207827879,-2.03738460364691,-0.614023041123064
1580421624.8017,-0.747325856412603,-1.9866025787747,-0.550057221332112
1580421624.8057,-0.732677195391775,-1.93337911039902,-0.492927443350881
1580421624.8097,-0.729747463187609,-1.87722590981918,-0.427496757457847
1580421624.8137,-0.737560082398717,-1.82839703974975,-0.375249866483559
1580421624.8177,-0.755626764324408,-1.78445105668727,-0.32983901731899
1580421624.8217,-0.786388952468148,-1.74685282673381,-0.298588540474556
1580421624.8257,-0.817639429312582,-1.71023117418173,-0.290775921263448
1580421624.82969,-0.843030441748684,-1.67995727473869,-0.281010147249562
1580421624.83369,-0.866956588082704,-1.65017166399634,-0.271732661936371
1580421624.83769,-0.885999847409781,-1.61647974364843,-0.273197528038454
1580421624.84169,-0.931898985275044,-1.55251392385748,-0.320561532005799
1580421624.84569,-1.12086671244373,-1.36501106279088,-0.713633936064697
1580421624.84969,-1.15504692149233,-0.793713282978562,-0.848889906157016
1580421624.85369,-1.18532082093538,-0.413824673838407,-0.630624856946669
1580421624.8577,-1.21803616388189,-0.126222629129472,-0.750255588616771
1580421624.86169,-1.4568093385214,0.585702296482797,-0.993911650263218
1580421624.86569,-1.7815213244831,1.4485084306096,-0.44263370717937
1580421624.86969,-1.9358205539025,2.06424048218509,0.000244144350347142
1580421624.87369,-1.90798809796292,1.98806744487678,0.205813687342641
1580421624.87769,-1.661890592813,1.17262531471733,0.253177691309986
1580421624.88169,-1.40260929274434,0.377691309987028,0.139894712748912
1580421624.88569,-1.21071183337148,-0.265384908827345,-0.110597390707255
1580421624.88969,-1.15065232318608,-0.819104295414665,-0.351812008850233
1580421624.89368,-1.24684519722286,-1.22291905088884,-0.580819409475852
1580421624.89768,-1.42067597467002,-1.12428473334859,-0.779552910658428
1580421624.90168,-1.53640039673457,-0.653574425879301,-0.508064393072404
1580421624.90568,-1.48757152666514,-0.213626306553749,-0.0861829556725411
1580421624.90968,-1.31911192492561,-0.0490730144197755,0.0817883573662925
1580421624.91368,-1.19020370794232,-0.121828030823224,0.0461432822156098
1580421624.91768,-1.09449912260624,-0.297611963073168,-0.194094758525978
1580421624.92168,-1.06569008926528,-0.416266117341879,-0.392828259708553
1580421624.92567,-1.10475318532082,-0.46997787441825,-0.489997711146716
1580421624.92967,-1.19996948195621,-0.497810330357824,-0.402594033722439
1580421624.93367,-1.30446326390478,-0.625741969939726,-0.257084000915542
1580421624.93765,-1.39430838483253,-0.837659266041047,-0.156496528572518
1580421624.94165,-1.48366521705959,-1.00856031128405,-0.127199206530861
1580421624.94565,-1.49050125886931,-1.11061264972915,-0.197024490730143
1580421624.94965,-1.41286335545892,-1.11451895933471,-0.219974059662775
1580421624.95365,-1.320088502327,-0.997329671168078,-0.255619134813459
1580421624.95765,-1.2346379797055,-0.840100709544519,-0.259525444419014
1580421624.96164,-1.17067215991455,-0.673594262607766,-0.198977645532921
1580421624.96564,-1.12428473334859,-0.515388723582818,-0.154055085069047
1580421624.96964,-1.04176394293126,-0.416266117341879,-0.175051499198901
1580421624.97364,-0.931898985275044,-0.378667887388419,-0.241458762493323
1580421624.97764,-0.818127718013276,-0.382085908293279,-0.340581368734265
1580421624.98164,-0.742931258106355,-0.40503547722591,-0.431891355764096
1580421624.98564,-0.714610513466086,-0.430914778362707,-0.463630121309224
1580421624.98964,-0.731700617990386,-0.44946974898909,-0.452399481193256
1580421624.99363,-0.770275425345236,-0.474860761425193,-0.413824673838407
1580421624.99763,-0.812268253604945,-0.494392309452964,-0.377203021286336
1580421625.00163,-0.855237659266042,-0.50415808346685,-0.359136339360647
1580421625.00563,-0.903578240634776,-0.495857175555047,-0.341069657434959
1580421625.00963,-0.952407110704204,-0.470954451819638,-0.334721904325933
1580421625.01363,-0.988052185854887,-0.436774242771039,-0.358159761959259
1580421625.01764,-0.997329671168078,-0.420660715648127,-0.402105745021744
1580421625.02164,-0.990493629358358,-0.423590447852293,-0.458258945601587
1580421625.02564,-0.996841382467384,-0.43237964446479,-0.478278782330053
1580421625.02963,-1.03639276722362,-0.423102159151599,-0.457770656900893
1580421625.03363,-1.08229190508888,-0.375738155184253,-0.404058899824522
1580421625.03763,-1.11061264972915,-0.326909285114825,-0.358159761959259
1580421625.04163,-1.10524147402151,-0.281498435950256,-0.335210193026628
1580421625.04563,-1.08619821469444,-0.262943465323874,-0.335210193026628
1580421625.04963,-1.07350270847639,-0.263920042725262,-0.351323720149539
1580421625.05363,-1.06813153276875,-0.252201113908599,-0.355718318455787
1580421625.05763,-1.0642252231632,-0.239505607690546,-0.35034714274815
1580421625.06163,-1.04322880903334,-0.228274967574578,-0.361577782864119
1580421625.06562,-1.01149004348821,-0.225833524071106,-0.368413824673839
1580421625.06962,-0.995376516365301,-0.229251544975966,-0.326909285114825
1580421625.07362,-0.985122453650721,-0.223392080567635,-0.303471427481499
1580421625.07762,-0.97584496833753,-0.208743419546806,-0.295658808270391
1580421625.08162,-0.971938658731975,-0.185305561913481,-0.291752498664836
1580421625.08562,-0.97242694743267,-0.177004654001678,-0.279545281147479
1580421625.08962,-0.966567483024338,-0.183352407110704,-0.287846189059282
1580421625.09361,-0.968032349126421,-0.215091172655832,-0.277592126344702
1580421625.09759,-0.969497215228504,-0.256107423514154,-0.273685816739148
1580421625.10159,-0.97584496833753,-0.283451590753033,-0.254154268711376
1580421625.10559,-0.984145876249332,-0.301518272678722,-0.235599298084992
1580421625.10959,-0.990981918059052,-0.311284046692608,-0.223880369268329
1580421625.11359,-0.990493629358358,-0.322514686808576,-0.223880369268329
1580421625.11759,-0.983657587548638,-0.327885862516213,-0.235599298084992
1580421625.12159,-0.976333257038224,-0.326909285114825,-0.241458762493323
1580421625.12559,-0.973891813534753,-0.304936293583582,-0.246341649500266
1580421625.12959,-0.974380102235447,-0.282963302052339,-0.266849774929428
1580421625.13358,-0.955825131609064,-0.270267795834288,-0.296635385671779
1580421625.13758,-0.941176470588236,-0.265384908827345,-0.301029983978028
1580421625.14158,-0.939223315785458,-0.269291218432899,-0.289799343862059
1580421625.14558,-0.943617914091707,-0.267338063630122,-0.294682230869002
1580421625.14958,-0.946547646295873,-0.269779507133594,-0.301518272678722
1580421625.15358,-0.948012512397955,-0.272220950637065,-0.301029983978028
1580421625.15758,-0.948989089799344,-0.255619134813459,-0.297611963073168
1580421625.16157,-0.954848554207675,-0.224856946669718,-0.281986724650951
1580421625.16557,-0.948012512397955,-0.194583047226672,-0.278568703746091
1580421625.16957,-0.941176470588236,-0.170168612191958,-0.275150682841231
1580421625.17357,-0.92799267566949,-0.145265888456549,-0.281498435950256
1580421625.17758,-0.915785458152133,-0.131593804837109,-0.294193942168308
1580421625.18158,-0.909437705043107,-0.119874876020447,-0.288822766460671
1580421625.18558,-0.925062943465324,-0.0935072861829553,-0.248783093003738
1580421625.18958,-0.939223315785458,-0.0710460059510183,-0.250247959105822
1580421625.19358,-0.946059357595178,-0.0593270771343555,-0.272709239337759
1580421625.19757,-0.953383688105593,-0.0729991607537954,-0.273685816739148
1580421625.20157,-0.969985503929198,-0.113527122911421,-0.251224536507211
1580421625.20557,-0.99977111467155,-0.158449683375295,-0.250736247806516
1580421625.20957,-1.02565041580835,-0.217532616159303,-0.253665980010682
1580421625.21357,-1.04176394293126,-0.272220950637065,-0.238040741588463
1580421625.21757,-1.0642252231632,-0.314702067597468,-0.231204699778743
1580421625.22157,-1.0637369344625,-0.334721904325933,-0.236087586785686
1580421625.22557,-1.04908827344167,-0.343999389639125,-0.252689402609294
1580421625.22956,-1.02320897230488,-0.343999389639125,-0.261966887922485
1580421625.23356,-1.00514229037919,-0.325444419012742,-0.270267795834288
1580421625.23756,-0.990493629358358,-0.307377737087053,-0.290775921263448
1580421625.24156,-0.978774700541695,-0.292729076066225,-0.302983138780805
1580421625.24556,-0.983657587548638,-0.269291218432899,-0.314702067597468
1580421625.24956,-0.99293507286183,-0.230228122377355,-0.331303883421073
1580421625.25356,-0.990005340657664,-0.189211871519035,-0.355230029755093
1580421625.25754,-0.989028763256275,-0.170656900892652,-0.36743724727245
1580421625.26154,-0.999282825970855,-0.168703746089875,-0.346440833142596
1580421625.26553,-1.03053330281529,-0.168703746089875,-0.292729076066225
1580421625.26953,-1.07399099717708,-0.154055085069047,-0.24682993820096
1580421625.27353,-1.11207751583123,-0.140871290150301,-0.226321812771801
1580421625.27753,-1.11696040283818,-0.133058670939192,-0.238529030289158
1580421625.28153,-1.10817120622568,-0.12475776302739,-0.261478599221791
1580421625.28553,-1.09059281300069,-0.108644235904478,-0.247318226901655
1580421625.28953,-1.09108110170138,-0.0725108720531011,-0.217044327458609
1580421625.29353,-1.08570992599374,-0.0246585793850613,-0.199465934233615
1580421625.29752,-1.07985046158541,0.0158693827725642,-0.206301976043335
1580421625.30152,-1.06569008926528,0.0300297550926985,-0.208255130846112
1580421625.30552,-1.05494773785,0.0256351567864499,-0.202883955138475
1580421625.30952,-1.05250629434653,0.0236820019836728,-0.217044327458609
1580421625.31352,-1.05592431525139,0.0324711985961699,-0.233646143282215
1580421625.31752,-1.06080720225834,0.0266117341878385,-0.260502021820402
1580421625.32152,-1.07301441977569,0.00854505226214997,-0.278080415045396
1580421625.32552,-1.09645227740902,-0.0212405584802013,-0.273197528038454
1580421625.32951,-1.13258564126039,-0.0437018387121384,-0.259037155718319
1580421625.33351,-1.17604333562219,-0.0627450980392155,-0.253177691309988
1580421625.33752,-1.20094605935759,-0.0842298008697639,-0.253177691309988
1580421625.34152,-1.22389562829023,-0.0827649347676811,-0.245365072098878
1580421625.34552,-1.24586861982147,-0.0559090562294955,-0.241458762493323
1580421625.34952,-1.25123979552911,-0.0290531776913099,-0.254154268711376
1580421625.35352,-1.25856412603952,-0.0114747844663157,-0.265873197528039
1580421625.35752,-1.27565423056382,-0.000244144350347142,-0.274174105439842
1580421625.36152,-1.30104524299992,-0.000244144350347142,-0.267826352330816
1580421625.36551,-1.33278400854505,0.00268558785381856,-0.265873197528039
1580421625.36951,-1.36159304188602,-0.0046387426565957,-0.271244373235676
1580421625.37351,-1.38258945601587,-0.0197756923781185,-0.266849774929428
1580421625.37751,-1.40944533455406,-0.0461432822156098,-0.255619134813459
1580421625.38151,-1.44069581139849,-0.0583504997329669,-0.232669565880826
1580421625.38551,-1.48024719615473,-0.0515144579232469,-0.207278553444723
1580421625.38951,-1.50222018768597,-0.0461432822156098,-0.210696574349583
1580421625.39351,-1.51247425040055,-0.0427252613107498,-0.226321812771801
1580421625.39751,-1.52321660181582,-0.0422369726100555,-0.236087586785686
1580421625.4015,-1.53200579842832,-0.0373540856031127,-0.227786678873883
1580421625.4055,-1.55446707866026,-0.0227054245822842,-0.213626306553749
1580421625.4095,-1.59060044251163,-0.00366216525520713,-0.235599298084992
1580421625.4135,-1.64235904478523,0.0168459601739528,-0.263920042725262
1580421625.41748,-1.70388342107271,0.0290531776913099,-0.298588540474556
1580421625.42148,-1.76638437476158,0.0422369726100555,-0.331303883421073
1580421625.42548,-1.83865110246433,0.0666514076447697,-0.371831845578699
1580421625.42948,-1.89626916914626,0.0939955748836496,-0.423590447852293
1580421625.43348,-1.92117189288167,0.119874876020447,-0.471442740520333
1580421625.43747,-1.93386739909972,0.145754177157244,-0.498298619058518
1580421625.44147,-1.92556649118792,0.183352407110704,-0.50757610437171
1580421625.44547,-1.91921873807889,0.239505607690546,-0.485114824139773
1580421625.44947,-1.91921873807889,0.309330891889829,-0.442145418478676
1580421625.45347,-1.91775387197681,0.374761577782863,-0.403570611123827
1580421625.45747,-1.9099412527657,0.411871519035628,-0.41528953994049
1580421625.46147,-1.89724574654765,0.444098573281451,-0.436774242771039
1580421625.46546,-1.90896467536431,0.488532845044631,-0.396734569314107
1580421625.46946,-1.92703135729,0.53931486991684,-0.361089494163425
1580421625.47346,-1.92019531548028,0.547615777828643,-0.341069657434959
1580421625.47746,-1.92068360418097,0.50513466086824,-0.286869611657893
1580421625.48146,-1.94900434882124,0.440192263675897,-0.241947051194018
1580421625.48546,-1.98513771267262,0.354741741054397,-0.209719996948195
1580421625.48946,-2.00808728160525,0.242923628595406,-0.215579461356526
1580421625.49346,-2.00466926070039,0.163332570382238,-0.273197528038454
1580421625.49747,-1.98367284657053,0.113038834210727,-0.359624628061342
1580421625.50146,-1.95339894712749,0.0988784618905925,-0.390386816205082
1580421625.50546,-1.91775387197681,0.116456855115587,-0.431891355764096
1580421625.50946,-1.85183489738308,0.118410009918364,-0.489509422446021
1580421625.51346,-1.76101319905394,0.0939955748836496,-0.568612191958495
1580421625.51746,-1.63405813687343,0.0549324788281069,-0.642832074464026
1580421625.52146,-1.47927061875334,0.027588311589227,-0.622323949034866
1580421625.52546,-1.31422903791867,0.037842374303807,-0.595956359197375
1580421625.52946,-1.12037842374304,0.0183108262760356,-0.544686045624475
1580421625.53345,-0.926527809567407,-0.0417486839093613,-0.486579690241856
1580421625.53745,-0.783947508964676,-0.185793850614175,-0.413824673838407
1580421625.54145,-0.706797894254978,-0.426031891355764,-0.330815594720379
1580421625.54545,-0.686778057526512,-0.705821316853589,-0.384039063096056
1580421625.54945,-0.796154726482033,-0.907972838941024,-0.362554360265507
1580421625.55345,-1.02613870450904,-1.09938200961318,-0.343999389639125
1580421625.55745,-1.12477302204929,-1.16481269550622,-0.534431982909895
1580421625.56145,-1.06715495536736,-1.01783779659724,-0.760509651331351
1580421625.56545,-0.966079194323644,-0.680430304417486,-0.778088044556345
1580421625.56944,-0.854749370565347,-0.319096665903716,-0.722423132677195
1580421625.57344,-0.754650186923019,0.0148928053711757,-0.660898756389715
1580421625.57742,-0.664805065995269,0.314213778896772,-0.590096894789044
1580421625.58142,-0.596932936598764,0.578866254673077,-0.501228351262684
1580421625.58542,-0.556404974441138,0.810803387502862,-0.42212558175021
1580421625.58942,-0.546639200427252,0.981216144045167,-0.338139925230793
1580421625.59342,-0.547615777828641,1.03199816891737,-0.256107423514154
1580421625.59742,-0.523689631494621,0.95875486381323,-0.172121766994735
1580421625.60141,-0.482673380636301,0.824475471122302,-0.0959487296864268
1580421625.60541,-0.438727397573816,0.679942015716794,-0.0646982528419926
1580421625.60941,-0.40161745632105,0.547615777828643,-0.0607919432364383
1580421625.61341,-0.369390402075227,0.422613870450903,-0.0935072861829553
1580421625.61741,-0.347905699244679,0.302006561379415,-0.152101930266269
1580421625.62141,-0.322514686808576,0.194583047226672,-0.196047913328755
1580421625.62541,-0.302983138780805,0.101808194094758,-0.226321812771801
1580421625.62941,-0.284916456855116,0.0261234454871442,-0.239505607690546
1580421625.6334,-0.277592126344702,-0.0354009308003356,-0.232181277180132
1580421625.6374,-0.269291218432899,-0.0813000686655982,-0.218020904859998
1580421625.6414,-0.270756084534982,-0.11450370031281,-0.204837109941252
1580421625.6454,-0.273685816739148,-0.141847867551689,-0.191653315022506
1580421625.6494,-0.287357900358588,-0.165285725185015,-0.178957808804455
1580421625.6534,-0.315678644998856,-0.175051499198901,-0.159914549477378
1580421625.65741,-0.358159761959259,-0.174074921797512,-0.130617227435721
1580421625.66141,-0.417730983443962,-0.150637064164187,-0.0988784618905925
1580421625.66541,-0.481696803234913,-0.113527122911421,-0.0686045624475469
1580421625.66941,-0.53492027161059,-0.0749523155565726,-0.0354009308003356
1580421625.6734,-0.55884641794461,-0.048096437018387,-0.0158693827725642
1580421625.6774,-0.574959945067521,-0.0290531776913099,-0.000732433051041426
1580421625.6814,-0.580331120775158,-0.0231937132829785,0.0046387426565957
1580421625.6854,-0.597421225299458,-0.0212405584802013,0.0104982070649271
1580421625.6894,-0.617929350728618,-0.0266117341878385,0.00415045395590141
1580421625.6934,-0.647226672770275,-0.0358892195010299,-0.00561532005798426
1580421625.6974,-0.678477149614709,-0.0578622110322726,-0.0104982070649271
1580421625.7014,-0.713145647364003,-0.0852063782711525,-0.0300297550926985
1580421625.70539,-0.757091630426491,-0.11108567940795,-0.0495613031204698
1580421625.70939,-0.804455634393836,-0.135500114442664,-0.0690928511482412
1580421625.71339,-0.855725947966736,-0.152101930266269,-0.0817883573662925
1580421625.71739,-0.91090257114519,-0.166750591287098,-0.112062256809338
1580421625.72139,-0.965102616922255,-0.172121766994735,-0.138429846646829
1580421625.72539,-1.01930266269932,-0.177004654001678,-0.158449683375295
1580421625.72939,-1.06617837796597,-0.179446097505149,-0.178957808804455
1580421625.73339,-1.11158922713054,-0.177981231403066,-0.190188448920424
1580421625.73737,-1.15992980849927,-0.185793850614175,-0.206790264744029
1580421625.74136,-1.21266498817426,-0.195071335927366,-0.219974059662775
1580421625.74536,-1.2771190966659,-0.215579461356526,-0.232181277180132
1580421625.74936,-1.34010833905547,-0.242923628595406,-0.244388494697489
1580421625.75336,-1.4138399328603,-0.279545281147479,-0.258548867017625
1580421625.75736,-1.49245441367208,-0.321538109407188,-0.271244373235676
1580421625.76136,-1.57204547188525,-0.362554360265507,-0.291264209964142
1580421625.76536,-1.64724193179217,-0.402105745021744,-0.312260624093996
1580421625.76935,-1.71169604028382,-0.427496757457847,-0.331303883421073
1580421625.77335,-1.76980239566644,-0.440192263675899,-0.32983901731899
1580421625.77735,-1.81814297703517,-0.453864347295339,-0.325444419012742
1580421625.78135,-1.85622949568933,-0.475349050125887,-0.328374151216908
1580421625.78535,-1.88796826123446,-0.496345464255741,-0.338139925230793
1580421625.78935,-1.90554665445945,-0.530037384603647,-0.351812008850233
1580421625.79335,-1.92068360418097,-0.567635614557107,-0.36401922636759
1580421625.79735,-1.92458991378653,-0.623300526436255,-0.376226443884947
1580421625.80134,-1.9265430685893,-0.699473563744563,-0.38110933089189
1580421625.80534,-1.9353322652018,-0.79810788128481,-0.372808422980087
1580421625.80934,-1.93777370870527,-0.902113374532693,-0.364995803768979
1580421625.81334,-1.94607461661708,-1.00074769207294,-0.350835431448845
1580421625.81735,-1.9524223697261,-1.09205767910277,-0.339116502632182
1580421625.82135,-1.9612115663386,-1.17653162432288,-0.331303883421073
1580421625.82535,-1.97048905165179,-1.2522163729305,-0.323491264209965
1580421625.82935,-1.9778133821622,-1.32936598764019,-0.324467841611353
1580421625.83335,-1.96658274204623,-1.39870298313878,-0.341557946135653
1580421625.83735,-1.93826199740597,-1.46364538033112,-0.36060120546273
1580421625.84134,-1.87820248722057,-1.52175173571374,-0.391851682307164
1580421625.84534,-1.78786907759213,-1.57936980239567,-0.402594033722439
1580421625.84934,-1.67214465552758,-1.63064011596857,-0.429938200961319
1580421625.85334,-1.53200579842832,-1.6872816052491,-0.469001297016861
1580421625.85734,-1.39089036392767,-1.76540779736019,-0.520759899290455
1580421625.86134,-1.2600289921416,-1.86062409399558,-0.573983367666132
1580421625.86534,-1.13356221866178,-1.94753948271916,-0.632089723048752
1580421625.86934,-1.02760357061112,-2.03054856183719,-0.69459067673762
1580421625.87333,-0.952407110704204,-2.14236667429618,-0.742931258106355
1580421625.87733,-0.892835889219501,-2.28885328450446,-0.767833981841765
1580421625.88133,-0.841077286945907,-2.44119935912108,-0.752208743419548
1580421625.88533,-0.796154726482033,-2.5593652246891,-0.705821316853589
1580421625.88933,-0.741466392004272,-2.6189364461738,-0.611093308918898
1580421625.89333,-0.674082551308461,-2.62040131227588,-0.517341878385595
1580421625.89731,-0.612558175020981,-2.57059586480507,-0.44946974898909
1580421625.90131,-0.579842832074464,-2.47977416647593,-0.411383230334936
1580421625.9053,-0.583260852979324,-2.36160830090791,-0.385503929198139
1580421625.9093,-0.623300526436255,-2.22439917601282,-0.342046234836348
1580421625.9133,-0.678965438315403,-2.07791256580453,-0.301518272678722
1580421625.9173,-0.737560082398717,-1.95877012283513,-0.264408331425956
1580421625.9213,-0.797619592584116,-1.87722590981918,-0.238529030289158
1580421625.9253,-0.848889906157016,-1.8244907301442,-0.232181277180132
1580421625.9293,-1.05348287174792,-1.7048599984741,-0.383062485694667
1580421625.9333,-1.1237964446479,-1.46706340123598,-0.711192492561226
1580421625.9373,-1.24538033112077,-0.829846646829939,-0.570077058060578
1580421625.94129,-1.31276417181659,-0.563729304951552,-0.470954451819638
1580421625.94529,-1.47927061875334,-0.0324711985961699,-0.763439383535516
1580421625.94929,-1.78738078889143,0.988540474555581,-0.616464484626535
1580421625.95329,-2.10672159914549,2.18680094605936,0.0285648889906156
1580421625.95729,-2.27615777828641,2.78397802700847,0.295658808270389
1580421625.96129,-2.17410543984131,2.18973067826352,0.50513466086824
1580421625.96529,-1.80154116121157,1.06031891355764,0.588143739986268
1580421625.96929,-1.36745250629435,0.224368657969023,0.307866025787746
1580421625.97328,-1.11842526894026,-0.449958037689784,-0.0759288929579611
1580421625.97726,-1.08717479209583,-0.958266575112535,-0.460212100404364
1580421625.98126,-1.18092622262913,-1.13844510566873,-0.823987182421607
1580421625.98526,-1.31569390402075,-0.80836194399939,-0.674570840009155
1580421625.98926,-1.36745250629435,-0.351812008850233,-0.220462348363469
1580421625.99326,-1.21608300907912,-0.229251544975966,-0.0451667048142212
1580421625.99726,-1.06813153276875,-0.351323720149539,-0.0935072861829553
1580421626.00126,-0.985610742351415,-0.481208514534218,-0.317143511100939
1580421626.00525,-0.99293507286183,-0.512458991378653,-0.447028305485619
1580421626.00925,-1.04225223163195,-0.515388723582818,-0.598886091401541
1580421626.01325,-1.15992980849927,-0.518806744487678,-0.609140154116121
1580421626.01725,-1.29713893339437,-0.595956359197375,-0.495857175555047
1580421626.02125,-1.41969939726864,-0.716563668268863,-0.398687724116884
1580421626.02525,-1.51589227130541,-0.846936751354239,-0.421637293049516
1580421626.02925,-1.52126344701305,-0.993911650263218,-0.343999389639125
1580421626.03325,-1.45778591592279,-1.05592431525139,-0.306889448386359
1580421626.03725,-1.38112458991379,-1.03102159151598,-0.282963302052339
1580421626.04124,-1.31960021362631,-0.956313420309758,-0.207278553444723
1580421626.04524,-1.28688487067979,-0.864026855878539,-0.101319905394064
1580421626.04924,-1.24147402151522,-0.785900663767453,-0.0236820019836728
1580421626.05324,-1.14137483787289,-0.753673609521631,-0.0251468680857556
1580421626.05725,-0.999282825970855,-0.776134889753568,-0.0979018844892039
1580421626.06125,-0.86305027847715,-0.825940337224385,-0.181887541008621
1580421626.06525,-0.801037613488976,-0.851819638361182,-0.255619134813459
1580421626.06925,-0.82887006942855,-0.822522316319525,-0.293705653467613
1580421626.07325,-0.916762035553521,-0.740001525902189,-0.257084000915542
1580421626.07724,-0.988052185854887,-0.643808651865415,-0.217044327458609
1580421626.08124,-0.97584496833753,-0.573983367666132,-0.216556038757915
1580421626.08524,-0.92457465476463,-0.516365300984207,-0.272709239337759
1580421626.08924,-0.890882734416724,-0.464606698710613,-0.361089494163425
1580421626.09324,-0.889906157015336,-0.412848096437019,-0.44605172808423
1580421626.09724,-0.922133211261158,-0.359136339360647,-0.469489585717556
1580421626.10124,-0.952407110704204,-0.302983138780805,-0.460212100404364
1580421626.10524,-0.959731441214618,-0.257084000915542,-0.458747234302281
1580421626.10923,-0.959243152513924,-0.224856946669718,-0.469001297016861
1580421626.11323,-0.960219729915313,-0.214114595254443,-0.47681391622797
1580421626.11723,-0.974868390936141,-0.212649729152361,-0.470954451819638
1580421626.12123,-1.00025940337224,-0.193606469825284,-0.464118410009918
1580421626.12523,-1.02662699320974,-0.156984817273212,-0.440192263675899
1580421626.12923,-1.05397116044862,-0.099855039291981,-0.39478141451133
1580421626.13323,-1.09205767910277,-0.0432135500114441,-0.358159761959259
1580421626.13721,-1.11110093842985,0.00903334096284425,-0.358648050659953
1580421626.1412,-1.10133516441596,0.0456549935149155,-0.402594033722439
1580421626.1452,-1.07008468757153,0.0402838178072784,-0.443121995880064
1580421626.1492,-1.03346303501946,-0.000244144350347142,-0.45288776989395
1580421626.1532,-1.00514229037919,-0.0417486839093613,-0.410894941634242
1580421626.1572,-0.995376516365301,-0.0754406042572668,-0.330327306019685
1580421626.1612,-0.984634164950027,-0.104737926298924,-0.283451590753033
1580421626.1652,-0.96559090562295,-0.159426260776684,-0.264408331425956
1580421626.1692,-0.95533684290837,-0.227786678873883,-0.255619134813459
1580421626.17319,-0.959243152513924,-0.286381322957199,-0.238040741588463
1580421626.17719,-0.974868390936141,-0.329350728618296,-0.220462348363469
1580421626.18119,-0.981216144045167,-0.356206607156482,-0.216067750057221
1580421626.18519,-0.983657587548638,-0.36743724727245,-0.199954222934309
1580421626.18919,-0.984634164950027,-0.368902113374533,-0.192141603723201
1580421626.19319,-0.985122453650721,-0.363530937666896,-0.201419089036392
1580421626.19719,-0.968032349126421,-0.363042648966202,-0.210696574349583
1580421626.20119,-0.964614328221561,-0.354741741054399,-0.214114595254443
1580421626.20519,-0.967055771725033,-0.339604791332876,-0.216067750057221
1580421626.20918,-0.97584496833753,-0.309330891889831,-0.223392080567635
1580421626.21318,-0.970962081330587,-0.272709239337759,-0.248294804303043
1580421626.21719,-0.955825131609064,-0.241458762493323,-0.263920042725262
1580421626.22119,-0.95191882200351,-0.210208285648889,-0.251712825207905
1580421626.22519,-0.956801709010453,-0.164797436484321,-0.257084000915542
1580421626.22919,-0.957778286411841,-0.129152361333638,-0.272220950637065
1580421626.23319,-0.946547646295873,-0.119386587319752,-0.289799343862059
1580421626.23719,-0.941176470588236,-0.120363164721141,-0.297123674372473
1580421626.24119,-0.949965667200733,-0.124269474326695,-0.289799343862059
1580421626.24518,-0.954360265506981,-0.123781185626001,-0.268802929732205
1580421626.24918,-0.950453955901427,-0.118898298619058,-0.264408331425956
1580421626.25318,-0.942641336690318,-0.118898298619058,-0.252201113908599
1580421626.25718,-0.934340428778516,-0.114015411612115,-0.247318226901655
1580421626.26118,-0.928969253070878,-0.111573968108644,-0.250736247806516
1580421626.26518,-0.922133211261158,-0.123781185626001,-0.267338063630122
1580421626.26918,-0.918715190356298,-0.139894712748912,-0.270267795834288
1580421626.27318,-0.919203479056993,-0.158937972075989,-0.260990310521096
1580421626.27717,-0.923109788662547,-0.179934386205844,-0.257084000915542
1580421626.28117,-0.92457465476463,-0.197512779430838,-0.250247959105822
1580421626.28517,-0.927504386968796,-0.233646143282215,-0.251712825207905
1580421626.28917,-0.932875562676433,-0.280521858548868,-0.247806515602349
1580421626.29317,-0.943617914091707,-0.316166933699551,-0.23657587548638
1580421626.29715,-0.95533684290837,-0.335210193026628,-0.220462348363469
1580421626.30115,-0.963637750820173,-0.344487678339819,-0.217044327458609
1580421626.30515,-0.952407110704204,-0.345952544441902,-0.229251544975966
1580421626.30915,-0.943617914091707,-0.337651636530099,-0.240970473792629
1580421626.31314,-0.938735027084764,-0.327885862516213,-0.248783093003738
1580421626.31714,-0.935805294880598,-0.311772335393302,-0.260013733119708
1580421626.32114,-0.938735027084764,-0.297123674372473,-0.263431754024568
1580421626.32514,-0.948012512397955,-0.272220950637065,-0.265384908827345
1580421626.32914,-0.959243152513924,-0.247318226901655,-0.271244373235676
1580421626.33314,-0.970473792629893,-0.221438925764858,-0.283939879453728
1580421626.33714,-0.974868390936141,-0.202883955138475,-0.292240787365531
1580421626.34114,-0.987075608453498,-0.197512779430838,-0.300053406576639
1580421626.34513,-1.00123598077363,-0.200442511635003,-0.298588540474556
1580421626.34913,-1.01930266269932,-0.198001068131532,-0.297611963073168
1580421626.35313,-1.03688105592432,-0.191165026321812,-0.285893034256505
1580421626.35713,-1.04908827344167,-0.172610055695429,-0.278080415045396
1580421626.36113,-1.05006485084306,-0.149660486762798,-0.291264209964142
1580421626.36513,-1.04371709773404,-0.134523537041275,-0.315678644998856
1580421626.36913,-1.04225223163195,-0.122804608224612,-0.331792172121768
1580421626.37313,-1.03883421072709,-0.102296482795452,-0.332768749523156
1580421626.37714,-1.04176394293126,-0.0813000686655982,-0.305912870984971
1580421626.38113,-1.05006485084306,-0.0695811398489354,-0.274174105439842
1580421626.38513,-1.0554360265507,-0.0656748302433812,-0.250736247806516
1580421626.38913,-1.06520180056458,-0.0695811398489354,-0.227298390173189
1580421626.39313,-1.07399099717708,-0.0627450980392155,-0.201907377737086
1580421626.39713,-1.072526131075,-0.0500495918211641,-0.195559624628061
1580421626.40113,-1.07008468757153,-0.0437018387121384,-0.193606469825284
1580421626.40513,-1.05885404745556,-0.0393072404058898,-0.198001068131532
1580421626.40913,-1.05299458304723,-0.0417486839093613,-0.204348821240558
1580421626.41313,-1.06715495536736,-0.0524910353246355,-0.196047913328755
1580421626.41712,-1.09156939040207,-0.0588387884336612,-0.166262302586404
1580421626.42112,-1.1233081559472,-0.0700694285496297,-0.132082093537804
1580421626.42512,-1.13893339436942,-0.0788586251621268,-0.123292896925307
1580421626.42912,-1.14137483787289,-0.0925307087815668,-0.129640650034332
1580421626.43312,-1.13258564126039,-0.0871595330739297,-0.131105516136415
1580421626.43712,-1.11891355764095,-0.0764171816586554,-0.150637064164187
1580421626.44112,-1.11207751583123,-0.0622568093385212,-0.179446097505149
1580421626.44511,-1.11061264972915,-0.0715342946517126,-0.205813687342641
1580421626.44911,-1.12086671244373,-0.0847180895704582,-0.217044327458609
1580421626.45311,-1.14332799267567,-0.0959487296864268,-0.229251544975966
1580421626.45709,-1.16676585030899,-0.110597390707255,-0.244388494697489
1580421626.46109,-1.18287937743191,-0.135988403143358,-0.266361486228734
1580421626.46509,-1.2004577706569,-0.166750591287098,-0.283451590753033
1580421626.46909,-1.22389562829023,-0.180422674906538,-0.297611963073168
1580421626.47309,-1.24586861982147,-0.176028076600289,-0.300541695277333
1580421626.47709,-1.26491187914855,-0.165774013885709,-0.314213778896773
1580421626.48108,-1.27809567406729,-0.156496528572518,-0.321538109407188
1580421626.48508,-1.30153353170062,-0.152101930266269,-0.332768749523156
1580421626.48908,-1.32936598764019,-0.160402838178072,-0.324956130312048
1580421626.49308,-1.38356603341726,-0.165774013885709,-0.328862439917602
1580421626.49708,-1.44655527580682,-0.165285725185015,-0.320073243305105
1580421626.50108,-1.50173189898528,-0.160402838178072,-0.324956130312048
1580421626.50508,-1.55690852216373,-0.159914549477378,-0.346440833142596
1580421626.50908,-1.59694819562066,-0.154055085069047,-0.389410238803693
1580421626.51307,-1.63454642557412,-0.145265888456549,-0.42212558175021
1580421626.51707,-1.67702754253452,-0.127199206530861,-0.454840924696727
1580421626.52107,-1.71462577248798,-0.0856946669718468,-0.48023193713283
1580421626.52507,-1.73806363012131,-0.0402838178072784,-0.506599526970321
1580421626.52907,-1.75417715724422,-0.00708018616006711,-0.525642786297398
1580421626.53307,-1.77566186007477,0.0217288471808956,-0.530037384603647
1580421626.53708,-1.78249790188449,0.0329594872968642,-0.531990539406424
1580421626.54108,-1.79372854200046,0.0319829098954756,-0.52808422980087
1580421626.54508,-1.80544747081712,0.0339360646982527,-0.526619363698787
1580421626.54907,-1.82497901884489,0.0388189517051956,-0.50757610437171
1580421626.55307,-1.84646372167544,0.0661631189440754,-0.467536430914778
1580421626.55707,-1.86306553749905,0.0837415121690697,-0.439703974975204
1580421626.56107,-1.86404211490044,0.0944838635843439,-0.415777828641184
1580421626.56507,-1.86208896009766,0.0852063782711525,-0.380621042191196
1580421626.56907,-1.85769436179141,0.0700694285496297,-0.380132753490502
1580421626.57307,-1.85671778439002,0.0554207675288012,-0.371343556878005
1580421626.57707,-1.87136644541085,0.0456549935149155,-0.339116502632182
1580421626.58106,-1.87917906462196,0.0373540856031127,-0.316655222400245
1580421626.58506,-1.86599526970321,0.0178225375753414,-0.301029983978028
1580421626.58906,-1.83718623636225,-0.0290531776913099,-0.295658808270391
1580421626.59306,-1.81374837872892,-0.0891126878767068,-0.297123674372473
1580421626.59706,-1.7820096131838,-0.165285725185015,-0.280033569848174
1580421626.60106,-1.74636453803311,-0.224368657969023,-0.247318226901655
1580421626.60506,-1.70583657587549,-0.262943465323874,-0.262455176623179
1580421626.60906,-1.62624551766232,-0.298588540474556,-0.316655222400245
1580421626.61305,-1.53835355153735,-0.301518272678722,-0.334721904325933
1580421626.61703,-1.4572976272221,-0.314702067597468,-0.376226443884947
1580421626.62103,-1.36891737239643,-0.311772335393302,-0.405523765926604
1580421626.62503,-1.28493171587701,-0.281986724650951,-0.421637293049516
1580421626.62903,-1.19948119325551,-0.2434119172961,-0.458747234302281
1580421626.63303,-1.1150072480354,-0.216067750057221,-0.536385137712672
1580421626.63703,-1.04567025253681,-0.173098344396124,-0.615976195925841
1580421626.64103,-0.972915236133364,-0.127199206530861,-0.663340199893186
1580421626.64503,-0.894789044022279,-0.123292896925307,-0.674570840009155
1580421626.64902,-0.802990768291753,-0.186770428015564,-0.608651865415426
1580421626.65302,-0.713145647364003,-0.260990310521096,-0.484626535439078
1580421626.65702,-0.644785229266803,-0.23999389639124,-0.251224536507211
1580421626.66102,-0.609140154116121,-0.214602883955138,-0.0163576714732585
1580421626.66502,-0.618417639429312,-0.316655222400245,0.0715342946517126
1580421626.66902,-0.626230258640421,-0.462165255207141,0.000244144350347142
1580421626.67302,-0.591561760891127,-0.552498664835584,-0.145754177157244
1580421626.67702,-0.552498664835584,-0.547615777828641,-0.23657587548638
1580421626.68102,-0.523201342793927,-0.461188677805753,-0.272220950637065
1580421626.68501,-0.508064393072404,-0.339116502632182,-0.271732661936371
1580421626.68901,-0.503669794766155,-0.181887541008621,-0.263431754024568
1580421626.69301,-0.494880598153658,-0.0148928053711757,-0.246341649500266
1580421626.69702,-0.475349050125887,0.138429846646829,-0.209231708247501
1580421626.70102,-0.44605172808423,0.259525444419012,-0.186770428015564
1580421626.70502,-0.406500343327993,0.327885862516212,-0.182375829709315
1580421626.70902,-0.364995803768979,0.357671473258563,-0.202395666437781
1580421626.71302,-0.322514686808576,0.361089494163423,-0.217044327458609
1580421626.71702,-0.289799343862059,0.347417410543983,-0.198001068131532
1580421626.72101,-0.267338063630122,0.322514686808574,-0.162844281681544
1580421626.72501,-0.255130846112765,0.298588540474555,-0.126710917830167
1580421626.72901,-0.252201113908599,0.273685816739146,-0.113038834210727
1580421626.73301,-0.249759670405126,0.240482185091935,-0.101319905394064
1580421626.73701,-0.253665980010682,0.200442511635003,-0.101808194094758
1580421626.74101,-0.253665980010682,0.157961394674601,-0.101319905394064
1580421626.74501,-0.256595712214848,0.105226214999618,-0.0886243991760125
1580421626.749,-0.260502021820402,0.0583504997329669,-0.0788586251621268
1580421626.753,-0.261478599221791,0.00805676356145568,-0.0686045624475469
1580421626.757,-0.266849774929428,-0.0417486839093613,-0.063721675440604
1580421626.761,-0.274174105439842,-0.096437018387121,-0.0646982528419926
1580421626.765,-0.283939879453728,-0.149172198062104,-0.0690928511482412
1580421626.769,-0.301518272678722,-0.199954222934309,-0.0607919432364383
1580421626.773,-0.322026398107882,-0.250736247806516,-0.0563973449301898
1580421626.77698,-0.346440833142596,-0.281010147249562,-0.0388189517051956
