Timestamp_seconds,Gyro_X_s,Gyro_Y_s,Gyro_Z_s
1580421620.23142,-1.8616006713969,-1.49538414587619,-2.7161058976119
1580421620.23542,-1.55642023346309,-1.80056458381023,-2.89921416037237
1580421620.23941,-1.25123979552905,-1.98367284657047,-2.89921416037237
1580421620.24341,-0.823987182421661,-1.73952849622333,-2.89921416037237
1580421620.24741,-0.274662394140478,-1.49538414587619,-3.02128633554594
1580421620.25141,0.152590218966907,-1.43434805828952,-3.02128633554594
1580421620.25541,0.274662394140478,-1.43434805828952,-2.83817807278547
1580421620.25941,0.51880674448762,-1.73952849622333,-2.59403372243833
1580421620.26341,0.762951094834762,-1.98367284657047,-2.34988937209118
1580421620.26741,0.885023270008332,-2.04470893415737,-2.34988937209118
1580421620.2714,0.762951094834762,-2.22781719691761,-2.59403372243833
1580421620.2754,0.457770656900948,-2.47196154726475,-2.83817807278547
1580421620.2794,0.213626306553806,-2.22781719691761,-2.96025024795904
1580421620.2834,-0.274662394140478,-2.16678110933094,-3.14335851071951
1580421620.2874,-0.823987182421661,-2.34988937209118,-3.32646677347975
1580421620.2914,-1.19020370794237,-2.34988937209118,-3.50957503624022
1580421620.2954,-1.37331197070262,-2.7161058976119,-3.75371938658736
1580421620.29938,-1.55642023346309,-3.08232242313261,-3.99786373693451
1580421620.30338,-1.61745632104976,-3.08232242313261,-4.11993591210808
1580421620.30737,-1.80056458381023,-3.08232242313261,-4.18097199969475
1580421620.31137,-1.61745632104976,-3.26543068589308,-4.24200808728165
1580421620.31537,-1.37331197070262,-3.63164721141379,-4.24200808728165
1580421620.31937,-0.946059357595232,-4.73029678797593,-4.05889982452118
1580421620.32337,-0.762951094834762,-5.95101853971164,-3.44853894865332
1580421620.32737,-0.823987182421661,-7.23277637903402,-3.08232242313261
1580421620.33137,-1.49538414587619,-7.90417334248878,-2.96025024795904
1580421620.33537,-2.59403372243833,-8.02624551766235,-3.02128633554594
1580421620.33937,-3.32646677347975,-7.7821011673152,-3.38750286106665
1580421620.34336,-3.63164721141379,-7.47692072938116,-3.75371938658736
1580421620.34736,-3.44853894865332,-6.86655985351331,-4.11993591210808
1580421620.35136,-3.57061112382689,-7.04966811627378,-4.60822461280236
1580421620.35536,-3.63164721141379,-7.41588464179449,-4.60822461280236
1580421620.35936,-3.57061112382689,-7.96520943007545,-4.42511635004189
1580421620.36336,-3.44853894865332,-8.08728160524902,-4.05889982452118
1580421620.36736,-3.81475547417404,-8.14831769283592,-3.93682764934761
1580421620.37135,-3.44853894865332,-8.5755703059433,-3.93682764934761
1580421620.37535,-2.7771419851988,-8.33142595559616,-3.81475547417404
1580421620.37936,-2.7771419851988,-7.96520943007545,-3.75371938658736
1580421620.38336,-3.38750286106665,-7.53795681696806,-3.99786373693451
1580421620.38736,-4.18097199969475,-7.29381246662092,-4.24200808728165
1580421620.39136,-4.48615243762879,-6.86655985351331,-4.36408026245522
1580421620.39536,-4.36408026245522,-6.43930724040592,-4.36408026245522
1580421620.39936,-4.30304417486832,-6.07309071488521,-4.30304417486832
1580421620.40336,-3.93682764934761,-5.82894636453807,-3.99786373693451
1580421620.40735,-3.08232242313261,-5.40169375143046,-3.69268329900046
1580421620.41135,-2.53299763485165,-4.91340505073617,-3.32646677347975
1580421620.41535,-2.47196154726475,-4.42511635004189,-3.02128633554594
1580421620.41935,-2.59403372243833,-4.11993591210808,-3.02128633554594
1580421620.42335,-2.53299763485165,-3.87579156176093,-2.83817807278547
1580421620.42735,-2.16678110933094,-3.69268329900046,-2.7771419851988
1580421620.43135,-1.98367284657047,-3.57061112382689,-2.7771419851988
1580421620.43535,-1.67849240863666,-3.38750286106665,-2.59403372243833
1580421620.43934,-1.19020370794237,-2.96025024795904,-2.59403372243833
1580421620.44334,-0.640878919661191,-2.7161058976119,-2.41092545967808
1580421620.44734,-0.579842832074519,-2.41092545967808,-2.41092545967808
1580421620.45134,-0.885023270008332,-2.34988937209118,-2.34988937209118
1580421620.45534,-1.31227588311594,-2.10574502174404,-2.22781719691761
1580421620.45932,-1.67849240863666,-1.8616006713969,-2.34988937209118
1580421620.46332,-1.73952849622333,-1.8616006713969,-2.53299763485165
1580421620.46732,-1.80056458381023,-1.9226367589838,-2.41092545967808
1580421620.47132,-1.8616006713969,-1.61745632104976,-2.22781719691761
1580421620.47531,-1.55642023346309,-1.31227588311594,-2.04470893415737
1580421620.47931,-1.25123979552905,-1.0070954451819,-1.8616006713969
1580421620.48331,-1.0681315327688,-0.640878919661191,-1.9226367589838
1580421620.48731,-0.51880674448762,-0.885023270008332,-1.9226367589838
1580421620.49131,-0.152590218966907,-1.0070954451819,-1.55642023346309
1580421620.49531,0.152590218966907,-0.946059357595232,-1.31227588311594
1580421620.49931,0.457770656900948,-0.640878919661191,-1.31227588311594
1580421620.50331,0.213626306553806,-0.457770656900948,-1.12916762035547
1580421620.5073,-0.152590218966907,-0.51880674448762,-1.12916762035547
1580421620.5113,-0.396734569314049,-0.640878919661191,-1.12916762035547
1580421620.5153,-0.640878919661191,-0.762951094834762,-1.19020370794237
1580421620.5193,-0.885023270008332,-0.946059357595232,-1.19020370794237
1580421620.5233,-1.0681315327688,-1.0070954451819,-0.885023270008332
1580421620.5273,-1.19020370794237,-0.762951094834762,-0.885023270008332
1580421620.5313,-1.55642023346309,-0.70191500724809,-0.946059357595232
1580421620.5353,-2.04470893415737,-0.579842832074519,-1.0681315327688
1580421620.53931,-2.28885328450451,-0.823987182421661,-1.0681315327688
1580421620.5433,-1.8616006713969,-0.70191500724809,-0.946059357595232
1580421620.5473,-1.25123979552905,-0.70191500724809,-0.70191500724809
1580421620.5513,-1.0681315327688,-0.885023270008332,-0.579842832074519
1580421620.5553,-1.0681315327688,-0.70191500724809,-0.457770656900948
1580421620.5593,-1.19020370794237,-0.70191500724809,-0.51880674448762
1580421620.5633,-1.49538414587619,-0.51880674448762,-0.579842832074519
1580421620.5673,-1.61745632104976,-0.640878919661191,-0.51880674448762
1580421620.5713,-1.31227588311594,-0.579842832074519,-0.335698481727377
1580421620.57529,-1.19020370794237,-0.51880674448762,-0.396734569314049
1580421620.57929,-1.0681315327688,-0.335698481727377,-0.335698481727377
1580421620.58329,-1.12916762035547,-0.152590218966907,-0.457770656900948
1580421620.58729,-1.12916762035547,-0.274662394140478,-0.51880674448762
1580421620.59129,-1.12916762035547,-0.274662394140478,-0.51880674448762
1580421620.59529,-1.31227588311594,-0.274662394140478,-0.579842832074519
1580421620.59929,-1.67849240863666,-0.274662394140478,-0.762951094834762
1580421620.60329,-2.16678110933094,-0.274662394140478,-0.823987182421661
1580421620.60729,-1.98367284657047,-0.457770656900948,-0.946059357595232
1580421620.61128,-2.28885328450451,-0.640878919661191,-1.19020370794237
1580421620.61528,-2.7771419851988,-0.579842832074519,-1.37331197070262
1580421620.61926,-3.32646677347975,-0.70191500724809,-1.43434805828952
1580421620.62326,-3.81475547417404,-0.640878919661191,-1.43434805828952
1580421620.62726,-4.42511635004189,-0.640878919661191,-1.67849240863666
1580421620.63126,-4.66926070038903,-0.823987182421661,-1.80056458381023
1580421620.63526,-4.66926070038903,-0.885023270008332,-1.8616006713969
1580421620.63926,-4.24200808728165,-0.946059357595232,-1.67849240863666
1580421620.64325,-3.63164721141379,-0.823987182421661,-1.67849240863666
1580421620.64725,-3.20439459830618,-0.762951094834762,-1.49538414587619
1580421620.65125,-3.02128633554594,-0.762951094834762,-1.43434805828952
1580421620.65525,-2.7161058976119,-0.823987182421661,-1.37331197070262
1580421620.65925,-2.34988937209118,-0.823987182421661,-1.37331197070262
1580421620.66325,-1.98367284657047,-0.70191500724809,-1.31227588311594
1580421620.66725,-1.49538414587619,-0.823987182421661,-1.25123979552905
1580421620.67125,-1.19020370794237,-0.70191500724809,-1.19020370794237
1580421620.67525,-1.0070954451819,-0.579842832074519,-1.12916762035547
1580421620.67924,-1.12916762035547,-0.396734569314049,-1.31227588311594
1580421620.68324,-1.37331197070262,-0.457770656900948,-1.25123979552905
1580421620.68724,-1.61745632104976,-0.51880674448762,-1.19020370794237
1580421620.69124,-1.80056458381023,-0.51880674448762,-1.31227588311594
1580421620.69524,-2.10574502174404,-0.51880674448762,-1.49538414587619
1580421620.69925,-2.10574502174404,-0.70191500724809,-1.49538414587619
1580421620.70325,-2.10574502174404,-0.51880674448762,-1.55642023346309
1580421620.70725,-2.16678110933094,-0.640878919661191,-1.67849240863666
1580421620.71124,-2.22781719691761,-0.579842832074519,-1.67849240863666
1580421620.71524,-2.34988937209118,-0.457770656900948,-1.67849240863666
1580421620.71924,-2.16678110933094,-0.396734569314049,-1.55642023346309
1580421620.72324,-2.28885328450451,-0.213626306553806,-1.67849240863666
1580421620.72724,-2.47196154726475,-0.274662394140478,-1.61745632104976
1580421620.73124,-2.34988937209118,-0.274662394140478,-1.49538414587619
1580421620.73524,-2.47196154726475,-0.213626306553806,-1.37331197070262
1580421620.73924,-2.47196154726475,-0.213626306553806,-1.31227588311594
1580421620.74323,-2.34988937209118,-0.213626306553806,-1.31227588311594
1580421620.74723,-2.28885328450451,-0.091554131380235,-1.12916762035547
1580421620.75123,-2.10574502174404,-0.152590218966907,-0.946059357595232
1580421620.75523,-2.10574502174404,-0.091554131380235,-0.823987182421661
1580421620.75923,-2.04470893415737,-0.0305180437933359,-0.762951094834762
1580421620.76323,-2.10574502174404,-0.0305180437933359,-0.640878919661191
1580421620.76723,-2.16678110933094,-0.152590218966907,-0.70191500724809
1580421620.77123,-2.16678110933094,-0.152590218966907,-0.640878919661191
1580421620.77522,-2.04470893415737,0.0305180437933359,-0.51880674448762
1580421620.7792,-1.9226367589838,0.152590218966907,-0.51880674448762
1580421620.7832,-1.9226367589838,0.213626306553806,-0.457770656900948
1580421620.7872,-1.9226367589838,0.274662394140478,-0.396734569314049
1580421620.7912,-1.67849240863666,0.51880674448762,-0.274662394140478
1580421620.7952,-1.80056458381023,0.457770656900948,0.0305180437933359
1580421620.7992,-1.8616006713969,0.457770656900948,0.0305180437933359
1580421620.8032,-1.80056458381023,0.640878919661191,0.0305180437933359
1580421620.8072,-1.73952849622333,0.640878919661191,0.0305180437933359
1580421620.81119,-1.73952849622333,0.70191500724809,0.091554131380235
1580421620.81519,-1.80056458381023,0.70191500724809,0.091554131380235
1580421620.81919,-1.67849240863666,0.885023270008332,0.213626306553806
1580421620.82319,-1.80056458381023,0.946059357595232,0.457770656900948
1580421620.82719,-1.98367284657047,0.885023270008332,0.579842832074519
1580421620.83119,-1.98367284657047,0.823987182421661,0.640878919661191
1580421620.83519,-1.80056458381023,0.885023270008332,0.762951094834762
1580421620.83919,-1.80056458381023,1.0070954451819,0.762951094834762
1580421620.84318,-1.61745632104976,1.19020370794237,0.946059357595232
1580421620.84718,-1.43434805828952,1.19020370794237,1.0681315327688
1580421620.85118,-1.19020370794237,1.19020370794237,1.19020370794237
1580421620.85518,-0.885023270008332,1.19020370794237,1.37331197070262
1580421620.85919,-0.640878919661191,1.25123979552905,1.67849240863666
1580421620.86319,-0.457770656900948,1.19020370794237,1.73952849622333
1580421620.86719,-0.274662394140478,1.19020370794237,1.8616006713969
1580421620.87119,-0.0305180437933359,1.12916762035547,1.9226367589838
1580421620.87519,0.152590218966907,1.0070954451819,2.04470893415737
1580421620.87918,0.152590218966907,1.0070954451819,2.04470893415737
1580421620.88318,0.091554131380235,0.946059357595232,2.10574502174404
1580421620.88718,0.152590218966907,0.762951094834762,2.10574502174404
1580421620.89118,0.152590218966907,0.70191500724809,2.16678110933094
1580421620.89518,-0.091554131380235,0.579842832074519,2.22781719691761
1580421620.89918,0.0305180437933359,0.640878919661191,2.34988937209118
1580421620.90318,0.091554131380235,0.51880674448762,2.22781719691761
1580421620.90718,0.213626306553806,0.579842832074519,2.04470893415737
1580421620.91118,0.213626306553806,0.51880674448762,2.16678110933094
1580421620.91517,0.213626306553806,0.457770656900948,2.10574502174404
1580421620.91917,-0.091554131380235,0.396734569314049,1.9226367589838
1580421620.92317,-0.51880674448762,0.457770656900948,1.80056458381023
1580421620.92717,-0.946059357595232,0.51880674448762,1.73952849622333
1580421620.93117,-1.12916762035547,0.457770656900948,1.80056458381023
1580421620.93517,-1.31227588311594,0.274662394140478,1.67849240863666
1580421620.93915,-1.19020370794237,0.396734569314049,1.49538414587619
1580421620.94315,-1.12916762035547,0.51880674448762,1.55642023346309
1580421620.94714,-0.823987182421661,0.51880674448762,1.55642023346309
1580421620.95114,-0.457770656900948,0.579842832074519,1.55642023346309
1580421620.95514,-0.335698481727377,0.51880674448762,1.55642023346309
1580421620.95914,-0.274662394140478,0.457770656900948,1.67849240863666
1580421620.96314,-0.091554131380235,0.457770656900948,1.73952849622333
1580421620.96714,0.0305180437933359,0.396734569314049,1.67849240863666
1580421620.97114,0.0305180437933359,0.579842832074519,1.67849240863666
1580421620.97514,-0.091554131380235,0.70191500724809,1.67849240863666
1580421620.97914,-0.274662394140478,0.70191500724809,1.73952849622333
1580421620.98313,-0.457770656900948,0.70191500724809,1.67849240863666
1580421620.98713,-0.335698481727377,0.640878919661191,1.73952849622333
1580421620.99113,-0.274662394140478,0.762951094834762,1.80056458381023
1580421620.99513,-0.152590218966907,0.946059357595232,1.8616006713969
1580421620.99913,-0.335698481727377,1.0681315327688,1.80056458381023
1580421621.00313,-0.335698481727377,0.946059357595232,1.73952849622333
1580421621.00713,-0.091554131380235,0.946059357595232,1.67849240863666
1580421621.01112,0.152590218966907,1.0070954451819,1.80056458381023
1580421621.01512,-0.091554131380235,1.12916762035547,1.9226367589838
1580421621.01913,-0.213626306553806,1.19020370794237,1.98367284657047
1580421621.02313,-0.213626306553806,1.19020370794237,2.10574502174404
1580421621.02713,-0.213626306553806,1.25123979552905,2.04470893415737
1580421621.03113,-0.0305180437933359,1.12916762035547,2.16678110933094
1580421621.03513,0.51880674448762,1.12916762035547,2.28885328450451
1580421621.03913,1.25123979552905,1.25123979552905,2.47196154726475
1580421621.04313,1.61745632104976,1.37331197070262,2.7161058976119
1580421621.04712,2.04470893415737,1.55642023346309,2.83817807278547
1580421621.05112,2.41092545967808,1.67849240863666,2.89921416037237
1580421621.05512,2.28885328450451,1.55642023346309,2.89921416037237
1580421621.05912,1.98367284657047,1.43434805828952,2.83817807278547
1580421621.06312,1.8616006713969,1.25123979552905,2.7771419851988
1580421621.06712,1.9226367589838,1.25123979552905,2.7771419851988
1580421621.07112,1.9226367589838,1.19020370794237,2.89921416037237
1580421621.07512,1.8616006713969,1.25123979552905,2.89921416037237
1580421621.07911,1.55642023346309,1.25123979552905,2.7771419851988
1580421621.08311,1.37331197070262,1.12916762035547,2.7771419851988
1580421621.08711,1.19020370794237,1.19020370794237,2.7161058976119
1580421621.09111,0.946059357595232,1.25123979552905,2.7161058976119
1580421621.09511,0.946059357595232,1.31227588311594,2.65506981002522
1580421621.09909,1.0070954451819,1.19020370794237,2.65506981002522
1580421621.10309,0.823987182421661,1.19020370794237,2.53299763485165
1580421621.10709,0.457770656900948,1.12916762035547,2.65506981002522
1580421621.11109,0.396734569314049,1.19020370794237,2.7771419851988
1580421621.11508,0.335698481727377,1.31227588311594,2.83817807278547
1580421621.11908,0.213626306553806,1.19020370794237,2.89921416037237
1580421621.12308,0.213626306553806,1.0681315327688,2.83817807278547
1580421621.12708,0.457770656900948,0.885023270008332,2.89921416037237
1580421621.13108,0.51880674448762,0.70191500724809,2.96025024795904
1580421621.13508,0.213626306553806,0.579842832074519,2.89921416037237
1580421621.13908,0.0305180437933359,0.640878919661191,2.96025024795904
1580421621.14308,-0.091554131380235,0.579842832074519,3.08232242313261
1580421621.14707,0.091554131380235,0.579842832074519,3.08232242313261
1580421621.15107,0.640878919661191,0.51880674448762,3.26543068589308
1580421621.15507,1.0681315327688,0.457770656900948,3.38750286106665
1580421621.15907,1.31227588311594,0.457770656900948,3.44853894865332
1580421621.16307,1.67849240863666,0.51880674448762,3.44853894865332
1580421621.16707,1.9226367589838,0.51880674448762,3.44853894865332
1580421621.17107,1.98367284657047,0.396734569314049,3.44853894865332
1580421621.17507,1.9226367589838,0.335698481727377,3.32646677347975
1580421621.17905,1.8616006713969,0.091554131380235,3.14335851071951
1580421621.18304,1.67849240863666,-0.152590218966907,3.14335851071951
1580421621.18704,1.37331197070262,-0.335698481727377,3.20439459830618
1580421621.19104,1.12916762035547,-0.51880674448762,3.32646677347975
1580421621.19504,1.31227588311594,-0.640878919661191,3.20439459830618
1580421621.19904,1.8616006713969,-0.51880674448762,3.14335851071951
1580421621.20304,2.59403372243833,-0.51880674448762,3.20439459830618
1580421621.20704,3.32646677347975,-0.274662394140478,3.26543068589308
1580421621.21104,3.81475547417404,-0.091554131380235,3.32646677347975
1580421621.21503,4.24200808728165,0.0305180437933359,3.57061112382689
1580421621.21903,4.48615243762879,0.091554131380235,3.81475547417404
1580421621.22303,4.54718852521546,0.091554131380235,3.57061112382689
1580421621.22703,4.42511635004189,-0.335698481727377,3.44853894865332
1580421621.23103,4.66926070038903,-0.51880674448762,3.20439459830618
1580421621.23503,4.91340505073617,-0.396734569314049,3.02128633554594
1580421621.23903,5.03547722590974,-0.274662394140478,2.96025024795904
1580421621.24303,4.91340505073617,-0.152590218966907,2.83817807278547
1580421621.24703,4.73029678797593,-0.152590218966907,2.47196154726475
1580421621.25102,4.48615243762879,-0.51880674448762,2.28885328450451
1580421621.25502,5.09651331349664,-0.885023270008332,2.10574502174404
1580421621.25903,6.01205462729831,-0.823987182421661,2.04470893415737
1580421621.26303,6.86655985351331,-0.396734569314049,1.9226367589838
1580421621.26703,7.84313725490188,0.0305180437933359,2.16678110933094
1580421621.27103,8.51453421835663,0.213626306553806,2.53299763485165
1580421621.27503,8.45349813076973,0.274662394140478,2.83817807278547
1580421621.27903,7.7821011673152,0.335698481727377,2.89921416037237
1580421621.28303,7.59899290455473,0.335698481727377,2.7771419851988
1580421621.28702,8.20935378042259,0.274662394140478,2.47196154726475
1580421621.29102,8.6366063935302,0.213626306553806,1.8616006713969
1580421621.29502,8.5755703059433,0.152590218966907,1.37331197070262
1580421621.29902,7.84313725490188,0.152590218966907,0.885023270008332
1580421621.30302,6.13412680247188,0.091554131380235,0.457770656900948
1580421621.30702,4.54718852521546,0.0305180437933359,0.152590218966907
1580421621.31102,3.26543068589308,-0.152590218966907,-0.396734569314049
1580421621.31501,2.59403372243833,-0.274662394140478,-0.640878919661191
1580421621.31901,2.41092545967808,-0.640878919661191,-0.885023270008332
1580421621.32301,2.96025024795904,-1.12916762035547,-1.0070954451819
1580421621.32701,3.75371938658736,-1.43434805828952,-0.946059357595232
1580421621.33101,3.99786373693451,-1.55642023346309,-0.823987182421661
1580421621.33501,3.02128633554594,-2.04470893415737,-1.12916762035547
1580421621.33899,1.55642023346309,-2.59403372243833,-1.31227588311594
1580421621.34299,0.946059357595232,-2.89921416037237,-1.73952849622333
1580421621.34699,1.31227588311594,-2.7161058976119,-1.9226367589838
1580421621.35098,2.16678110933094,-2.83817807278547,-2.04470893415737
1580421621.35498,2.59403372243833,-3.08232242313261,-2.10574502174404
1580421621.35898,2.41092545967808,-3.02128633554594,-2.22781719691761
1580421621.36298,1.67849240863666,-2.89921416037237,-2.22781719691761
1580421621.36698,1.0681315327688,-2.7161058976119,-2.28885328450451
1580421621.37098,0.762951094834762,-2.7161058976119,-2.47196154726475
1580421621.37498,0.51880674448762,-2.65506981002522,-2.83817807278547
1580421621.37898,0.579842832074519,-2.65506981002522,-2.96025024795904
1580421621.38297,0.579842832074519,-2.59403372243833,-2.96025024795904
1580421621.38697,0.51880674448762,-2.47196154726475,-2.96025024795904
1580421621.39097,0.396734569314049,-2.47196154726475,-3.14335851071951
1580421621.39497,0.0305180437933359,-2.34988937209118,-3.38750286106665
1580421621.39897,-0.396734569314049,-2.47196154726475,-3.57061112382689
1580421621.40297,-0.762951094834762,-2.65506981002522,-3.87579156176093
1580421621.40697,-0.885023270008332,-2.89921416037237,-4.05889982452118
1580421621.41097,-0.885023270008332,-2.89921416037237,-4.30304417486832
1580421621.41496,-0.762951094834762,-2.7161058976119,-4.30304417486832
1580421621.41897,-0.213626306553806,-2.7161058976119,-4.36408026245522
1580421621.42297,0.70191500724809,-2.83817807278547,-4.18097199969475
1580421621.42697,1.37331197070262,-3.32646677347975,-3.87579156176093
1580421621.43097,0.885023270008332,-3.81475547417404,-3.87579156176093
1580421621.43497,0.152590218966907,-4.30304417486832,-3.87579156176093
1580421621.43897,-0.762951094834762,-4.42511635004189,-3.99786373693451
1580421621.44297,-1.43434805828952,-4.30304417486832,-4.36408026245522
1580421621.44697,-1.9226367589838,-4.18097199969475,-4.8523689631495
1580421621.45097,-1.9226367589838,-3.81475547417404,-5.09651331349664
1580421621.45496,-2.28885328450451,-3.99786373693451,-5.15754940108332
1580421621.45896,-2.53299763485165,-3.99786373693451,-5.34065766384379
1580421621.46296,-2.34988937209118,-3.81475547417404,-5.27962157625689
1580421621.46696,-2.34988937209118,-3.93682764934761,-5.15754940108332
1580421621.47096,-1.98367284657047,-3.87579156176093,-5.09651331349664
1580421621.47496,-1.61745632104976,-3.81475547417404,-5.03547722590974
1580421621.47896,-1.61745632104976,-3.75371938658736,-4.91340505073617
1580421621.48296,-1.67849240863666,-3.69268329900046,-4.7913328755626
1580421621.48695,-1.37331197070262,-3.69268329900046,-4.73029678797593
1580421621.49095,-1.0070954451819,-3.63164721141379,-4.66926070038903
1580421621.49495,-0.396734569314049,-3.57061112382689,-4.66926070038903
1580421621.49893,0.579842832074519,-3.50957503624022,-4.36408026245522
1580421621.50293,1.67849240863666,-3.20439459830618,-4.24200808728165
1580421621.50693,2.28885328450451,-3.08232242313261,-3.87579156176093
1580421621.51093,2.47196154726475,-3.14335851071951,-3.63164721141379
1580421621.51493,2.7161058976119,-3.08232242313261,-3.63164721141379
1580421621.51892,2.89921416037237,-2.7771419851988,-3.38750286106665
1580421621.52292,2.96025024795904,-2.65506981002522,-3.44853894865332
1580421621.52692,2.89921416037237,-2.53299763485165,-3.50957503624022
1580421621.53092,2.53299763485165,-2.53299763485165,-3.63164721141379
1580421621.53492,2.04470893415737,-2.53299763485165,-3.57061112382689
1580421621.53892,1.37331197070262,-2.59403372243833,-3.81475547417404
1580421621.54292,0.762951094834762,-2.7771419851988,-3.87579156176093
1580421621.54692,0.0305180437933359,-2.89921416037237,-3.75371938658736
1580421621.55092,-0.70191500724809,-3.38750286106665,-3.81475547417404
1580421621.55491,-1.12916762035547,-3.44853894865332,-3.87579156176093
1580421621.55891,-1.0681315327688,-3.63164721141379,-3.75371938658736
1580421621.56291,-0.51880674448762,-3.57061112382689,-3.69268329900046
1580421621.56691,0.335698481727377,-3.32646677347975,-3.44853894865332
1580421621.57091,1.25123979552905,-2.96025024795904,-2.96025024795904
1580421621.57491,2.47196154726475,-2.7161058976119,-2.65506981002522
1580421621.57892,3.38750286106665,-2.47196154726475,-2.22781719691761
1580421621.58292,3.93682764934761,-2.16678110933094,-1.98367284657047
1580421621.58692,4.60822461280236,-1.9226367589838,-1.8616006713969
1580421621.59091,5.34065766384379,-1.8616006713969,-1.61745632104976
1580421621.59491,5.76791027695117,-1.61745632104976,-1.55642023346309
1580421621.59891,6.07309071488521,-1.49538414587619,-1.73952849622333
1580421621.60291,5.95101853971164,-1.31227588311594,-1.80056458381023
1580421621.60691,5.82894636453807,-1.19020370794237,-1.9226367589838
1580421621.61091,5.82894636453807,-1.43434805828952,-2.22781719691761
1580421621.61491,6.07309071488521,-1.61745632104976,-2.59403372243833
1580421621.61891,6.13412680247188,-1.80056458381023,-2.7771419851988
1580421621.6229,5.82894636453807,-1.80056458381023,-3.02128633554594
1580421621.6269,5.58480201419093,-1.55642023346309,-3.38750286106665
1580421621.6309,5.34065766384379,-1.55642023346309,-3.69268329900046
1580421621.6349,4.24200808728165,-1.43434805828952,-3.99786373693451
1580421621.6389,2.7771419851988,-1.0681315327688,-3.93682764934761
1580421621.6429,1.43434805828952,-0.823987182421661,-4.11993591210808
1580421621.6469,0.335698481727377,-0.70191500724809,-4.54718852521546
1580421621.6509,-0.51880674448762,-1.19020370794237,-5.03547722590974
1580421621.65489,-1.0681315327688,-1.43434805828952,-5.21858548867021
1580421621.65887,-1.43434805828952,-1.55642023346309,-5.09651331349664
1580421621.66287,-1.73952849622333,-1.49538414587619,-4.8523689631495
1580421621.66687,-1.80056458381023,-1.55642023346309,-4.97444113832307
1580421621.67087,-1.0070954451819,-1.80056458381023,-5.03547722590974
1580421621.67487,0.213626306553806,-2.10574502174404,-5.09651331349664
1580421621.67887,0.70191500724809,-2.41092545967808,-5.09651331349664
1580421621.68287,0.70191500724809,-2.41092545967808,-5.09651331349664
1580421621.68686,0.640878919661191,-2.47196154726475,-5.03547722590974
1580421621.69086,0.946059357595232,-2.22781719691761,-5.09651331349664
1580421621.69486,1.0070954451819,-2.10574502174404,-5.03547722590974
1580421621.69886,1.31227588311594,-2.16678110933094,-4.97444113832307
1580421621.70286,1.37331197070262,-2.22781719691761,-5.21858548867021
1580421621.70686,1.0681315327688,-2.04470893415737,-5.27962157625689
1580421621.71086,0.640878919661191,-2.16678110933094,-5.15754940108332
1580421621.71486,0.51880674448762,-2.28885328450451,-5.03547722590974
1580421621.71885,0.457770656900948,-2.22781719691761,-5.40169375143046
1580421621.72285,0.579842832074519,-2.28885328450451,-5.6458381017776
1580421621.72685,0.396734569314049,-2.65506981002522,-5.7068741893645
1580421621.73085,0.274662394140478,-2.96025024795904,-6.01205462729831
1580421621.73485,0.091554131380235,-3.38750286106665,-5.95101853971164
1580421621.73886,-0.457770656900948,-3.63164721141379,-6.13412680247188
1580421621.74286,-1.12916762035547,-3.87579156176093,-6.19516289005878
1580421621.74686,-1.31227588311594,-3.99786373693451,-6.25619897764545
1580421621.75086,-1.25123979552905,-4.11993591210808,-6.43930724040592
1580421621.75486,-0.946059357595232,-4.05889982452118,-6.5003433279926
1580421621.75885,-0.885023270008332,-3.99786373693451,-6.56137941557949
1580421621.76285,-1.12916762035547,-3.93682764934761,-6.31723506523235
1580421621.76685,-1.0681315327688,-3.69268329900046,-6.07309071488521
1580421621.77085,-0.213626306553806,-3.44853894865332,-5.95101853971164
1580421621.77485,2.10574502174404,-3.57061112382689,-5.76791027695117
1580421621.77885,5.34065766384379,-3.81475547417404,-5.58480201419093
1580421621.78285,7.59899290455473,-4.11993591210808,-5.52376592660403
1580421621.78685,8.08728160524902,-4.36408026245522,-5.52376592660403
1580421621.79084,7.72106507972831,-4.42511635004189,-5.6458381017776
1580421621.79484,7.04966811627378,-4.36408026245522,-5.95101853971164
1580421621.79884,6.31723506523235,-4.11993591210808,-6.31723506523235
1580421621.80284,5.40169375143046,-3.75371938658736,-6.37827115281902
1580421621.80684,3.87579156176093,-3.20439459830618,-6.5003433279926
1580421621.81084,2.22781719691761,-2.96025024795904,-7.11070420386045
1580421621.81484,0.946059357595232,-3.02128633554594,-7.72106507972831
1580421621.81882,0.0305180437933359,-3.08232242313261,-8.45349813076973
1580421621.82282,-0.0305180437933359,-3.20439459830618,-9.12489509422448
1580421621.82681,0.762951094834762,-3.63164721141379,-9.67421988250544
1580421621.83081,2.10574502174404,-4.05889982452118,-10.0404364080262
1580421621.83481,2.7771419851988,-4.48615243762879,-10.1014724956131
1580421621.83881,3.20439459830618,-4.73029678797593,-10.4066529335469
1580421621.84281,3.44853894865332,-4.54718852521546,-10.650797283894
1580421621.84681,3.69268329900046,-4.42511635004189,-10.8339055466545
1580421621.85081,3.38750286106665,-4.42511635004189,-11.2611581597619
1580421621.85481,2.65506981002522,-4.24200808728165,-11.7494468604561
1580421621.8588,2.16678110933094,-3.87579156176093,-12.2987716487373
1580421621.8628,2.16678110933094,-3.87579156176093,-13.0312046997788
1580421621.8668,2.22781719691761,-3.99786373693451,-13.6415655756466
1580421621.8708,2.65506981002522,-4.36408026245522,-14.3129625391011
1580421621.8748,2.59403372243833,-4.66926070038903,-15.0453955901426
1580421621.8788,1.80056458381023,-4.7913328755626,-15.9609369039445
1580421621.8828,0.946059357595232,-4.97444113832307,-16.7544060425726
1580421621.8868,0.274662394140478,-5.21858548867021,-17.486839093614
1580421621.89079,-0.640878919661191,-5.6458381017776,-18.4634164950025
1580421621.89479,-1.19020370794237,-6.01205462729831,-19.6841382467383
1580421621.8988,-0.946059357595232,-6.01205462729831,-20.5386434729533
1580421621.9028,-0.091554131380235,-6.07309071488521,-21.3321126115816
1580421621.9068,0.823987182421661,-6.56137941557949,-22.2476539253832
1580421621.9108,1.12916762035547,-6.86655985351331,-23.1631952391851
1580421621.9148,0.457770656900948,-7.11070420386045,-24.2008087281604
1580421621.9188,-0.51880674448762,-7.17174029144735,-25.2384222171358
1580421621.9228,-1.31227588311594,-7.23277637903402,-26.5812161440451
1580421621.9268,-1.37331197070262,-7.11070420386045,-27.8019378957808
1580421621.93079,-0.946059357595232,-7.17174029144735,-28.900587472343
1580421621.93479,-0.51880674448762,-7.23277637903402,-30.4264896620125
1580421621.93879,-0.335698481727377,-7.11070420386045,-31.8913557640956
1580421621.94279,-0.335698481727377,-7.23277637903402,-33.7224383916991
1580421621.94679,-1.49538414587619,-7.59899290455473,-35.7976653696498
1580421621.95079,-3.81475547417404,-8.02624551766235,-37.9949645227741
1580421621.95479,-5.7068741893645,-8.45349813076973,-39.7039749752041
1580421621.95878,-6.92759594110021,-9.18593118181116,-40.9246967269398
1580421621.96278,-7.59899290455473,-10.1625085831997,-42.877851529717
1580421621.96678,-8.39246204318306,-11.810482948043,-44.7699702449074
1580421621.97078,-8.20935378042259,-13.0922407873654,-46.6620889600977
1580421621.97478,-8.08728160524902,-14.1908903639276,-48.5542076752881
1580421621.97876,-8.81971465629044,-14.5571068894483,-50.5683985656519
1580421621.98276,-9.61318379491877,-14.4350347142747,-52.4605172808424
1580421621.98676,-10.1014724956131,-14.068818188754,-54.5967803463798
1580421621.99076,-10.7728694590676,-13.8857099259938,-56.9771877622645
1580421621.99475,-11.0170138094147,-14.4350347142747,-59.7848477912567
1580421621.99875,-11.0170138094147,-14.6181429770352,-62.0431830319676
1580421622.00275,-10.7728694590676,-14.8012512397954,-64.3015182726788
1580421622.00675,-9.91836423285258,-14.8622873273823,-66.4988174258031
1580421622.01075,-9.18593118181116,-15.0453955901426,-69.062333104448
1580421622.01475,-9.24696726939806,-15.9609369039445,-71.8699931334402
1580421622.01875,-9.79629205767901,-17.2426947432668,-74.9217975127794
1580421622.02275,-10.5287251087204,-18.2192721446554,-77.8515297169452
1580421622.02674,-11.1390859845883,-19.8062104219118,-80.5981536583504
1580421622.03074,-11.3221942473488,-20.6607156481268,-83.1616693369954
1580421622.03474,-10.4676890211338,-19.9893186846723,-85.6641489280537
1580421622.03874,-8.6366063935302,-18.341344319829,-88.4718089570458
1580421622.04274,-5.58480201419093,-16.937514305333,-91.6456855115587
1580421622.04674,-1.9226367589838,-18.1582360570687,-94.8805981536584
1580421622.05074,-0.579842832074519,-20.4165712977797,-97.2610055695432
1580421622.05474,-3.81475547417404,-21.6983291371023,-99.3972686350805
1580421622.05875,-8.75867856870377,-21.0269321736475,-102.204928664073
1580421622.06274,-9.85732814526591,-18.2803082322423,-105.86709391928
1580421622.06674,-4.66926070038903,-14.6791790646218,-110.078583962768
1580421622.07074,3.38750286106665,-11.3832303349354,-113.374532692455
1580421622.07474,10.7728694590676,-8.51453421835663,-115.693904020752
1580421622.07874,15.228503852903,-6.25619897764545,-117.097734035248
1580421622.08274,16.0219729915311,-4.73029678797593,-118.01327534905
1580421622.08674,12.9091325246052,-2.7161058976119,-118.989852750439
1580421622.09074,8.81971465629044,-0.823987182421661,-120.576791027695
1580421622.09473,5.6458381017776,0.091554131380235,-122.529945830472
1580421622.09873,4.42511635004189,-0.091554131380235,-124.788281071183
1580421622.10273,7.23277637903402,-0.51880674448762,-126.802471961547
1580421622.10673,12.1156633859769,-0.762951094834762,-127.779049362936
1580421622.11073,16.083009079118,0.396734569314049,-127.901121538109
1580421622.11473,19.8062104219118,2.59403372243833,-127.290760662242
1580421622.11873,21.759365224689,4.30304417486832,-125.520714122225
1580421622.12273,21.5762569619287,5.88998245212474,-123.567559319448
1580421622.12672,19.3179217212175,7.47692072938116,-121.61440451667
1580421622.13072,15.228503852903,9.00282291905091,-119.72228580148
1580421622.13472,10.7728694590676,10.4676890211338,-118.074311436637
1580421622.1387,6.5003433279926,11.4442664225223,-117.036697947662
1580421622.1427,3.08232242313261,11.6884107728695,-116.30426489662
1580421622.1467,2.04470893415737,11.2001220721752,-115.9380483711
1580421622.1507,4.48615243762879,10.0404364080262,-115.388723582818
1580421622.1547,12.4208438239109,8.75867856870377,-113.008316166934
1580421622.1587,27.2526131074997,7.47692072938116,-107.637140459297
1580421622.16269,46.2348363469901,6.68345159075307,-98.3596551461053
1580421622.16669,63.6911573968109,6.98863202868688,-86.152437628748
1580421622.17069,74.3724727244985,8.27038986800949,-72.7244983596552
1580421622.17469,74.3114366369118,8.75867856870377,-59.6017395284962
1580421622.17869,60.9445334554052,9.00282291905091,-48.0659189745938
1580421622.18269,35.3704127565422,11.2001220721752,-39.5208667124439
1580421622.18669,4.36408026245522,15.8999008163576,-33.9055466544596
1580421622.19069,-22.6749065384909,19.4399938963911,-30.5485618371861
1580421622.19468,-39.7039749752041,20.1113908598459,-27.3746852826732
1580421622.19868,-48.5542076752881,19.501029983978,-22.5528343633173
1580421622.20268,-55.146105134661,18.7685969329366,-15.5947203784237
1580421622.20668,-62.775616083009,18.0971999694818,-7.53795681696806
1580421622.21068,-71.9920653086137,18.0361638818952,0.274662394140478
1580421622.21468,-82.2461280231937,18.8296330205233,7.29381246662092
1580421622.21869,-91.7677576867322,19.6841382467383,13.8857099259938
1580421622.22269,-98.3596551461053,19.9282825970854,20.5386434729533
1580421622.22669,-99.7024490730146,19.0737773708704,27.9850461585411
1580421622.23068,-96.4065003433282,17.792019531548,36.1028458075837
1580421622.23468,-90.6080720225832,16.2661173418783,44.9530785076674
1580421622.23868,-82.9175249866482,14.923323414969,54.1084916456853
1580421622.24268,-73.6400396734568,13.8857099259938,63.8132295719847
1580421622.24668,-63.0197604333562,13.2753490501259,73.8841840238042
1580421622.25068,-51.8501564049745,12.9701686121919,84.260318913558
1580421622.25468,-40.0091554131382,12.7260242618447,94.4533455405508
1580421622.25868,-28.4122987716487,12.664988174258,104.463263904784
1580421622.26268,-16.8764782177461,12.4818799114976,114.168001831083
1580421622.26667,-5.52376592660403,12.1766994735638,123.506523231861
1580421622.27067,5.27962157625689,11.810482948043,132.478828107118
1580421622.27467,15.228503852903,11.4442664225223,141.145952544442
1580421622.27867,24.5670252536811,11.2611581597619,149.568932631418
1580421622.28267,33.173113603418,11.3221942473488,157.747768368048
1580421622.28667,41.4129854276339,11.3832303349354,165.438315403982
1580421622.29067,48.7983520256348,11.6273746852826,172.457465476463
1580421622.29466,54.9019607843134,11.810482948043,179.110399023422
1580421622.29865,59.2965590905619,12.1156633859769,185.03089951934
1580421622.30264,62.9587243457695,12.2987716487373,190.524147402152
1580421622.30664,65.5832761120014,12.5429159990845,195.345998321508
1580421622.31064,67.0481422140842,13.214312962539,199.740596627757
1580421622.31464,67.3533226520181,14.068818188754,203.524834058137
1580421622.31864,66.4377813382166,14.9843595025559,206.515602349889
1580421622.32264,64.0573739223319,16.083009079118,209.140154116121
1580421622.32664,60.3952086671243,17.1206225680933,211.032272831312
1580421622.33063,55.2681773098343,18.0971999694818,212.314030670634
1580421622.33463,48.9204242008086,18.7075608453497,213.168535896849
1580421622.33863,41.657129777981,19.4399938963911,213.656824597544
1580421622.34263,33.4172579537651,19.8672465094987,213.595788509956
1580421622.34663,24.5670252536811,19.8062104219118,212.924391546502
1580421622.35063,14.4960708018616,19.3789578088044,212.0088502327
1580421622.35463,3.32646677347975,18.7075608453497,210.727092393378
1580421622.35863,-8.75867856870377,17.6699473563745,209.201190203708
1580421622.36262,-21.5152208743418,16.937514305333,207.064927138171
1580421622.36662,-33.6614023041125,16.2050812542916,204.623483634699
1580421622.37062,-44.2816815442131,15.4726482032502,202.059967956054
1580421622.37462,-53.7422751201648,14.7402151522087,199.191271839475
1580421622.3786,-61.5548943312733,13.8246738384069,196.505683985657
1580421622.3826,-67.902647440299,12.6039520866711,193.942168307012
1580421622.3866,-72.9076066224154,11.1390859845883,191.439688715954
1580421622.3906,-77.1801327534904,9.4911116197452,188.937209124895
1580421622.3946,-80.9033340962844,7.17174029144735,186.37369344625
1580421622.39859,-84.2603189135575,4.36408026245522,183.749141680018
1580421622.40259,-86.4576180666818,0.946059357595232,181.185626001373
1580421622.40659,-87.6173037308308,-2.59403372243833,178.622110322728
1580421622.41059,-87.4952315556573,-6.31723506523235,176.11963073167
1580421622.41459,-86.7627985046158,-9.97940032043948,173.617151140612
1580421622.41859,-85.4810406652932,-13.3363851377126,171.114671549553
1580421622.42259,-82.9175249866482,-15.7167925535973,168.307011520561
1580421622.42659,-79.011215381094,-17.486839093614,165.255207141222
1580421622.43058,-74.0062561989776,-19.1348134584573,162.081330586709
1580421622.43458,-68.6350804913404,-20.1113908598459,158.541237506676
1580421622.43858,-63.8132295719845,-20.4776073853666,154.573891813535
1580421622.44258,-60.8224612802319,-20.1724269474325,150.240329594873
1580421622.44658,-59.7238117036698,-19.3789578088044,145.052262149996
1580421622.45058,-59.9069199664302,-18.4023804074159,139.253833829252
1580421622.45458,-61.0055695429924,-17.7309834439611,132.722972457465
1580421622.45859,-62.8366521705959,-17.5478751812009,125.886930647745
1580421622.46259,-65.4612039368276,-17.4258030060273,118.440527962158
1580421622.46658,-68.3909361409933,-17.3037308308537,110.749980926223
1580421622.47058,-71.8699931334402,-17.0595864805066,103.059433890288
1580421622.47458,-75.4711223010604,-17.1206225680933,95.4299229419394
1580421622.47858,-78.2177462424659,-16.8154421301595,87.9835202563518
1580421622.48258,-79.8046845197223,-15.8999008163576,80.9033340962847
1580421622.48658,-80.2929732204166,-14.8012512397954,73.8841840238042
1580421622.49058,-79.6826123445487,-13.519493400473,67.4143587396052
1580421622.49458,-78.7060349431601,-11.9935912108033,60.8834973678186
1580421622.49857,-76.3866636148623,-10.3456168459602,54.5357442587929
1580421622.50257,-72.6024261844816,-8.69764248111687,48.3100633249405
1580421622.50657,-67.4753948271916,-6.80552376592664,42.1454184786753
1580421622.51057,-61.1886778057526,-4.91340505073617,36.0418097199968
1580421622.51457,-53.8033112077517,-3.14335851071951,29.9382009613182
1580421622.51857,-45.5024032959489,-1.37331197070262,24.2008087281604
1580421622.52257,-36.9573510337989,0.213626306553806,18.4023804074159
1580421622.52657,-28.1071183337147,1.49538414587619,12.7870603494316
1580421622.53057,-19.6231021591516,2.65506981002522,6.98863202868688
1580421622.53456,-12.2377355611504,3.44853894865332,1.19020370794237
1580421622.53854,-6.19516289005878,4.24200808728165,-4.7913328755626
1580421622.54254,-1.37331197070262,4.97444113832307,-11.0780498970016
1580421622.54654,2.59403372243833,5.82894636453807,-17.6089112687876
1580421622.55054,5.95101853971164,6.68345159075307,-24.2008087281604
1580421622.55454,8.51453421835663,7.66002899214163,-30.9758144502937
1580421622.55854,10.7118333714809,8.6366063935302,-37.5677119096667
1580421622.56254,12.4818799114976,10.1625085831997,-44.2206454566262
1580421622.56653,19.0737773708704,16.3271534294652,-49.8359655146105
1580421622.57053,26.0318913557639,24.2008087281604,-52.8877698939498
1580421622.57453,19.1348134584573,25.7877470054168,-56.9161516746776
1580421622.57853,5.6458381017776,24.9942778667887,-63.2639047837033
1580421622.58253,-7.29381246662092,23.468375677119,-71.1375600823987
1580421622.58653,-12.9091325246052,20.2334630350194,-83.1616693369954
1580421622.59053,6.86655985351331,12.0546272983902,-94.5754177157246
1580421622.59453,56.3057907988095,-0.823987182421661,-96.162355992981
1580421622.59853,103.181506065461,-10.3456168459602,-87.861448081178
1580421622.60252,117.158770122835,-10.8949416342411,-78.2177462424659
1580421622.60652,94.148165102617,-3.26543068589308,-72.3582818341345
1580421622.61052,51.7891203173876,8.88075074387734,-72.175173571374
1580421622.61452,11.6884107728695,21.6372930495154,-78.0346379797054
1580421622.61853,-16.1440451667047,29.9382009613182,-88.0445563439382
1580421622.62253,-31.5861753261618,29.3278400854504,-99.0310521095598
1580421622.62653,-37.9949645227741,20.9658960860609,-106.416418707561
1580421622.63053,-36.346990157931,12.4208438239109,-108.064393072404
1580421622.63452,-28.4733348592354,7.23277637903402,-105.439841306172
1580421622.63852,-23.4073395895323,8.5755703059433,-102.693217364767
1580421622.64252,-26.1539635309375,15.4726482032502,-103.364614328222
1580421622.64652,-36.1028458075839,23.3463035019454,-107.57610437171
1580421622.65052,-48.1269550621805,27.4967574578468,-113.374532692455
1580421622.65452,-57.5265125505455,28.5343709468223,-118.257419699397
1580421622.65852,-63.5690852216374,29.755092698558,-120.637827115282
1580421622.66252,-66.8039978637369,31.4030670634011,-120.881971465629
1580421622.66651,-66.0715648126954,31.7692835889218,-120.088502327001
1580421622.67051,-62.2873273823147,29.5719844357975,-119.600213626307
1580421622.67451,-57.8316929884795,27.9850461585411,-119.966430151827
1580421622.67851,-51.9722285801481,26.7643244068054,-120.943007553216
1580421622.68251,-43.9765011062791,23.9566643778132,-121.492332341497
1580421622.68651,-35.0652323186084,19.9893186846723,-120.576791027695
1580421622.69051,-29.3888761730373,18.7075608453497,-117.891203173877
1580421622.69451,-29.8771648737315,21.210040436408,-115.327687495232
1580421622.69849,-34.4548714427406,24.4449530785075,-113.435568780041
1580421622.70248,-37.8118562600139,26.3981078812847,-111.482413977264
1580421622.70648,-37.6287479972534,27.0084687571525,-108.796826123445
1580421622.71048,-34.5159075303275,25.8487830930037,-105.134660868238
1580421622.71448,-29.1447318226901,23.5904478522925,-100.007629510948
1580421622.71848,-23.2852674143587,22.064545662623,-94.3312733653775
1580421622.72248,-18.2192721446554,22.1866178377966,-88.5938811322194
1580421622.72648,-13.7636377508202,22.5528343633173,-83.588921950103
1580421622.73048,-10.7728694590676,23.2242313267718,-79.7436484321354
1580421622.73447,-9.55214770733187,24.5059891660944,-77.0580605783168
1580421622.73847,-6.43930724040592,24.322880903334,-75.3490501258868
1580421622.74247,0.762951094834762,23.1021591515982,-73.9452201113909
1580421622.74647,12.7870603494316,19.9893186846723,-72.5413900968947
1580421622.75047,27.4967574578468,16.083009079118,-69.6726939803159
1580421622.75447,39.2156862745096,15.5336842908368,-65.339131761654
1580421622.75847,44.9530785076674,18.2192721446554,-61.0055695429924
1580421622.76247,47.4555580987258,20.5996795605402,-57.7096208133059
1580421622.76646,48.9204242008086,20.2944991226061,-55.5733577477683
1580421622.77046,47.6997024490729,17.2426947432668,-53.4981307698176
1580421622.77446,44.1596093690393,12.9701686121919,-50.4463263904784
1580421622.77847,40.7415884641794,9.85732814526591,-46.6620889600977
1580421622.78247,37.5066758220796,8.27038986800949,-42.5726710917831
1580421622.78647,33.4782940413518,7.23277637903402,-39.8870832379646
1580421622.79047,31.0368505378804,7.29381246662092,-39.1546501869232
1580421622.79447,29.8161287861446,7.72106507972831,-39.0936140993363
1580421622.79847,26.0929274433508,8.33142595559616,-39.6429388876174
1580421622.80246,19.8672465094987,8.33142595559616,-40.1312275883117
1580421622.80646,13.519493400473,8.08728160524902,-40.0701915007248
1580421622.81046,8.33142595559616,7.35484855420759,-40.1312275883117
1580421622.81446,3.69268329900046,6.31723506523235,-40.619516289006
1580421622.81846,-0.885023270008332,5.03547722590974,-41.8402380407417
1580421622.82246,-5.34065766384379,4.18097199969475,-42.9388876173039
1580421622.82646,-9.4300755321583,2.96025024795904,-43.7933928435189
1580421622.83046,-13.2753490501259,1.55642023346309,-44.3427176317998
1580421622.83446,-17.6089112687876,0.0305180437933359,-44.1596093690396
1580421622.83845,-21.5152208743418,-1.49538414587619,-43.4271763179981
1580421622.84245,-22.8580148012511,-2.89921416037237,-41.9012741283284
1580421622.84645,-20.5386434729533,-3.57061112382689,-40.0091554131382
1580421622.85045,-14.8622873273823,-3.87579156176093,-37.3846036469063
1580421622.85445,-7.59899290455473,-3.81475547417404,-34.3938353551539
1580421622.85843,-1.0681315327688,-3.69268329900046,-31.4641031509882
1580421622.86243,4.91340505073617,-3.32646677347975,-28.4122987716487
1580421622.86643,9.73525597009234,-3.08232242313261,-25.482566567483
1580421622.87042,14.4350347142747,-2.83817807278547,-22.919050888838
1580421622.87442,19.5620660715647,-2.16678110933094,-20.4776073853666
1580421622.87842,24.322880903334,-1.67849240863666,-18.341344319829
1580421622.88242,28.5954070344089,-1.25123979552905,-16.083009079118
1580421622.88642,32.6848249027237,-0.0305180437933359,-13.8246738384069
1580421622.89042,34.4548714427403,1.19020370794237,-12.2987716487373
1580421622.89442,33.3562218661782,1.8616006713969,-11.810482948043
1580421622.89842,31.0368505378804,1.80056458381023,-12.4208438239109
1580421622.90242,28.2291905088882,1.25123979552905,-13.3974212252995
1580421622.90641,25.8487830930037,1.25123979552905,-14.6181429770352
1580421622.91041,23.4073395895323,1.37331197070262,-15.777828641184
1580421622.91441,20.9658960860609,1.67849240863666,-16.937514305333
1580421622.91841,18.7685969329366,2.28885328450451,-17.8530556191347
1580421622.92241,16.0219729915311,2.7161058976119,-18.5244525825894
1580421622.92641,12.2377355611504,2.41092545967808,-19.4399938963911
1580421622.93041,9.18593118181116,1.61745632104976,-20.050354772259
1580421622.9344,7.53795681696806,1.55642023346309,-20.2334630350194
1580421622.93841,5.76791027695117,1.67849240863666,-20.7217517357137
1580421622.94241,4.18097199969475,1.55642023346309,-21.1490043488211
1580421622.94641,4.66926070038903,1.73952849622333,-21.3931486991683
1580421622.95041,7.59899290455473,2.53299763485165,-21.6372930495154
1580421622.95441,11.9935912108033,3.20439459830618,-21.3931486991683
1580421622.95841,16.6933699549859,3.75371938658736,-21.0269321736475
1580421622.96241,21.5762569619287,3.99786373693451,-20.4776073853666
1580421622.96641,26.6422522316318,4.30304417486832,-19.5620660715647
1580421622.9704,31.0368505378804,4.24200808728165,-18.2803082322423
1580421622.9744,34.027618829633,3.99786373693451,-16.632333867399
1580421622.9784,35.1262684061951,3.99786373693451,-15.3505760280766
1580421622.9824,34.7600518806744,3.63164721141379,-14.8012512397954
1580421622.9864,33.4782940413518,3.02128633554594,-14.923323414969
1580421622.9904,31.8303196765087,1.9226367589838,-15.7167925535973
1580421622.9944,29.5719844357975,1.0681315327688,-16.937514305333
1580421622.9984,27.5577935454337,0.091554131380235,-18.0971999694818
1580421623.00239,26.5201800564582,-0.579842832074519,-18.9517051956968
1580421623.00639,25.6656748302432,-1.19020370794237,-19.3179217212175
1580421623.01039,24.628061341268,-1.98367284657047,-19.4399938963911
1580421623.01439,23.6514839398794,-2.47196154726475,-19.2568856336309
1580421623.01837,23.8345922026397,-2.22781719691761,-19.0127412832837
1580421623.02237,25.7877470054168,-1.61745632104976,-18.341344319829
1580421623.02637,26.7032883192187,-1.12916762035547,-17.486839093614
1580421623.03037,27.191577019913,-1.31227588311594,-16.8154421301595
1580421623.03437,26.5201800564582,-2.47196154726475,-16.6933699549859
1580421623.03836,25.6046387426566,-3.81475547417404,-16.5712977798123
1580421623.04236,27.2526131074997,-3.57061112382689,-15.8999008163576
1580421623.04636,31.3420309758144,-2.04470893415737,-15.1064316777295
1580421623.05036,36.4690623331044,-1.43434805828952,-14.8622873273823
1580421623.05436,41.657129777981,-1.73952849622333,-14.6791790646218
1580421623.05836,47.5165941863124,-1.31227588311594,-14.0077821011673
1580421623.06236,50.5073624780648,-0.579842832074519,-13.8857099259938
1580421623.06636,50.3852903028915,-1.12916762035547,-14.7402151522087
1580421623.07035,49.3476768139162,-1.49538414587619,-16.2661173418783
1580421623.07435,48.0048828870067,-1.67849240863666,-18.4634164950025
1580421623.07835,46.9672693980315,-1.67849240863666,-21.210040436408
1580421623.08235,45.8686198214693,-1.25123979552905,-24.2618448157473
1580421623.08635,44.220645456626,-0.762951094834762,-27.2526131074997
1580421623.09035,41.3519493400472,-1.0070954451819,-30.3654535744258
1580421623.09435,37.8118562600137,-1.8616006713969,-33.9055466544596
1580421623.09836,34.027618829633,-2.96025024795904,-37.750820172427
1580421623.10236,31.5251392385746,-4.36408026245522,-41.9623102159153
1580421623.10635,31.4030670634011,-4.66926070038903,-46.0517280842298
1580421623.11035,33.8445105668725,-3.99786373693451,-49.8359655146105
1580421623.11435,37.2014953841458,-3.32646677347975,-52.9488059815367
1580421623.11835,39.3987945372701,-3.32646677347975,-56.2447547112231
1580421623.12235,40.0091554131379,-3.26543068589308,-59.2355230029755
1580421623.12635,38.1170366979475,-3.63164721141379,-62.6535439078355
1580421623.13035,35.2483405813687,-4.36408026245522,-66.3767452506295
1580421623.13435,32.9900053406575,-4.66926070038903,-70.2830548561838
1580421623.13835,32.3796444647896,-4.54718852521546,-74.2504005493247
1580421623.14234,33.4172579537651,-4.24200808728165,-77.9125658045318
1580421623.14634,34.6379797055008,-3.81475547417404,-81.3305867093918
1580421623.15034,33.8445105668725,-3.87579156176093,-84.8706797894254
1580421623.15434,31.9523918516823,-4.7913328755626,-88.7769893949796
1580421623.15834,29.6940566109711,-5.88998245212474,-92.8664072632944
1580421623.16234,28.1681544213016,-6.25619897764545,-96.8337529564355
1580421623.16634,27.1305409323261,-6.01205462729831,-100.55695429923
1580421623.17033,27.3136491950866,-5.58480201419093,-103.852903028916
1580421623.17433,28.2902265964751,-5.21858548867021,-107.087815671016
1580421623.17831,28.1681544213016,-5.34065766384379,-110.627908751049
1580421623.18231,27.7409018081939,-6.07309071488521,-114.106965743496
1580421623.18631,27.5577935454337,-6.80552376592664,-117.280842298009
1580421623.19031,29.2057679102768,-7.41588464179449,-119.661249713893
1580421623.19431,32.6848249027237,-7.53795681696806,-121.61440451667
1580421623.19831,37.5066758220796,-7.35484855420759,-124.055848020142
1580421623.20231,39.8870832379644,-7.29381246662092,-127.107652399481
1580421623.20631,39.8870832379644,-7.96520943007545,-131.258106355383
1580421623.2103,39.4598306248567,-8.14831769283592,-135.408560311284
1580421623.2143,37.9339284351872,-8.02624551766235,-139.742122529946
1580421623.2183,36.1638818951703,-8.27038986800949,-144.014648661021
1580421623.2223,35.5535210193025,-8.39246204318306,-147.859922178988
1580421623.2263,34.5769436179139,-8.69764248111687,-151.522087434195
1580421623.2303,35.0041962310215,-9.55214770733187,-155.001144426642
1580421623.2343,36.530098420691,-10.8949416342411,-158.175020981155
1580421623.23829,40.3143358510717,-11.6884107728695,-161.043717097734
1580421623.24229,47.0283054856181,-11.3221942473488,-162.996871900511
1580421623.24629,54.77988860914,-10.1014724956131,-164.583810177768
1580421623.25029,62.2873273823147,-9.18593118181116,-165.987640192264
1580421623.25429,69.0012970168614,-8.6366063935302,-167.57457846952
1580421623.2583,74.3114366369118,-8.81971465629044,-169.222552834363
1580421623.2623,77.8515297169452,-8.94178683146401,-170.870527199207
1580421623.2663,80.476081483177,-8.33142595559616,-172.274357213703
1580421623.2703,82.734416723888,-6.5003433279926,-173.800259403372
1580421623.27429,86.7627985046161,-3.20439459830618,-175.020981155108
1580421623.27829,92.9274433508813,-0.0305180437933359,-175.997558556497
1580421623.28229,102.63218127718,2.65506981002522,-176.180666819257
1580421623.28629,111.970702677958,5.58480201419093,-175.448233768215
1580421623.29029,115.938048371099,8.20935378042259,-174.349584191653
1580421623.29429,115.388723582818,9.91836423285258,-173.739223315785
1580421623.29829,111.787594415198,11.0170138094147,-173.983367666133
1580421623.30229,107.57610437171,11.3221942473488,-175.204089417868
1580421623.30628,102.876325627527,11.3221942473488,-177.035172045472
1580421623.31028,98.3596551461051,10.955977721828,-179.415579461357
1580421623.31428,92.6832990005341,9.61318379491877,-181.918059052415
1580421623.31828,83.2837415121694,6.19516289005878,-184.054322117952
1580421623.32228,76.0204470893418,1.61745632104976,-184.84779125658
1580421623.32628,71.6868848706799,-1.43434805828952,-183.504997329671
1580421623.33028,66.9260700389109,-1.37331197070262,-181.551842526894
1580421623.33428,58.197909514,1.49538414587619,-179.781795986877
1580421623.33826,42.8778515297167,4.54718852521546,-179.049362935836
1580421623.34225,24.4449530785075,8.20935378042259,-179.72075989929
1580421623.34625,6.31723506523235,12.8480964370183,-180.941481651026
1580421623.35025,-7.29381246662092,17.8530556191347,-182.894636453803
1580421623.35425,-19.0127412832837,18.9517051956968,-186.434729533837
1580421623.35825,-11.2611581597619,15.3505760280766,-188.754100862135
1580421623.36225,25.1163500419623,5.6458381017776,-177.035172045472
1580421623.36625,68.7571526665142,-11.1390859845883,-144.075684748608
1580421623.37025,81.9409475852599,-23.9566643778132,-105.68398565652
1580421623.37424,63.0807965209433,-16.083009079118,-79.1943236438544
1580421623.37824,28.2291905088882,4.36408026245522,-63.2028686961166
1580421623.38224,-6.07309071488521,16.6933699549859,-48.9204242008088
1580421623.38624,-32.2575722896163,19.6231021591516,-36.6521705958648
1580421623.39024,-52.5215533684291,21.759365224689,-29.3888761730373
1580421623.39424,-74.8607614251925,22.2476539253832,-25.5436026550697
1580421623.39824,-102.63218127718,18.2192721446554,-24.1397726405737
1580421623.40224,-129.671168078126,12.7260242618447,-25.1163500419623
1580421623.40623,-149.141680018311,10.2235446707866,-26.0318913557639
1580421623.41023,-161.226825360495,11.9325551232166,-24.4449530785075
1580421623.41423,-169.771877622645,15.4726482032502,-19.5620660715647
1580421623.41824,-176.852063782712,18.7685969329366,-11.2611581597619
1580421623.42224,-181.734950789654,21.1490043488211,0.091554131380235
1580421623.42624,-183.260852979324,22.2476539253832,14.373998626688
1580421623.43024,-179.476615548943,22.064545662623,31.464103150988
1580421623.43424,-169.28358892195,20.5996795605402,51.36186770428
1580421623.43824,-153.292133974212,19.0737773708704,72.1751735713742
1580421623.44224,-133.089188982986,17.5478751812009,92.5612268253608
1580421623.44623,-109.529259174487,16.6933699549859,111.360341802091
1580421623.45023,-83.1616693369954,16.083009079118,128.511482413977
1580421623.45423,-56.3057907988098,15.8388647287709,143.587396047913
1580421623.45823,-31.0978866254673,15.4726482032502,156.771190966659
1580421623.46223,-10.4066529335469,14.8622873273823,168.062867170214
1580421623.46623,4.24200808728165,14.1908903639276,178.500038147555
1580421623.47023,13.3974212252995,13.0922407873654,188.754100862135
1580421623.47423,18.4023804074159,11.810482948043,199.435416189822
1580421623.47822,20.2944991226061,10.1625085831997,210.421911955444
1580421623.48222,19.5620660715647,7.84313725490188,221.042191195545
1580421623.48622,16.5712977798123,5.46272983901736,231.540398260472
1580421623.49022,11.9935912108033,3.57061112382689,241.550316624704
1580421623.49422,6.98863202868688,1.67849240863666,250.827801937896
1580421623.4982,2.83817807278547,-0.335698481727377,259.67803463798
1580421623.5022,-0.091554131380235,-1.80056458381023,268.345159075303
1580421623.5062,-1.80056458381023,-2.7161058976119,276.401922636759
1580421623.5102,-1.12916762035547,-3.63164721141379,283.665217059586
1580421623.51419,2.10574502174404,-3.75371938658736,290.62333104448
1580421623.51819,7.90417334248878,-3.63164721141379,297.398336766613
1580421623.52219,15.2895399404897,-2.7771419851988,303.807125963226
1580421623.52619,23.0411230640116,-1.73952849622333,309.910734721904
1580421623.53019,29.755092698558,-0.335698481727377,315.892271305409
1580421623.53419,34.7600518806744,1.73952849622333,321.324483100634
1580421623.53819,37.2625314717325,3.57061112382689,326.634622720684
1580421623.54218,37.5066758220796,6.13412680247188,331.700617990387
1580421623.54618,34.1496910048065,8.39246204318306,336.461432822156
1580421623.55018,27.3136491950866,9.18593118181116,340.794995040818
1580421623.55418,18.8296330205233,9.91836423285258,344.640268558785
1580421623.55818,8.88075074387734,10.7118333714809,347.997253376059
1580421623.56218,-1.8616006713969,11.0780498970016,350.865949492638
1580421623.56618,-12.7870603494316,10.7118333714809,353.429465171283
1580421623.57018,-24.0177004654001,10.2235446707866,355.443656061646
1580421623.57417,-34.637979705501,10.650797283894,356.786449988556
1580421623.57816,-44.4647898069734,11.6273746852826,357.09163042649
1580421623.58215,-53.7422751201648,12.7260242618447,356.115053025101
1580421623.58615,-63.0197604333562,13.8246738384069,353.795681696804
1580421623.59015,-72.7244983596552,13.9467460135804,350.621805142291
1580421623.59415,-84.2603189135575,13.5805294880597,346.715495536736
1580421623.59815,-98.6648355840391,12.2987716487373,342.442969405661
1580421623.60215,-115.144579232471,10.2235446707866,337.865262836652
1580421623.60615,-132.600900282292,7.53795681696806,332.738231479362
1580421623.61014,-148.95857175555,4.48615243762879,327.306019684138
1580421623.61414,-163.546196688792,1.43434805828952,322.056916151675
1580421623.61814,-175.75341420615,-1.98367284657047,316.807812619211
1580421623.62214,-185.091935606928,-5.52376592660403,312.169069962615
1580421623.62614,-190.768291752499,-9.4300755321583,307.835507743953
1580421623.63014,-191.805905241474,-13.8857099259938,303.929198138399
1580421623.63414,-187.045090409705,-18.5244525825894,300.144960708019
1580421623.63814,-176.424811169604,-22.6749065384909,296.360723277638
1580421623.64213,-159.700923170825,-26.0318913557639,292.33234149691
1580421623.64613,-137.605859464408,-28.4733348592354,288.120851453422
1580421623.65013,-112.092774853132,-30.8537422751201,283.97039749752
1580421623.65413,-85.6641489280537,-32.6848249027239,279.697871366445
1580421623.65814,-60.8224612802319,-33.2341496910049,275.181200885023
1580421623.66214,-39.0325780117496,-32.1355001144427,269.871061264973
1580421623.66614,-21.759365224689,-29.2668039978637,263.218127718013
1580421623.67014,-10.2235446707866,-25.1773861295489,255.222400244144
1580421623.67414,-5.76791027695117,-19.6231021591516,245.761806668193
1580421623.67813,-9.18593118181116,-13.4584573128861,234.775310902571
1580421623.68213,-18.646524757763,-6.98863202868688,222.873273823148
1580421623.68613,-31.8303196765089,-1.12916762035547,209.628442816816
1580421623.69013,-45.1972228580148,5.21858548867021,195.407034409095
1580421623.69413,-55.2681773098345,9.73525597009234,179.781795986877
1580421623.69813,-59.9069199664302,11.9325551232166,162.569619287403
1580421623.70213,-60.3341725795376,12.664988174258,144.563973449302
1580421623.70613,-57.0382238498512,12.1156633859769,126.436255436026
1580421623.71013,-50.2632181277181,10.8949416342411,108.064393072404
1580421623.71412,-40.8026245517663,9.4911116197452,90.0587472343022
1580421623.71812,-30.7316700999465,8.75867856870377,72.0531013962009
1580421623.72212,-20.6607156481268,8.51453421835663,54.0474555580986
1580421623.72612,-10.7118333714809,9.12489509422448,35.8587014572365
1580421623.73012,-1.67849240863666,10.4676890211338,17.5478751812009
1580421623.73412,6.19516289005878,12.6039520866711,-0.274662394140478
1580421623.7381,13.214312962539,14.1908903639276,-17.0595864805066
1580421623.7421,20.355535210193,15.228503852903,-32.8679331654841
1580421623.74609,27.191577019913,15.228503852903,-47.6997024490731
1580421623.75009,32.7458609903103,14.0077821011673,-62.2262912947281
1580421623.75409,36.1028458075837,11.5663385976959,-76.3256275272754
1580421623.75809,40.4974441138322,11.9935912108033,-89.9366750591287
1580421623.76209,54.6578164339662,29.5109483482108,-100.312809948882
1580421623.76609,54.1084916456853,33.3562218661782,-104.646372167544
1580421623.77009,24.0177004654001,28.046082246128,-112.275883115892
1580421623.77409,-15.1674677653161,38.3001449607079,-126.5583276112
1580421623.77808,-29.5719844357975,36.1028458075837,-141.634241245136
1580421623.78208,13.3363851377126,-1.12916762035547,-144.930189974822
1580421623.78608,72.5413900968952,-46.1738002594034,-130.891889829862
1580421623.79008,94.6974898908979,-61.9821469443809,-112.153810940719
1580421623.79408,57.5875486381319,-48.4931715877012,-101.350423437858
1580421623.79808,-14.7402151522087,-20.9658960860609,-104.951552605478
1580421623.80208,-84.8706797894254,8.39246204318306,-118.745708400092
1580421623.80608,-141.206988632029,32.7458609903103,-136.140993362325
1580421623.81008,-179.476615548943,51.6060120546272,-154.512855725948
1580421623.81407,-185.458152132448,46.784161135271,-169.771877622645
1580421623.81808,-159.884031433585,15.1674677653161,-170.931563286793
1580421623.82208,-136.324101625086,-9.55214770733187,-160.616464484627
1580421623.82608,-124.727244983597,-7.96520943007545,-153.109025711452
1580421623.83008,-110.933089188983,12.1156633859769,-153.841458762493
1580421623.83408,-93.6598764019225,31.8303196765087,-159.700923170825
1580421623.83808,-79.8046845197223,39.5208667124436,-166.903181506065
1580421623.84208,-73.2738231479361,32.9900053406575,-171.969176775769
1580421623.84608,-69.4895857175554,21.6372930495154,-174.105439841306
1580421623.85007,-59.1134508278019,10.8949416342411,-173.250934615091
1580421623.85407,-40.0091554131382,6.07309071488521,-170.99259937438
1580421623.85807,-17.2426947432668,10.2235446707866,-169.588769359884
1580421623.86207,11.4442664225223,19.0127412832837,-167.940794995041
1580421623.86607,40.6805523765925,22.613870450904,-163.485160601206
1580421623.87007,62.2873273823147,21.8814373998625,-156.588082703899
1580421623.87407,74.9828336003666,24.1397726405737,-148.104066529335
1580421623.87807,80.1709010452432,30.609597924773,-139.314869916838
1580421623.88206,76.5087357900361,37.5677119096665,-131.624322880903
1580421623.88606,65.0339513237204,45.2582589456015,-125.581750209812
1580421623.89006,50.8735790035857,51.9722285801477,-120.820935378042
1580421623.89406,38.3611810482946,55.0850690470738,-116.426337071794
1580421623.89804,30.2433813992523,54.5357442587929,-111.482413977264
1580421623.90204,27.3746852826732,51.0566872663462,-105.928130006867
1580421623.90604,29.4499122606239,45.3192950331882,-100.495918211643
1580421623.91004,34.3938353551537,39.5208667124436,-95.857175555047
1580421623.91403,38.3001449607079,33.9665827420461,-92.2560463874265
1580421623.91803,39.0325780117494,28.2902265964751,-89.7535667963682
1580421623.92203,36.4690623331044,22.2476539253832,-87.6783398184175
1580421623.92603,31.0978866254673,16.3881895170518,-85.7862211032273
1580421623.93003,23.1631952391851,10.5287251087204,-83.7109941252766
1580421623.93403,13.4584573128861,5.15754940108332,-81.6968032349125
1580421623.93803,3.32646677347975,-0.0305180437933359,-79.865720607309
1580421623.94203,-5.46272983901736,-5.88998245212474,-77.9125658045318
1580421623.94602,-11.810482948043,-11.0780498970016,-75.2269779507133
1580421623.95002,-15.9609369039445,-14.9843595025559,-71.6868848706797
1580421623.95402,-15.6557564660104,-18.4634164950025,-67.6585030899519
1580421623.95802,-11.2001220721752,-20.8438239108873,-62.8366521705959
1580421623.96202,-6.56137941557949,-22.5528343633173,-57.7096208133059
1580421623.96602,-2.41092545967808,-23.8345922026397,-52.582589456016
1580421623.97002,2.83817807278547,-24.2008087281604,-47.0893415732053
1580421623.97402,9.24696726939806,-22.2476539253832,-41.4129854276341
1580421623.97803,17.4258030060273,-19.0737773708704,-35.8587014572367
1580421623.98203,27.8629739833675,-16.5102616922254,-31.2199588006408
1580421623.98602,37.7508201724268,-14.6181429770352,-27.5577935454337
1580421623.99002,46.1738002594032,-12.5429159990845,-24.5670252536811
1580421623.99402,54.6578164339662,-9.67421988250544,-21.8814373998625
1580421623.99802,63.0807965209433,-6.68345159075307,-19.4399938963911
1580421624.00202,67.5364309147785,-3.99786373693451,-17.6699473563745
1580421624.00602,66.6208896009766,-2.28885328450451,-16.8154421301595
1580421624.01002,61.9821469443805,-0.823987182421661,-16.8154421301595
1580421624.01402,57.2213321126114,1.0070954451819,-17.3037308308537
1580421624.01801,52.7046616311891,2.04470893415737,-18.646524757763
1580421624.02201,47.2114137483786,2.10574502174404,-20.5386434729533
1580421624.02601,40.6805523765925,1.8616006713969,-22.7359426260775
1580421624.03001,33.6003662165253,0.823987182421661,-24.8111696040282
1580421624.03401,27.191577019913,-0.457770656900948,-26.7032883192187
1580421624.03801,22.8580148012511,-0.946059357595232,-27.9240100709544
1580421624.04201,20.355535210193,-0.762951094834762,-28.4733348592354
1580421624.04601,17.6089112687876,-0.762951094834762,-29.0226596475165
1580421624.05,13.3363851377126,-1.25123979552905,-29.9992370489051
1580421624.054,11.1390859845883,-2.34988937209118,-31.3420309758146
1580421624.05798,10.8339055466545,-3.44853894865332,-32.7458609903106
1580421624.06198,9.85732814526591,-4.18097199969475,-34.3938353551539
1580421624.06598,8.69764248111687,-5.09651331349664,-35.7366292820632
1580421624.06998,8.02624551766235,-5.27962157625689,-36.5300984206913
1580421624.07398,7.72106507972831,-4.7913328755626,-36.8352788586253
1580421624.07798,8.02624551766235,-5.03547722590974,-37.0183871213856
1580421624.08198,9.85732814526591,-5.52376592660403,-37.1404592965591
1580421624.08597,13.2753490501259,-4.8523689631495,-36.6521705958648
1580421624.08997,19.3789578088044,-3.57061112382689,-35.0652323186084
1580421624.09397,25.3604943923094,-2.65506981002522,-32.7458609903106
1580421624.09797,29.3888761730373,-1.98367284657047,-30.5485618371861
1580421624.10197,34.5769436179139,-1.19020370794237,-28.5343709468223
1580421624.10597,36.5911345082779,-0.51880674448762,-27.3746852826732
1580421624.10997,36.530098420691,-0.213626306553806,-26.7643244068054
1580421624.11397,37.6897840848401,0.152590218966907,-26.337071793698
1580421624.11796,38.6663614862287,0.762951094834762,-26.1539635309375
1580421624.12196,38.8494697489889,0.70191500724809,-26.4591439688716
1580421624.12596,37.8728923476003,0.152590218966907,-27.2526131074997
1580421624.12996,38.1170366979475,0.152590218966907,-27.8019378957808
1580421624.13396,36.8963149462118,0.457770656900948,-28.4122987716487
1580421624.13797,34.4548714427403,1.37331197070262,-29.3278400854504
1580421624.14197,32.1355001144425,2.22781719691761,-30.609597924773
1580421624.14597,29.2057679102768,1.8616006713969,-31.8303196765089
1580421624.14997,25.7267109178301,0.823987182421661,-33.5393301289389
1580421624.15396,22.4917982757304,-0.640878919661191,-35.7976653696498
1580421624.15796,20.9658960860609,-2.7771419851988,-38.056000610361
1580421624.16196,21.210040436408,-3.57061112382689,-39.3987945372703
1580421624.16596,21.6983291371023,-2.7161058976119,-40.0091554131382
1580421624.16996,24.0177004654001,-1.8616006713969,-40.7415884641796
1580421624.17396,27.1305409323261,-2.10574502174404,-42.1454184786755
1580421624.17796,31.7692835889218,-2.59403372243833,-43.6102845807584
1580421624.18196,36.5911345082779,-2.41092545967808,-44.7089341573205
1580421624.18596,41.2298771648736,-1.25123979552905,-45.746547646296
1580421624.18995,44.7089341573203,0.152590218966907,-46.9062333104448
1580421624.19395,47.5165941863124,0.885023270008332,-48.3710994125277
1580421624.19795,49.65285725185,1.55642023346309,-50.5683985656519
1580421624.20195,50.4463263904781,2.16678110933094,-53.6812390325781
1580421624.20595,50.9956511787591,1.80056458381023,-57.2213321126117
1580421624.20995,50.3852903028915,1.55642023346309,-60.7614251926452
1580421624.21395,48.1879911497672,1.61745632104976,-64.5456626230259
1580421624.21793,45.5024032959486,1.43434805828952,-68.8181887541009
1580421624.22192,41.5960936903944,0.762951094834762,-73.5179674982833
1580421624.22592,37.5066758220796,0.091554131380235,-78.7670710307468
1580421624.22992,33.4782940413518,-0.762951094834762,-84.3213550011444
1580421624.23392,29.755092698558,-1.61745632104976,-90.1808194094758
1580421624.23792,27.0084687571525,-2.83817807278547,-95.7961394674603
1580421624.24192,25.5436026550697,-3.87579156176093,-101.167315175097
1580421624.24592,24.2008087281604,-4.36408026245522,-106.538490882735
1580421624.24992,22.9800869764247,-4.91340505073617,-111.848630502785
1580421624.25391,22.1255817502097,-5.21858548867021,-116.975661860075
1580421624.25791,21.2710765239947,-5.46272983901736,-121.797512779431
1580421624.26191,20.4776073853666,-5.7068741893645,-126.497291523613
1580421624.26591,17.7309834439611,-6.37827115281902,-131.563286793317
1580421624.26991,15.3505760280766,-7.23277637903402,-136.934462500954
1580421624.27391,14.373998626688,-7.90417334248878,-142.244602121004
1580421624.27791,15.8388647287709,-8.39246204318306,-146.822308690013
1580421624.28191,19.3789578088044,-8.14831769283592,-150.728618295567
1580421624.2859,24.322880903334,-7.47692072938116,-153.963530937667
1580421624.2899,28.5343709468223,-6.68345159075307,-157.015335317006
1580421624.2939,31.0368505378804,-6.07309071488521,-160.7385366598
1580421624.29791,33.0510414282444,-5.58480201419093,-165.072098878462
1580421624.30191,35.0652323186082,-5.03547722590974,-169.405661097124
1580421624.30591,37.9339284351872,-3.87579156176093,-173.739223315785
1580421624.30991,40.9246967269396,-2.41092545967808,-178.255893797208
1580421624.31391,43.9765011062789,-1.31227588311594,-182.406347753109
1580421624.31791,47.4555580987258,-0.213626306553806,-185.702296482795
1580421624.3219,50.6294346532386,0.152590218966907,-188.387884336614
1580421624.3259,54.4136720836191,0.335698481727377,-190.951400015259
1580421624.3299,58.6251621271076,0.823987182421661,-193.02662699321
1580421624.3339,63.3249408712904,1.25123979552905,-195.10185397116
1580421624.3379,69.5506218051423,2.22781719691761,-196.62775616083
1580421624.3419,74.0672922865647,3.75371938658736,-197.726405737392
1580421624.3459,79.6215762569623,5.03547722590974,-198.702983138781
1580421624.3499,86.5796902418556,5.6458381017776,-199.191271839475
1580421624.35389,92.5001907377737,5.7068741893645,-199.191271839475
1580421624.35789,97.3220416571298,6.07309071488521,-198.51987487602
1580421624.36189,100.862134737164,6.92759594110021,-197.360189211872
1580421624.36589,104.524299992371,8.94178683146401,-195.895323109789
1580421624.36989,108.125429159991,10.1014724956131,-194.9187457084
1580421624.37389,115.266651407645,10.4676890211338,-194.247348744945
1580421624.37787,122.285801480125,9.91836423285258,-193.20973525597
1580421624.38187,126.314183260853,9.30800335698473,-192.050049591821
1580421624.38587,128.389410238804,7.59899290455473,-191.195544365606
1580421624.38986,129.732204165713,4.18097199969475,-190.341039139391
1580421624.39386,129.304951552605,0.152590218966907,-189.425497825589
1580421624.39786,126.741435873961,-2.47196154726475,-188.632028686961
1580421624.40186,118.623636224918,-4.7913328755626,-187.89959563592
1580421624.40586,107.637140459296,-6.74448767833974,-186.739909971771
1580421624.40986,97.3220416571298,-8.6366063935302,-184.48157473106
1580421624.41386,85.2979324025332,-10.5287251087204,-181.307698176547
1580421624.41786,68.2688639658199,-10.4066529335469,-177.462424658579
1580421624.42185,46.4789806973372,-8.51453421835663,-174.471656366827
1580421624.42585,26.337071793698,-5.6458381017776,-171.847104600595
1580421624.42985,12.1156633859769,-4.24200808728165,-168.368047608148
1580421624.43385,5.88998245212474,-2.59403372243833,-164.034485389487
1580421624.43785,3.63164721141379,0.51880674448762,-158.66330968185
1580421624.44185,-1.80056458381023,3.75371938658736,-154.634927901122
1580421624.44585,-8.33142595559616,8.69764248111687,-154.695963988708
1580421624.44985,-12.1766994735638,13.7026016632333,-160.799572747387
1580421624.45385,-4.42511635004189,15.8388647287709,-167.025253681239
1580421624.45785,11.5663385976959,6.62241550316617,-159.273670557717
1580421624.46185,15.7167925535973,-5.34065766384379,-140.474555580987
1580421624.46585,5.7068741893645,-2.96025024795904,-120.210574502174
1580421624.46985,-8.20935378042259,5.40169375143046,-97.9324025329977
1580421624.47385,-14.5571068894483,5.21858548867021,-68.757152666514
1580421624.47785,-9.67421988250544,1.55642023346309,-36.2249179827575
1580421624.48185,-1.12916762035547,1.73952849622333,-6.31723506523235
1580421624.48585,2.96025024795904,4.60822461280236,18.9517051956968
1580421624.48985,-2.47196154726475,8.14831769283592,38.3611810482946
1580421624.49384,-19.501029983978,11.1390859845883,50.6294346532386
1580421624.49784,-45.441367208362,14.3129625391011,56.3057907988095
1580421624.50184,-74.6166170748454,19.1348134584573,56.5499351491567
1580421624.50584,-102.204928664073,23.5904478522925,53.1319142442967
1580421624.50984,-128.633554589151,25.3604943923094,48.7373159380481
1580421624.51384,-155.367360952163,24.322880903334,46.1738002594032
1580421624.51784,-180.331120775158,22.4307621881437,47.5165941863124
1580421624.52183,-199.801632715343,20.4776073853666,52.9488059815362
1580421624.52583,-210.849164568551,18.0971999694818,62.7145799954224
1580421624.52983,-211.886778057526,15.5336842908368,77.1801327534909
1580421624.53383,-201.205462729839,12.4818799114976,96.2844281681546
1580421624.53781,-179.415579461357,9.4911116197452,118.379491874571
1580421624.54181,-149.507896543832,6.98863202868688,141.817349507896
1580421624.54581,-115.9380483711,5.21858548867021,165.011062790875
1580421624.54981,-83.3447775997558,4.73029678797593,186.434729533837
1580421624.55381,-55.6343938353552,4.48615243762879,205.111772335394
1580421624.5578,-34.0886549172199,4.36408026245522,220.126649881743
1580421624.5618,-16.3881895170518,4.11993591210808,231.662470435645
1580421624.5658,-1.0681315327688,3.38750286106665,241.123064011597
1580421624.5698,11.4442664225223,2.34988937209118,250.156404974441
1580421624.5738,19.6841382467383,1.12916762035547,259.433890287632
1580421624.5778,23.2242313267718,0.213626306553806,269.321736476692
1580421624.5818,22.919050888838,-0.274662394140478,280.125123979553
1580421624.5858,19.8062104219118,-0.579842832074519,291.721980621042
1580421624.58979,14.5571068894483,-0.640878919661191,303.929198138399
1580421624.59379,9.06385900663759,-0.70191500724809,315.770199130236
1580421624.59779,4.91340505073617,-0.213626306553806,326.939803158618
1580421624.60179,2.96025024795904,0.823987182421661,336.949721522851
1580421624.60579,3.44853894865332,2.16678110933094,345.799954222935
1580421624.60979,6.43930724040592,4.05889982452118,353.002212558175
1580421624.61379,10.8339055466545,5.82894636453807,359.044785229267
1580421624.6178,15.777828641184,7.59899290455473,364.415960936904
1580421624.6218,20.7827878233004,9.55214770733187,369.23781185626
1580421624.62579,25.8487830930037,12.0546272983902,373.754482337682
1580421624.62979,31.464103150988,15.2895399404897,378.088044556344
1580421624.63379,36.530098420691,19.0127412832837,382.177462424659
1580421624.63779,40.3143358510717,21.9424734874494,385.839627679866
1580421624.64179,42.4505989166094,24.3839169909209,388.891432059205
1580421624.64579,41.4129854276339,26.2149996185244,391.27183947509
1580421624.64979,37.9339284351872,27.4967574578468,393.041886015106
1580421624.65379,33.2341496910046,29.0836957351032,394.628824292363
1580421624.65778,26.0318913557639,30.4264896620125,396.093690394446
1580421624.66178,16.937514305333,30.4875257495994,397.009231708248
1580421624.66578,6.43930724040592,29.8161287861446,397.497520408942
1580421624.66978,-4.8523689631495,29.3278400854504,396.94819562066
1580421624.67378,-16.5712977798123,28.7785152971694,394.384679942016
1580421624.67778,-29.5719844357975,27.3746852826732,390.051117723354
1580421624.68178,-44.8310063324941,25.3604943923094,384.008545052262
1580421624.68578,-62.1652552071412,23.773556115053,376.806286717022
1580421624.68977,-82.1240558480201,22.1866178377966,368.810559243153
1580421624.69377,-105.256733043412,20.050354772259,359.838254367895
1580421624.69775,-131.807431143664,17.3037308308537,349.401083390555
1580421624.70175,-160.860608834974,13.7636377508202,338.109407186999
1580421624.70575,-190.096894789044,8.81971465629044,326.451514457924
1580421624.70975,-215.793087663081,3.44853894865332,314.854657816434
1580421624.71375,-237.399862668803,-1.61745632104976,303.624017700465
1580421624.71775,-253.696498054475,-6.19516289005878,293.186846723125
1580421624.72175,-263.584344243534,-10.4066529335469,283.482108796826
1580421624.72574,-266.5140764477,-14.2519264515145,274.753948271916
1580421624.72974,-261.997405966277,-17.6699473563745,267.063401235981
1580421624.73374,-251.560234988937,-20.9658960860609,260.349431601434
1580421624.73774,-237.46089875639,-23.773556115053,254.062714579995
1580421624.74174,-221.408407721065,-25.9098191805904,247.470817120623
1580421624.74574,-204.318303196765,-27.9240100709544,239.536125734341
1580421624.74974,-187.106126497292,-29.2057679102768,230.258640421149
1580421624.75374,-172.640573739223,-30.6706340123596,219.272144655528
1580421624.75774,-163.363088426032,-32.4406805523768,206.637674525063
1580421624.76173,-160.55542839704,-32.623788815137,192.782482642863
1580421624.76573,-161.532005798428,-30.5485618371861,178.377965972381
1580421624.76973,-161.470969710842,-26.7032883192187,163.485160601205
1580421624.77373,-157.076371404593,-21.5762569619287,148.226138704509
1580421624.77771,-147.24956130312,-15.7167925535973,133.150225070573
1580421624.78171,-131.50225070573,-10.4676890211338,118.379491874571
1580421624.78571,-109.224078736553,-7.23277637903402,104.219119554436
1580421624.78971,-81.025406271458,-5.21858548867021,90.5470359349965
1580421624.7937,-51.1787594415198,-3.81475547417404,77.2411688410775
1580421624.7977,-23.7125200274661,-2.04470893415737,63.3249408712904
1580421624.8017,-0.70191500724809,-0.274662394140478,48.6762798504615
1580421624.8057,17.4258030060273,1.43434805828952,32.8679331654839
1580421624.8097,30.5485618371861,3.38750286106665,16.083009079118
1580421624.8137,38.9715419241625,5.15754940108332,-1.37331197070262
1580421624.8177,43.9765011062789,6.92759594110021,-18.8906691081102
1580421624.8217,47.3945220111389,8.02624551766235,-36.346990157931
1580421624.8257,51.1787594415196,8.75867856870377,-53.1319142442969
1580421624.82969,56.1226825360491,9.06385900663759,-69.1233691920347
1580421624.83369,61.4938582436862,8.51453421835663,-84.1992828259708
1580421624.83769,66.9871061264976,7.47692072938116,-98.1765468833448
1580421624.84169,72.846570534829,6.37827115281902,-111.116197451743
1580421624.84569,83.1616693369956,11.1390859845883,-121.797512779431
1580421624.84969,108.918898298619,36.530098420691,-127.840085450523
1580421624.85369,115.022507057298,38.9105058365758,-124.727244983597
1580421624.8577,109.040970473793,33.6003662165253,-123.018234531167
1580421624.86169,138.277256427863,31.464103150988,-116.426337071794
1580421624.86569,156.893263141832,2.28885328450451,-103.608758678569
1580421624.86969,160.982681010147,-32.1965362020296,-87.5562676432439
1580421624.87369,135.408560311284,-40.4364080262455,-72.175173571374
1580421624.87769,69.062333104448,-20.1113908598459,-72.7855344472418
1580421624.88169,-1.19020370794237,4.54718852521546,-90.4859998474096
1580421624.88569,-62.7145799954224,21.0879682612344,-114.534218356603
1580421624.88969,-113.557640955215,30.9758144502937,-143.099107347219
1580421624.89368,-138.277256427863,27.9240100709544,-175.93652246891
1580421624.89768,-125.825894560159,14.4960708018616,-199.313344014649
1580421624.90168,-83.9551384756237,4.11993591210808,-194.979781795987
1580421624.90568,-35.6755931944763,-3.93682764934761,-172.396429388876
1580421624.90968,-4.11993591210808,-3.69268329900046,-152.071412222477
1580421624.91368,-1.37331197070262,3.32646677347975,-143.953612573434
1580421624.91768,-25.1773861295489,11.810482948043,-148.77546349279
1580421624.92168,-64.2404821850919,20.904859998474,-161.409933623255
1580421624.92567,-103.242542153048,26.2149996185244,-174.654764629587
1580421624.92967,-129.060807202258,26.7643244068054,-183.688105592432
1580421624.93367,-139.314869916838,20.9658960860609,-186.312657358663
1580421624.93765,-136.751354238193,16.1440451667047,-185.763332570382
1580421624.94165,-121.553368429084,14.6791790646218,-184.359502555886
1580421624.94565,-96.3454642557413,17.0595864805066,-182.528419928283
1580421624.94965,-72.8465705348287,22.2476539253832,-179.964904249638
1580421624.95365,-53.437094682231,29.6940566109711,-175.997558556497
1580421624.95765,-37.4456397344932,34.1496910048065,-169.771877622645
1580421624.96164,-25.4215304798961,34.4548714427403,-162.203402761883
1580421624.96564,-15.5947203784237,33.8445105668725,-154.146639200427
1580421624.96964,-7.90417334248878,35.6755931944761,-147.005416952773
1580421624.97364,-3.63164721141379,38.9715419241625,-141.512169069963
1580421624.97764,-4.91340505073617,42.511635004196,-137.727931639582
1580421624.98164,-9.4300755321583,45.1361867704279,-134.676127260243
1580421624.98564,-13.214312962539,45.6244754711222,-131.563286793317
1580421624.98964,-13.4584573128861,43.2440680552374,-127.168688487068
1580421624.99363,-10.8949416342411,39.5819028000303,-121.24818799115
1580421624.99763,-4.7913328755626,36.2249179827572,-115.083543144885
1580421625.00163,4.91340505073617,33.7224383916989,-109.10200656138
1580421625.00563,16.9985503929197,32.0134279392689,-104.402227817197
1580421625.00963,30.1823453116654,30.5485618371861,-101.106279087511
1580421625.01363,42.2674906538489,28.1681544213016,-98.1765468833448
1580421625.01764,52.2163729304948,25.6656748302432,-94.5143816281377
1580421625.02164,59.357595178149,24.2008087281604,-89.9977111467153
1580421625.02564,63.9963378347452,22.5528343633173,-85.3589684901197
1580421625.02963,65.7053482871752,19.3789578088044,-80.720225833524
1580421625.03363,63.6911573968109,14.6791790646218,-75.7152666514075
1580421625.03763,58.6251621271076,10.1014724956131,-70.0999465934233
1580421625.04163,51.6670481422138,7.47692072938116,-64.7287708857862
1580421625.04563,43.5492484931715,6.19516289005878,-60.212100404364
1580421625.04963,36.2249179827572,4.97444113832307,-56.6720073243305
1580421625.05363,31.0368505378804,2.83817807278547,-54.1084916456855
1580421625.05763,26.8253604943923,0.762951094834762,-51.8501564049745
1580421625.06163,25.2384222171358,-1.80056458381023,-49.5307850766767
1580421625.06562,26.0318913557639,-3.69268329900046,-47.3334859235524
1580421625.06962,25.2384222171358,-4.60822461280236,-45.5634393835355
1580421625.07362,23.0411230640116,-6.07309071488521,-44.2816815442131
1580421625.07762,21.9424734874494,-6.80552376592664,-42.9999237048905
1580421625.08162,20.1113908598459,-5.88998245212474,-41.3519493400474
1580421625.08562,17.0595864805066,-4.8523689631495,-39.459830624857
1580421625.08962,12.6039520866711,-4.42511635004189,-37.6897840848403
1580421625.09361,7.04966811627378,-3.44853894865332,-36.5300984206913
1580421625.09759,3.32646677347975,-2.89921416037237,-36.1028458075839
1580421625.10159,1.55642023346309,-2.83817807278547,-35.8587014572367
1580421625.10559,1.12916762035547,-2.96025024795904,-35.3704127565425
1580421625.10959,2.96025024795904,-3.02128633554594,-34.2717631799803
1580421625.11359,6.19516289005878,-3.20439459830618,-32.2575722896163
1580421625.11759,10.650797283894,-3.38750286106665,-29.8771648737315
1580421625.12159,16.1440451667047,-3.02128633554594,-27.2526131074997
1580421625.12559,21.1490043488211,-2.22781719691761,-24.5059891660944
1580421625.12959,25.482566567483,-1.61745632104976,-21.5762569619287
1580421625.13358,31.1589227130539,-1.0681315327688,-18.5244525825894
1580421625.13758,35.6755931944761,-0.274662394140478,-16.083009079118
1580421625.14158,38.0560006103608,-0.274662394140478,-14.1908903639276
1580421625.14558,40.7415884641794,-0.823987182421661,-12.8480964370183
1580421625.14958,44.0985732814524,-0.579842832074519,-11.6884107728695
1580421625.15358,46.6620889600974,-0.0305180437933359,-11.0170138094147
1580421625.15758,49.65285725185,0.213626306553806,-10.7728694590676
1580421625.16157,52.0943007553215,0.640878919661191,-10.7728694590676
1580421625.16557,53.07087815671,0.946059357595232,-10.955977721828
1580421625.16957,52.9488059815362,1.37331197070262,-11.2001220721752
1580421625.17357,51.5449759670405,1.73952849622333,-11.6884107728695
1580421625.17758,50.2632181277177,1.80056458381023,-12.5429159990845
1580421625.18158,50.2632181277177,2.22781719691761,-13.8246738384069
1580421625.18558,48.7373159380481,2.10574502174404,-15.3505760280766
1580421625.18958,44.8310063324939,1.55642023346309,-16.9985503929197
1580421625.19358,40.3143358510717,1.8616006713969,-18.2192721446554
1580421625.19757,34.7600518806744,2.41092545967808,-18.9517051956968
1580421625.20157,27.8019378957808,2.34988937209118,-20.1724269474325
1580421625.20557,21.3321126115816,1.80056458381023,-22.064545662623
1580421625.20957,17.0595864805066,1.49538414587619,-23.773556115053
1580421625.21357,15.5336842908368,1.61745632104976,-25.3604943923094
1580421625.21757,16.2050812542916,1.31227588311594,-26.337071793698
1580421625.22157,20.2944991226061,1.0070954451819,-26.5812161440451
1580421625.22557,26.4591439688716,1.49538414587619,-25.9708552681773
1580421625.22956,32.6237888151368,1.98367284657047,-25.1163500419623
1580421625.23356,38.6663614862287,2.28885328450451,-24.5059891660944
1580421625.23756,43.4882124055846,2.65506981002522,-24.2008087281604
1580421625.24156,47.3945220111389,3.57061112382689,-23.7125200274661
1580421625.24556,49.1035324635691,4.18097199969475,-23.4073395895323
1580421625.24956,51.1177233539329,4.66926070038903,-22.6749065384909
1580421625.25356,55.0850690470738,5.34065766384379,-21.5762569619287
1580421625.25754,56.6109712367434,6.01205462729831,-20.9658960860609
1580421625.26154,56.7940794995038,5.82894636453807,-21.8204013122759
1580421625.26553,56.0006103608757,4.54718852521546,-24.4449530785075
1580421625.26953,54.6578164339662,2.22781719691761,-28.046082246128
1580421625.27353,53.4981307698176,0.946059357595232,-31.1589227130539
1580421625.27753,53.6812390325777,1.25123979552905,-33.3562218661784
1580421625.28153,55.0240329594872,1.98367284657047,-35.187304493782
1580421625.28553,55.8175020981153,1.67849240863666,-37.9339284351875
1580421625.28953,54.7188525215533,0.70191500724809,-42.0843823910889
1580421625.29353,51.5449759670405,-0.579842832074519,-47.0893415732053
1580421625.29752,47.3945220111389,-1.55642023346309,-52.582589456016
1580421625.30152,43.6102845807582,-1.8616006713969,-57.7706569008926
1580421625.30552,38.4832532234682,-1.98367284657047,-63.1418326085297
1580421625.30952,33.4782940413518,-2.53299763485165,-68.6350804913404
1580421625.31352,29.5109483482108,-3.14335851071951,-73.8231479362173
1580421625.31752,26.337071793698,-3.20439459830618,-78.6449988555732
1580421625.32152,23.7125200274661,-3.32646677347975,-83.3447775997558
1580421625.32552,20.8438239108873,-3.38750286106665,-88.4107728694589
1580421625.32951,18.8906691081102,-3.75371938658736,-94.0260929274434
1580421625.33351,18.8906691081102,-3.99786373693451,-99.7024490730146
1580421625.33752,20.355535210193,-3.75371938658736,-104.951552605478
1580421625.34152,22.5528343633173,-3.87579156176093,-109.773403524834
1580421625.34552,25.2384222171358,-4.30304417486832,-114.534218356603
1580421625.34952,27.6798657206073,-4.48615243762879,-119.050888838025
1580421625.35352,28.5954070344089,-4.60822461280236,-123.750667582208
1580421625.35752,27.0695048447394,-4.97444113832307,-128.938735027085
1580421625.36152,24.8111696040282,-5.40169375143046,-134.370946822309
1580421625.36551,21.8204013122759,-5.76791027695117,-140.169375143053
1580421625.36951,19.3179217212175,-6.01205462729831,-145.723659113451
1580421625.37351,17.486839093614,-5.82894636453807,-150.728618295567
1580421625.37751,15.8388647287709,-5.58480201419093,-155.550469214923
1580421625.38151,14.3129625391011,-6.07309071488521,-160.7385366598
1580421625.38551,14.1298542763409,-7.04966811627378,-165.49935149157
1580421625.38951,15.5336842908368,-7.11070420386045,-169.954985885405
1580421625.39351,17.8530556191347,-6.01205462729831,-173.800259403372
1580421625.39751,20.1724269474325,-3.99786373693451,-177.401388570993
1580421625.4015,22.8580148012511,-2.10574502174404,-180.819409475853
1580421625.4055,25.2384222171358,-0.946059357595232,-184.420538643473
1580421625.4095,28.046082246128,-0.335698481727377,-187.167162584878
1580421625.4135,31.8303196765087,0.274662394140478,-188.632028686961
1580421625.41748,35.9197375448232,0.823987182421661,-189.669642175937
1580421625.42148,40.3753719386586,1.37331197070262,-190.890363927672
1580421625.42548,46.5400167849239,1.31227588311594,-192.355230029755
1580421625.42948,54.4136720836191,1.67849240863666,-193.881132219425
1580421625.43348,62.9587243457695,2.96025024795904,-195.223926146334
1580421625.43747,70.8323796444652,4.73029678797593,-196.44464789807
1580421625.44147,78.4008545052266,6.25619897764545,-197.543297474632
1580421625.44547,86.7017624170294,7.47692072938116,-197.787441824979
1580421625.44947,96.1623559929808,7.90417334248878,-197.360189211872
1580421625.45347,107.331960021363,7.90417334248878,-196.139467460136
1580421625.45747,119.172961013199,8.75867856870377,-194.125276569772
1580421625.46147,133.333333333333,11.2611581597619,-191.805905241474
1580421625.46546,145.052262149996,12.9091325246052,-190.341039139391
1580421625.46946,155.916685740444,12.7870603494316,-189.547570000763
1580421625.47346,163.851377126726,12.0546272983902,-188.326848249027
1580421625.47746,164.888990615701,11.6273746852826,-187.411306935225
1580421625.48146,161.654077973602,9.67421988250544,-186.861982146944
1580421625.48546,156.221866178378,6.86655985351331,-185.946440833143
1580421625.48946,148.043030441749,3.87579156176093,-185.152971694514
1580421625.49346,139.375906004425,2.53299763485165,-184.420538643473
1580421625.49747,127.840085450523,2.04470893415737,-183.566033417258
1580421625.50146,112.581063553826,-0.946059357595232,-182.528419928283
1580421625.50546,97.1389333943694,-4.42511635004189,-180.758373388266
1580421625.50946,78.8891432059208,-6.92759594110021,-177.767605096513
1580421625.51346,58.0148012512395,-5.88998245212474,-173.861295490959
1580421625.51746,37.8118562600137,-1.43434805828952,-168.856336308843
1580421625.52146,25.3604943923094,3.69268329900046,-161.959258411536
1580421625.52546,28.2291905088882,7.90417334248878,-152.071412222477
1580421625.52946,36.0418097199968,8.5755703059433,-140.291447318227
1580421625.53345,41.2298771648736,9.24696726939806,-129.7932402533
1580421625.53745,45.929655909056,9.97940032043948,-123.933775844968
1580421625.54145,44.8920424200808,7.72106507972831,-125.093461509117
1580421625.54545,39.5819028000303,6.07309071488521,-134.004730296788
1580421625.54945,37.9339284351872,8.27038986800949,-144.136720836194
1580421625.55345,39.3987945372701,6.98863202868688,-147.188525215534
1580421625.55745,36.8963149462118,8.5755703059433,-143.282215609979
1580421625.56145,39.0325780117494,16.8154421301595,-131.68535896849
1580421625.56545,41.0467689021132,19.4399938963911,-106.111238269627
1580421625.56944,41.3519493400472,14.1298542763409,-68.6961165789273
1580421625.57344,42.1454184786753,9.91836423285258,-30.7927061875332
1580421625.57742,37.6897840848401,8.51453421835663,0.396734569314049
1580421625.58142,25.482566567483,6.98863202868688,23.9566643778132
1580421625.58542,7.53795681696806,4.97444113832307,40.9857328145265
1580421625.58942,-15.6557564660104,3.20439459830618,52.0943007553215
1580421625.59342,-41.3519493400474,3.75371938658736,57.9537651636529
1580421625.59742,-63.5080491340505,7.90417334248878,59.1744869153886
1580421625.60141,-77.1190966659037,12.664988174258,57.4654764629586
1580421625.60541,-83.2837415121689,15.2895399404897,54.6578164339662
1580421625.60941,-88.5328450446325,15.3505760280766,52.7656977187762
1580421625.61341,-98.3596551461053,12.9701686121919,53.6812390325777
1580421625.61741,-115.205615320058,9.61318379491877,57.8927290760662
1580421625.62141,-137.239642938888,6.92759594110021,65.5222400244147
1580421625.62541,-160.006103608759,4.36408026245522,76.3256275272756
1580421625.62941,-178.927290760662,2.41092545967808,89.570458533608
1580421625.6334,-190.341039139391,0.396734569314049,104.829480430305
1580421625.6374,-192.416266117342,-1.67849240863666,121.43129625391
1580421625.6414,-184.420538643473,-2.7161058976119,138.277256427863
1580421625.6454,-167.696650644694,-2.41092545967808,154.940108339055
1580421625.6494,-145.54055085069,-1.43434805828952,170.504310673686
1580421625.6534,-120.820935378042,-0.396734569314049,184.481574731059
1580421625.65741,-96.3454642557413,0.51880674448762,196.871900511178
1580421625.66141,-74.0672922865645,0.762951094834762,208.163576714733
1580421625.66541,-55.3292133974212,-0.152590218966907,218.66178377966
1580421625.66941,-40.619516289006,-1.80056458381023,228.671702143893
1580421625.6734,-30.0602731364918,-3.69268329900046,238.925764858473
1580421625.6774,-22.8580148012511,-5.34065766384379,249.301899748226
1580421625.6814,-18.7685969329366,-6.86655985351331,260.166323338674
1580421625.6854,-17.6699473563745,-7.66002899214163,270.908674753948
1580421625.6894,-19.195849546044,-7.90417334248878,281.406881818875
1580421625.6934,-22.7359426260775,-7.47692072938116,291.355764095521
1580421625.6974,-27.0084687571525,-6.43930724040592,300.450141145952
1580421625.7014,-31.5251392385749,-4.7913328755626,308.751049057755
1580421625.70539,-35.6145571068896,-3.14335851071951,316.197451743344
1580421625.70939,-38.4832532234684,-1.19020370794237,322.789349202716
1580421625.71339,-40.0701915007248,0.70191500724809,328.953994048982
1580421625.71739,-39.2767223620967,2.16678110933094,334.935530632486
1580421625.72139,-35.8587014572367,3.50957503624022,341.100175478752
1580421625.72539,-30.4875257495994,4.7913328755626,347.325856412604
1580421625.72939,-23.6514839398794,5.7068741893645,353.612573434043
1580421625.73339,-16.9985503929197,6.43930724040592,360.082398718242
1580421625.73737,-12.0546272983902,7.41588464179449,366.430151827268
1580421625.74136,-9.24696726939806,8.69764248111687,372.106507972839
1580421625.74536,-9.36903944457163,10.4676890211338,377.172503242542
1580421625.74936,-11.6273746852826,12.4818799114976,381.261921110857
1580421625.75336,-15.5336842908368,14.373998626688,384.740978103303
1580421625.75736,-20.4165712977797,15.5947203784237,387.426565957122
1580421625.76136,-24.7501335164416,16.4492256046387,389.684901197833
1580421625.76536,-27.8019378957808,17.8530556191347,391.760128175784
1580421625.76935,-28.5343709468223,19.8062104219118,393.102922102693
1580421625.77335,-27.4357213702601,20.8438239108873,394.567788204776
1580421625.77735,-25.7267109178301,20.4165712977797,395.605401693751
1580421625.78135,-25.3604943923094,19.7451743343252,395.605401693751
1580421625.78535,-27.9850461585411,19.5620660715647,394.323643854429
1580421625.78935,-34.8821240558482,19.5620660715647,390.966659037156
1580421625.79335,-46.8451972228581,19.6841382467383,386.022735942626
1580421625.79735,-62.775616083009,19.9282825970854,379.736018921187
1580421625.80134,-81.3916227969787,19.1348134584573,372.533760585946
1580421625.80534,-100.74006256199,18.1582360570687,364.476997024491
1580421625.80934,-119.172961013199,16.5712977798123,355.687800411994
1580421625.81334,-135.164415960937,14.4960708018616,346.349279011215
1580421625.81735,-148.287174792096,11.7494468604561,336.400396734569
1580421625.82135,-158.84641794461,8.81971465629044,326.268406195163
1580421625.82535,-167.513542381933,6.07309071488521,315.892271305409
1580421625.82935,-174.654764629587,2.7771419851988,305.271992065308
1580421625.83335,-179.72075989929,-0.70191500724809,294.834821087968
1580421625.83735,-182.101167315175,-4.36408026245522,284.580758373388
1580421625.84134,-182.711528191043,-8.75867856870377,274.265659571221
1580421625.84534,-182.406347753109,-12.7870603494316,263.767452506294
1580421625.84934,-181.551842526894,-15.777828641184,252.231631952392
1580421625.85334,-180.086976424811,-17.1206225680933,239.35301747158
1580421625.85734,-177.035172045472,-16.8154421301595,224.643320363165
1580421625.86134,-172.457465476463,-16.3271534294652,208.224612802319
1580421625.86534,-166.903181506065,-15.0453955901426,190.402075226978
1580421625.86934,-160.311284046693,-13.3974212252995,172.335393301289
1580421625.87333,-152.925917448692,-11.9325551232166,154.940108339055
1580421625.87733,-144.869153887236,-9.4300755321583,137.605859464408
1580421625.88133,-132.600900282292,-6.31723506523235,121.004043640803
1580421625.88533,-110.444800488289,-3.99786373693451,105.378805218586
1580421625.88933,-79.5605401693751,-1.12916762035547,90.3028915846494
1580421625.89333,-44.6478980697339,3.20439459830618,74.4945448996723
1580421625.89731,-10.1625085831997,8.14831769283592,56.7330434119172
1580421625.90131,20.1724269474325,12.2377355611504,37.0183871213853
1580421625.9053,43.2440680552374,14.7402151522087,15.3505760280766
1580421625.9093,58.197909514,14.923323414969,-7.11070420386045
1580421625.9133,65.7663843747619,14.6181429770352,-30.3654535744258
1580421625.9173,67.5364309147785,14.4960708018616,-53.1319142442969
1580421625.9213,65.0339513237204,14.5571068894483,-75.043869687953
1580421625.9253,60.8224612802319,14.373998626688,-96.162355992981
1580421625.9293,58.1368734264133,14.3129625391011,-116.060120546273
1580421625.9333,70.2830548561838,29.4499122606239,-132.661936369879
1580421625.9373,97.566186007477,50.4463263904781,-140.23041123064
1580421625.94129,99.0310521095598,40.9857328145265,-139.986266880293
1580421625.94529,114.168001831083,33.6003662165253,-139.131761654078
1580421625.94929,160.311284046692,13.519493400473,-127.656977187762
1580421625.95329,191.256580453193,-35.6145571068896,-109.346150911727
1580421625.95729,189.364461738003,-76.0204470893416,-82.6733806363011
1580421625.96129,132.234683756771,-73.029678797589,-64.6677347981995
1580421625.96529,51.0566872663462,-35.7976653696498,-76.8139162279697
1580421625.96929,-20.050354772259,-1.37331197070262,-106.782635233082
1580421625.97328,-98.2375829709317,20.1113908598459,-139.009689478904
1580421625.97726,-160.37232013428,30.4264896620125,-175.265125505455
1580421625.98126,-176.791027695125,25.7267109178301,-208.224612802319
1580421625.98526,-150.789654383154,12.2377355611504,-217.074845502403
1580421625.98926,-98.725871671626,-5.95101853971164,-196.383611810483
1580421625.99326,-55.7564660105288,-13.4584573128861,-168.368047608148
1580421625.99726,-45.9296559090562,0.823987182421661,-152.742809185931
1580421626.00126,-59.7848477912567,23.8345922026397,-153.170061799039
1580421626.00525,-88.4718089570458,37.2625314717325,-162.691691462577
1580421626.00925,-122.285801480125,39.948119325551,-175.204089417868
1580421626.01325,-151.766231784542,36.7132066834515,-184.603646906233
1580421626.01725,-175.082017242695,27.6798657206073,-188.570992599374
1580421626.02125,-186.800946059358,19.3179217212175,-189.242389562829
1580421626.02525,-183.13878080415,15.5336842908368,-187.350270847639
1580421626.02925,-173.861295490959,15.6557564660104,-184.908827344167
1580421626.03325,-157.503624017701,17.6699473563745,-183.199816891737
1580421626.03725,-131.441214618143,18.2803082322423,-179.53765163653
1580421626.04124,-105.806057831693,15.1674677653161,-173.006790264744
1580421626.04524,-82.9785610742351,11.810482948043,-164.888990615702
1580421626.04924,-60.9445334554055,11.4442664225223,-156.710154879072
1580421626.05324,-38.5442893110553,15.4116121156633,-150.118257419699
1580421626.05725,-19.6841382467383,23.0411230640116,-145.235370412757
1580421626.06125,-8.75867856870377,30.609597924773,-141.695277332723
1580421626.06525,-0.335698481727377,35.4314488441289,-138.52140077821
1580421626.06925,13.519493400473,35.9197375448232,-134.004730296788
1580421626.07325,33.4782940413518,33.8445105668725,-126.314183260853
1580421626.07724,54.5357442587929,32.2575722896161,-115.877012283513
1580421626.08124,70.0389105058366,34.027618829633,-105.134660868238
1580421626.08524,79.1943236438547,38.0560006103608,-95.9182116426339
1580421626.08924,85.5420767528803,41.8402380407415,-88.3497367818723
1580421626.09324,91.4625772487984,43.9765011062789,-81.7578393224994
1580421626.09724,96.4065003433279,43.7933928435186,-75.7763027389944
1580421626.10124,100.190737773709,40.6195162890058,-70.1609826810102
1580421626.10524,102.998397802701,35.7976653696496,-64.9729152361333
1580421626.10923,104.097047379263,31.0978866254673,-60.2731364919509
1580421626.11323,104.219119554436,25.8487830930037,-56.000610360876
1580421626.11723,102.815289539941,20.2944991226061,-53.0098420691234
1580421626.12123,99.4583047226674,14.6791790646218,-51.2397955291067
1580421626.12523,93.0495155260551,9.36903944457163,-50.1411459525445
1580421626.12923,81.8188754100865,4.66926070038903,-49.8970016021974
1580421626.13323,65.7053482871752,0.0305180437933359,-50.3852903028917
1580421626.13721,47.7607385366596,-4.18097199969475,-51.5449759670405
1580421626.1412,32.0744640268558,-8.27038986800949,-53.1319142442969
1580421626.1452,17.6089112687876,-10.955977721828,-55.5123216601817
1580421626.1492,4.24200808728165,-12.8480964370183,-57.8316929884795
1580421626.1532,-6.43930724040592,-15.9609369039445,-59.9679560540169
1580421626.1572,-14.8012512397954,-18.9517051956968,-61.1886778057526
1580421626.1612,-19.8062104219118,-21.4541847867551,-61.4328221560997
1580421626.1652,-22.9800869764247,-22.1255817502097,-59.8458838788433
1580421626.1692,-25.1163500419623,-21.4541847867551,-57.2213321126117
1580421626.17319,-25.9708552681773,-19.8062104219118,-54.291599908446
1580421626.17719,-24.1397726405737,-17.7309834439611,-51.4839398794538
1580421626.18119,-18.5854886701761,-15.1064316777295,-48.0048828870069
1580421626.18519,-10.8949416342411,-12.2377355611504,-43.5492484931717
1580421626.18919,-2.89921416037237,-9.73525597009234,-38.910505836576
1580421626.19319,7.23277637903402,-7.72106507972831,-34.332799267567
1580421626.19719,19.1348134584573,-6.01205462729831,-29.8771648737315
1580421626.20119,27.8629739833675,-4.54718852521546,-25.8487830930037
1580421626.20519,34.1496910048065,-4.11993591210808,-22.4307621881437
1580421626.20918,40.1312275883115,-3.87579156176093,-19.3179217212175
1580421626.21318,46.8451972228579,-3.38750286106665,-16.3881895170518
1580421626.21719,53.8033112077514,-2.04470893415737,-13.9467460135804
1580421626.22119,57.2823682001981,-0.457770656900948,-12.5429159990845
1580421626.22519,57.9537651636529,-0.213626306553806,-11.9325551232166
1580421626.22919,56.7330434119172,0.152590218966907,-11.9325551232166
1580421626.23319,54.5967803463795,0.823987182421661,-12.4208438239109
1580421626.23719,51.1177233539329,1.25123979552905,-13.5805294880597
1580421626.24119,46.1127641718165,0.70191500724809,-15.5947203784237
1580421626.24518,40.6195162890058,-0.335698481727377,-18.0971999694818
1580421626.24918,35.7976653696496,-1.12916762035547,-20.355535210193
1580421626.25318,31.4030670634011,-1.31227588311594,-22.2476539253832
1580421626.25718,27.4357213702601,-1.49538414587619,-23.9566643778132
1580421626.26118,23.468375677119,-1.73952849622333,-25.3604943923094
1580421626.26518,18.8906691081102,-1.49538414587619,-26.5812161440451
1580421626.26918,15.6557564660104,-1.37331197070262,-27.5577935454337
1580421626.27318,11.6273746852826,-1.61745632104976,-28.7785152971694
1580421626.27717,7.35484855420759,-1.8616006713969,-29.9992370489051
1580421626.28117,5.6458381017776,-1.73952849622333,-30.609597924773
1580421626.28517,5.21858548867021,-1.37331197070262,-30.9758144502937
1580421626.28917,5.03547722590974,-1.12916762035547,-31.0978866254673
1580421626.29317,5.88998245212474,-0.946059357595232,-31.0368505378804
1580421626.29715,8.5755703059433,-0.762951094834762,-30.609597924773
1580421626.30115,13.0312046997788,-0.946059357595232,-29.5109483482108
1580421626.30515,19.195849546044,-0.274662394140478,-27.7409018081939
1580421626.30915,25.3604943923094,0.640878919661191,-25.8487830930037
1580421626.31314,31.2809948882275,1.37331197070262,-24.1397726405737
1580421626.31714,36.530098420691,2.04470893415737,-23.0411230640116
1580421626.32114,40.5584802014189,2.22781719691761,-22.1255817502097
1580421626.32514,42.6947432669565,2.47196154726475,-21.5762569619287
1580421626.32914,43.4882124055846,2.53299763485165,-21.4541847867551
1580421626.33314,44.3427176317996,2.65506981002522,-21.3931486991683
1580421626.33714,45.8686198214693,2.96025024795904,-21.1490043488211
1580421626.34114,46.1127641718165,3.32646677347975,-21.5762569619287
1580421626.34513,45.4413672083617,2.7161058976119,-22.7359426260775
1580421626.34913,44.2816815442129,2.10574502174404,-24.3839169909209
1580421626.35313,43.7323567559317,1.25123979552905,-26.4591439688716
1580421626.35713,43.6713206683451,0.457770656900948,-28.4733348592354
1580421626.36113,44.2816815442129,0.396734569314049,-30.3654535744258
1580421626.36513,45.6855115587089,0.51880674448762,-32.3186083772032
1580421626.36913,45.9906919966429,0.946059357595232,-34.3938353551539
1580421626.37313,45.2582589456015,1.12916762035547,-36.7742427710384
1580421626.37714,42.5726710917829,0.762951094834762,-39.5819028000305
1580421626.38113,38.7273975738153,-0.274662394140478,-43.1219958800641
1580421626.38513,34.7600518806744,-1.0681315327688,-46.9672693980317
1580421626.38913,31.3420309758144,-1.49538414587619,-51.1787594415198
1580421626.39313,29.4499122606239,-2.04470893415737,-55.5123216601817
1580421626.39713,31.0978866254673,-2.7771419851988,-59.357595178149
1580421626.40113,31.8303196765087,-3.20439459830618,-63.1418326085297
1580421626.40513,30.609597924773,-3.38750286106665,-67.2312504768445
1580421626.40913,29.4499122606239,-2.89921416037237,-71.3817044327459
1580421626.41313,28.2902265964751,-2.47196154726475,-75.5321583886473
1580421626.41712,25.5436026550697,-2.59403372243833,-79.9267566948959
1580421626.42112,22.613870450904,-2.89921416037237,-84.8096437018387
1580421626.42512,20.1724269474325,-3.08232242313261,-89.570458533608
1580421626.42912,18.2192721446554,-2.59403372243833,-94.2092011902039
1580421626.43312,17.4258030060273,-2.22781719691761,-98.7869077592127
1580421626.43712,17.0595864805066,-2.04470893415737,-103.181506065461
1580421626.44112,16.1440451667047,-1.98367284657047,-107.454032196536
1580421626.44511,13.7026016632333,-2.16678110933094,-111.787594415198
1580421626.44911,9.67421988250544,-2.65506981002522,-116.853589684901
1580421626.45311,5.6458381017776,-3.44853894865332,-122.163729304952
1580421626.45709,2.83817807278547,-3.93682764934761,-127.290760662242
1580421626.46109,1.80056458381023,-4.11993591210808,-132.051575494011
1580421626.46509,1.31227588311594,-4.48615243762879,-136.690318150607
1580421626.46909,1.49538414587619,-5.21858548867021,-141.084916456855
1580421626.47309,2.47196154726475,-5.88998245212474,-145.235370412757
1580421626.47709,4.11993591210808,-6.13412680247188,-149.324788281071
1580421626.48108,5.88998245212474,-5.58480201419093,-153.475242236972
1580421626.48508,8.27038986800949,-4.66926070038903,-157.625696192874
1580421626.48908,9.79629205767901,-3.81475547417404,-161.470969710842
1580421626.49308,10.955977721828,-3.26543068589308,-165.255207141222
1580421626.49708,12.7260242618447,-3.44853894865332,-169.10048065919
1580421626.50108,14.923323414969,-3.38750286106665,-172.396429388876
1580421626.50508,19.0737773708704,-2.41092545967808,-175.509269855802
1580421626.50908,24.8111696040282,-1.0681315327688,-178.377965972381
1580421626.51307,31.9523918516823,0.885023270008332,-181.002517738613
1580421626.51707,38.4222171358815,2.65506981002522,-183.627069504845
1580421626.52107,44.1596093690393,3.93682764934761,-186.55680170901
1580421626.52507,48.6152437628748,5.15754940108332,-189.425497825589
1580421626.52907,51.4839398794534,6.37827115281902,-192.050049591821
1580421626.53307,53.2539864194705,7.7821011673152,-194.491493095293
1580421626.53708,54.5357442587929,9.61318379491877,-196.566720073243
1580421626.54108,56.48889906157,11.4442664225223,-198.031586175326
1580421626.54508,60.3341725795376,13.4584573128861,-198.580910963607
1580421626.54907,67.0481422140842,14.8622873273823,-198.397802700847
1580421626.55307,74.4945448996723,16.083009079118,-197.604333562219
1580421626.55707,82.0019836728466,17.1816586556802,-196.566720073243
1580421626.56107,89.8146028839551,18.2192721446554,-194.857709620813
1580421626.56507,96.1013199053941,19.501029983978,-193.148699168383
1580421626.56907,105.317769130999,20.7217517357137,-190.890363927672
1580421626.57307,117.586022735943,22.1866178377966,-187.838559548333
1580421626.57707,130.403601129168,22.4307621881437,-184.176394293126
1580421626.58106,145.17433432517,21.1490043488211,-179.476615548943
1580421626.58506,158.663309681849,19.3789578088044,-173.617151140612
1580421626.58906,167.940794995041,18.341344319829,-167.269398031586
1580421626.59306,172.274357213702,18.0361638818952,-161.104753185321
1580421626.59706,171.847104600595,17.6089112687876,-155.733577477684
1580421626.60106,168.429083695735,15.3505760280766,-151.094834821088
1580421626.60506,164.766918440528,12.9701686121919,-146.578164339666
1580421626.60906,154.757000076295,11.505302510109,-142.244602121004
1580421626.61305,138.704509040971,10.0404364080262,-139.009689478904
1580421626.61703,121.492332341497,10.650797283894,-137.361715114061
1580421626.62103,105.012588693065,10.8949416342411,-137.544823376822
1580421626.62503,94.9416342412451,10.5287251087204,-138.643472953384
1580421626.62903,85.6641489280537,9.91836423285258,-138.887617303731
1580421626.63303,75.715266651408,10.4676890211338,-137.850003814755
1580421626.63703,68.5740444037538,12.9091325246052,-135.28648813611
1580421626.64103,67.6585030899523,16.0219729915311,-129.732204165713
1580421626.64503,71.0154879072252,16.3881895170518,-121.736476691844
1580421626.64902,71.9310292210271,13.3974212252995,-113.984893568322
1580421626.65302,70.7103074692914,8.39246204318306,-108.613717860685
1580421626.65702,70.0389105058366,0.0305180437933359,-103.669794766156
1580421626.66102,69.428549629969,-14.5571068894483,-95.307850766766
1580421626.66502,62.8366521705962,-27.0084687571525,-85.7862211032273
1580421626.66902,48.9814602883953,-28.5343709468223,-79.1943236438544
1580421626.67302,32.9900053406575,-19.6841382467383,-74.3724727244983
1580421626.67702,20.7217517357137,-10.3456168459602,-66.8039978637369
1580421626.68102,15.4116121156633,-6.07309071488521,-53.437094682231
1580421626.68501,16.8154421301595,-4.42511635004189,-35.492484931716
1580421626.68901,20.7827878233004,-3.14335851071951,-16.2661173418783
1580421626.69301,22.1255817502097,-4.36408026245522,3.08232242313261
1580421626.69702,19.8062104219118,-8.51453421835663,21.2710765239947
1580421626.70102,14.1908903639276,-12.6039520866711,37.5066758220796
1580421626.70502,5.95101853971164,-13.7026016632333,51.0566872663462
1580421626.70902,-4.42511635004189,-11.1390859845883,61.9211108567938
1580421626.71302,-16.2661173418783,-6.62241550316617,70.2220187685971
1580421626.71702,-28.5343709468223,-2.47196154726475,76.4476997024494
1580421626.72101,-40.6805523765927,0.946059357595232,81.0864423590451
1580421626.72501,-52.0943007553217,2.89921416037237,84.9317158770123
1580421626.72901,-63.2639047837033,3.69268329900046,88.2276646066989
1580421626.73301,-74.3114366369116,4.11993591210808,91.889829861906
1580421626.73701,-86.152437628748,4.30304417486832,95.9182116426337
1580421626.74101,-98.725871671626,4.42511635004189,100.007629510948
1580421626.74501,-111.543450064851,4.36408026245522,104.768444342718
1580421626.749,-123.018234531167,4.18097199969475,110.017547875181
1580421626.753,-131.136034180209,3.99786373693451,115.877012283513
1580421626.757,-135.10337987335,3.44853894865332,122.407873655299
1580421626.761,-134.737163347829,3.26543068589308,129.427023727779
1580421626.765,-130.15945677882,3.32646677347975,136.934462500953
1580421626.769,-121.980621042191,3.14335851071951,144.869153887236
1580421626.773,-111.17723353933,2.59403372243833,153.292133974212
1580421626.77698,-99.6414129854277,1.19020370794237,161.837186236362
1580421626.78098,-87.9835202563515,-0.640878919661191,170.321202410925
1580421626.78497,-76.8749523155566,-2.10574502174404,179.049362935836
1580421626.78897,-68.9402609292745,-3.08232242313261,188.204776073854
1580421626.79297,-65.2780956740673,-3.32646677347975,197.177080949111
1580421626.79697,-63.1418326085297,-2.7161058976119,206.271457999542
1580421626.80097,-60.3952086671245,-2.16678110933094,215.609979400321
1580421626.80497,-56.4278629739833,-1.8616006713969,225.131609063859
1580421626.80897,-51.8501564049745,-2.04470893415737,234.592202639811
1580421626.81297,-48.6762798504617,-2.41092545967808,243.808651865415
1580421626.81696,-47.6386663614862,-2.22781719691761,252.964065003433
1580421626.82096,-48.6152437628748,-1.25123979552905,261.448081177996
1580421626.82496,-51.0566872663462,-0.091554131380235,269.199664301518
1580421626.82896,-53.3760585946441,0.823987182421661,276.340886549172
1580421626.83296,-55.0240329594874,1.61745632104976,282.566567483024
1580421626.83696,-55.9395742732891,2.16678110933094,288.120851453422
1580421626.84096,-56.7330434119174,2.83817807278547,293.247882810712
1580421626.84496,-57.8316929884795,3.75371938658736,298.252841992828
1580421626.84895,-59.0524147402152,4.66926070038903,303.135728999771
1580421626.85295,-60.7003891050583,5.58480201419093,307.957579919127
1580421626.85696,-62.1042191195545,6.19516289005878,312.718394750897
1580421626.86096,-63.5690852216374,6.56137941557949,317.296101319906
1580421626.86496,-64.9729152361333,6.98863202868688,321.324483100634
1580421626.86896,-66.0715648126954,7.66002899214163,324.925612268254
1580421626.87296,-66.6819256885633,8.33142595559616,328.03845273518
1580421626.87696,-66.9260700389104,8.39246204318306,330.907148851759
1580421626.88096,-66.2546730754559,7.59899290455473,333.409628442817
1580421626.88495,-63.9353017471581,6.74448767833974,336.034180209049
1580421626.88895,-60.0289921416038,6.19516289005878,338.47562371252
1580421626.89295,-55.8785381857024,5.21858548867021,340.489814602884
1580421626.89695,-52.5215533684291,4.05889982452118,342.015716792554
1580421626.90095,-50.1411459525445,3.14335851071951,342.931258106355
1580421626.90495,-49.7138933394369,3.38750286106665,343.175402456703
1580421626.90895,-51.1177233539331,4.36408026245522,342.565041580835
1580421626.91295,-53.6812390325781,5.76791027695117,341.588464179446
1580421626.91694,-56.6720073243305,7.53795681696806,340.245670252537
1580421626.92094,-59.5407034409095,9.79629205767901,338.353551537346
1580421626.92494,-63.0807965209431,11.9935912108033,336.278324559396
1580421626.92894,-67.3533226520181,13.9467460135804,333.775844968338
1580421626.93294,-72.7855344472418,15.9609369039445,330.907148851759
1580421626.93692,-79.5605401693751,17.6089112687876,327.122911421378
1580421626.94092,-86.3355458915082,18.341344319829,322.545204852369
1580421626.94492,-92.1950102998396,17.8530556191347,317.174029144732
1580421626.94892,-96.6506446936753,16.5102616922254,311.070420386053
1580421626.95291,-99.7024490730146,14.4350347142747,304.356450751507
1580421626.95691,-101.411459525445,11.8715190356297,297.215228503853
1580421626.96091,-101.777676050965,9.24696726939806,289.463645380331
1580421626.96491,-100.984206912337,6.19516289005878,281.467917906462
1580421626.96891,-99.0310521095598,3.08232242313261,272.983901731899
1580421626.97291,-95.3688868543527,-0.091554131380235,264.316777294575
1580421626.97691,-92.2560463874265,-3.26543068589308,254.73411154345
1580421626.98091,-88.9600976577401,-3.63164721141379,244.174868390936
1580421626.98491,-86.152437628748,-2.7161058976119,231.967650873579
1580421626.9889,-85.1148241397725,-3.38750286106665,218.234531166552
1580421626.9929,-84.443427176318,-3.08232242313261,203.036545357443
1580421626.9969,-82.7954528114747,-0.823987182421661,187.228198672465
1580421627.0009,-77.607385366598,2.16678110933094,171.969176775769
1580421627.0049,-69.062333104448,4.91340505073617,157.625696192874
1580421627.0089,-60.9445334554055,7.53795681696806,144.686045624475
1580421627.0129,-54.1084916456855,10.4066529335469,132.295719844358
1580421627.01688,-43.6102845807584,12.7870603494316,120.515754940108
1580421627.02087,-26.5812161440451,14.5571068894483,108.918898298619
1580421627.02487,-5.95101853971164,16.8154421301595,96.5896086060884
1580421627.02887,13.8246738384069,19.0737773708704,82.6733806363013
1580421627.03287,29.5719844357975,20.1724269474325,67.1091783016709
1580421627.03687,40.4364080262453,20.355535210193,49.7749294270234
1580421627.04087,47.7607385366596,20.050354772259,31.7692835889218
1580421627.04487,52.5825894560157,19.4399938963911,13.6415655756466
1580421627.04887,54.9019607843134,18.4634164950025,-4.11993591210808
1580421627.05287,56.1226825360491,19.6231021591516,-21.0269321736475
1580421627.05686,62.7145799954224,28.4122987716487,-34.7600518806746
1580421627.06086,70.7103074692914,30.9147783627068,-44.3427176317998
1580421627.06486,65.9494926375223,21.759365224689,-51.728084229801
1580421627.06886,46.2958724345767,16.3881895170518,-61.066605630579
1580421627.07286,18.341344319829,18.0971999694818,-74.1283283741511
1580421627.07686,-8.51453421835663,19.3789578088044,-90.8522163729303
1580421627.08086,-23.2852674143587,16.937514305333,-109.10200656138
1580421627.08485,-15.4726482032502,9.73525597009234,-124.84931715877
1580421627.08885,25.9708552681773,-5.82894636453807,-130.647745479515
1580421627.09285,86.7627985046161,-36.4080262455177,-121.553368429084
1580421627.09683,127.718013275349,-74.2504005493247,-100.984206912337
1580421627.10083,118.257419699397,-97.0778973067827,-79.0722514686809
1580421627.10483,65.7663843747619,-90.2418554970625,-68.0247196154726
1580421627.10883,5.82894636453807,-56.4888990615702,-74.6776531624323
1580421627.11283,-46.2958724345769,-15.4116121156633,-94.5143816281377
1580421627.11683,-96.162355992981,13.8857099259938,-118.745708400092
1580421627.12082,-134.676127260243,28.046082246128,-139.559014267185
1580421627.12482,-143.343251697566,29.2057679102768,-149.446860456245
1580421627.12882,-120.943007553216,12.0546272983902,-143.46532387274
1580421627.13282,-92.927443350881,-8.81971465629044,-127.168688487068
