Timestamp_seconds,Accel_X_g,Accel_Y_g,Accel_Z_g
1580421638.34861,-0.974868390936141,-0.144289311055161,-0.199954222934309
1580421638.35261,-0.973891813534753,-0.142824444953078,-0.203372243839169
1580421638.35661,-0.97242694743267,-0.145265888456549,-0.206301976043335
1580421638.36061,-0.975356679636835,-0.148195620660715,-0.209231708247501
1580421638.36461,-0.971938658731975,-0.150637064164187,-0.205325398641946
1580421638.36861,-0.970962081330587,-0.150148775463492,-0.202395666437781
1580421638.37262,-0.970962081330587,-0.146242465857938,-0.201907377737086
1580421638.37662,-0.96900892652781,-0.144289311055161,-0.206790264744029
1580421638.38062,-0.971938658731975,-0.137941557946135,-0.212649729152361
1580421638.38462,-0.972915236133364,-0.135988403143358,-0.212161440451666
1580421638.38861,-0.977798123140307,-0.135011825741969,-0.203860532539863
1580421638.39261,-0.978774700541695,-0.138429846646829,-0.209719996948195
1580421638.39661,-0.977798123140307,-0.134523537041275,-0.201419089036392
1580421638.40061,-0.983657587548638,-0.133546959639887,-0.204837109941252
1580421638.40461,-0.982192721446555,-0.135500114442664,-0.207278553444723
1580421638.40861,-0.983169298847944,-0.135500114442664,-0.209231708247501
1580421638.41261,-0.978774700541695,-0.136476691844052,-0.202883955138475
1580421638.41661,-0.980239566643778,-0.132570382238498,-0.200930800335698
1580421638.4206,-0.978286411841001,-0.134523537041275,-0.204348821240558
1580421638.4246,-0.977309834439613,-0.128175783932249,-0.198489356832226
1580421638.4286,-0.973891813534753,-0.12475776302739,-0.206790264744029
1580421638.4326,-0.971450370031281,-0.126222629129472,-0.206301976043335
1580421638.4366,-0.971938658731975,-0.133546959639887,-0.210208285648889
1580421638.4406,-0.970962081330587,-0.135988403143358,-0.208255130846112
1580421638.4446,-0.975356679636835,-0.136964980544747,-0.205813687342641
1580421638.4486,-0.977798123140307,-0.139894712748912,-0.198489356832226
1580421638.45257,-0.976333257038224,-0.138429846646829,-0.207766842145418
1580421638.45657,-0.976821545738918,-0.138918135347524,-0.208743419546806
1580421638.46057,-0.973891813534753,-0.139406424048218,-0.206301976043335
1580421638.46457,-0.97584496833753,-0.138429846646829,-0.209719996948195
1580421638.46857,-0.978774700541695,-0.132082093537804,-0.209719996948195
1580421638.47257,-0.980727855344472,-0.128664072632944,-0.211184863050278
1580421638.47657,-0.984634164950027,-0.127199206530861,-0.210696574349583
1580421638.48057,-0.983169298847944,-0.12475776302739,-0.205813687342641
1580421638.48457,-0.982192721446555,-0.123292896925307,-0.207766842145418
1580421638.48856,-0.983657587548638,-0.123781185626001,-0.208743419546806
1580421638.49256,-0.97926298924239,-0.12475776302739,-0.215579461356526
1580421638.49656,-0.978286411841001,-0.127687495231555,-0.214114595254443
1580421638.50056,-0.980239566643778,-0.135011825741969,-0.213626306553749
1580421638.50456,-0.975356679636835,-0.139894712748912,-0.207766842145418
1580421638.50856,-0.971938658731975,-0.139894712748912,-0.206790264744029
1580421638.51256,-0.976333257038224,-0.143801022354467,-0.205813687342641
1580421638.51655,-0.974868390936141,-0.145754177157244,-0.201419089036392
1580421638.52055,-0.981216144045167,-0.145265888456549,-0.200442511635003
1580421638.52455,-0.981216144045167,-0.145265888456549,-0.198977645532921
1580421638.52855,-0.981216144045167,-0.142824444953078,-0.201907377737086
1580421638.53256,-0.978774700541695,-0.140871290150301,-0.205813687342641
1580421638.53656,-0.976333257038224,-0.142336156252384,-0.202883955138475
1580421638.54056,-0.971450370031281,-0.141847867551689,-0.202395666437781
1580421638.54456,-0.971450370031281,-0.138429846646829,-0.202395666437781
1580421638.54856,-0.969985503929198,-0.133058670939192,-0.207766842145418
1580421638.55256,-0.973891813534753,-0.135988403143358,-0.212161440451666
1580421638.55655,-0.977309834439613,-0.139406424048218,-0.209719996948195
1580421638.56055,-0.975356679636835,-0.136476691844052,-0.206301976043335
1580421638.56455,-0.976821545738918,-0.131105516136415,-0.206790264744029
1580421638.56855,-0.978286411841001,-0.131593804837109,-0.207278553444723
1580421638.57255,-0.97926298924239,-0.132570382238498,-0.203860532539863
1580421638.57655,-0.97584496833753,-0.131593804837109,-0.203860532539863
1580421638.58055,-0.977309834439613,-0.133546959639887,-0.201419089036392
1580421638.58455,-0.975356679636835,-0.137941557946135,-0.205325398641946
1580421638.58854,-0.973403524834058,-0.139406424048218,-0.203860532539863
1580421638.59254,-0.976333257038224,-0.139406424048218,-0.200930800335698
1580421638.59654,-0.976333257038224,-0.134523537041275,-0.207766842145418
1580421638.60054,-0.978286411841001,-0.132082093537804,-0.207278553444723
1580421638.60454,-0.973891813534753,-0.128664072632944,-0.210208285648889
1580421638.60854,-0.977309834439613,-0.128175783932249,-0.211673151750972
1580421638.61252,-0.980239566643778,-0.127199206530861,-0.206790264744029
1580421638.61652,-0.985122453650721,-0.125246051728084,-0.208743419546806
1580421638.62051,-0.989028763256275,-0.132082093537804,-0.206301976043335
1580421638.62451,-0.988540474555581,-0.132082093537804,-0.210696574349583
1580421638.62851,-0.98609903105211,-0.133058670939192,-0.208255130846112
1580421638.63251,-0.982192721446555,-0.133058670939192,-0.210208285648889
1580421638.63651,-0.979751277943084,-0.135011825741969,-0.212161440451666
1580421638.64051,-0.973891813534753,-0.130617227435721,-0.207766842145418
1580421638.64451,-0.969985503929198,-0.132570382238498,-0.209231708247501
1580421638.64851,-0.97242694743267,-0.127687495231555,-0.211673151750972
1580421638.6525,-0.971938658731975,-0.127687495231555,-0.210208285648889
1580421638.6565,-0.978286411841001,-0.127687495231555,-0.206301976043335
1580421638.6605,-0.980239566643778,-0.125246051728084,-0.218509193560692
1580421638.6645,-0.98268101014725,-0.125734340428778,-0.217532616159303
1580421638.6685,-0.987563897154192,-0.123292896925307,-0.216067750057221
1580421638.6725,-0.990005340657664,-0.12133974212253,-0.218509193560692
1580421638.6765,-0.988540474555581,-0.122804608224612,-0.217532616159303
1580421638.6805,-0.98268101014725,-0.12475776302739,-0.215091172655832
1580421638.6845,-0.980727855344472,-0.128175783932249,-0.212161440451666
1580421638.68849,-0.977309834439613,-0.132082093537804,-0.210696574349583
1580421638.6925,-0.976821545738918,-0.130617227435721,-0.208743419546806
1580421638.6965,-0.97584496833753,-0.126222629129472,-0.210208285648889
1580421638.7005,-0.978286411841001,-0.125246051728084,-0.206301976043335
1580421638.7045,-0.982192721446555,-0.119386587319752,-0.211184863050278
1580421638.7085,-0.983169298847944,-0.113527122911421,-0.209231708247501
1580421638.7125,-0.984634164950027,-0.114991989013504,-0.211673151750972
1580421638.7165,-0.983169298847944,-0.108644235904478,-0.211673151750972
1580421638.7205,-0.985122453650721,-0.107179369802395,-0.202883955138475
1580421638.72449,-0.983657587548638,-0.107179369802395,-0.205813687342641
1580421638.72849,-0.985610742351415,-0.108644235904478,-0.206301976043335
1580421638.73249,-0.984145876249332,-0.113038834210727,-0.210208285648889
1580421638.73649,-0.983169298847944,-0.116456855115587,-0.212649729152361
1580421638.74049,-0.982192721446555,-0.120851453421835,-0.202395666437781
1580421638.74449,-0.98268101014725,-0.12475776302739,-0.202883955138475
1580421638.74849,-0.97926298924239,-0.12475776302739,-0.207278553444723
1580421638.75249,-0.973403524834058,-0.125246051728084,-0.208255130846112
1580421638.75648,-0.972915236133364,-0.125734340428778,-0.203860532539863
1580421638.76048,-0.975356679636835,-0.122316319523918,-0.208743419546806
1580421638.76448,-0.976821545738918,-0.12475776302739,-0.205813687342641
1580421638.76848,-0.980727855344472,-0.127199206530861,-0.205325398641946
1580421638.77246,-0.978286411841001,-0.125734340428778,-0.209231708247501
1580421638.77646,-0.977798123140307,-0.126710917830167,-0.206301976043335
1580421638.78046,-0.97926298924239,-0.126710917830167,-0.200930800335698
1580421638.78446,-0.978774700541695,-0.123292896925307,-0.203372243839169
1580421638.78846,-0.974868390936141,-0.128175783932249,-0.199465934233615
1580421638.79245,-0.976333257038224,-0.129640650034332,-0.202883955138475
1580421638.79645,-0.974868390936141,-0.129152361333638,-0.202883955138475
1580421638.80045,-0.975356679636835,-0.133546959639887,-0.200442511635003
1580421638.80445,-0.969497215228504,-0.130128938735027,-0.199465934233615
1580421638.80845,-0.97242694743267,-0.126222629129472,-0.208743419546806
1580421638.81245,-0.970962081330587,-0.126222629129472,-0.206790264744029
1580421638.81645,-0.976333257038224,-0.126710917830167,-0.212649729152361
1580421638.82045,-0.980727855344472,-0.123781185626001,-0.208743419546806
1580421638.82444,-0.97926298924239,-0.120851453421835,-0.208255130846112
1580421638.82844,-0.977309834439613,-0.118898298619058,-0.208743419546806
1580421638.83244,-0.973891813534753,-0.121828030823224,-0.202883955138475
1580421638.83644,-0.96900892652781,-0.123781185626001,-0.198489356832226
1580421638.84044,-0.965102616922255,-0.128175783932249,-0.195559624628061
1580421638.84444,-0.962661173418784,-0.132082093537804,-0.197024490730143
1580421638.84844,-0.963149462119478,-0.136476691844052,-0.197512779430838
1580421638.85242,-0.966567483024338,-0.137453269245441,-0.205325398641946
1580421638.85642,-0.96559090562295,-0.131105516136415,-0.211673151750972
1580421638.86041,-0.971450370031281,-0.123781185626001,-0.212649729152361
1580421638.86441,-0.977309834439613,-0.11450370031281,-0.216556038757915
1580421638.86841,-0.982192721446555,-0.108155947203784,-0.220950637064163
1580421638.87241,-0.98609903105211,-0.10766765850309,-0.216556038757915
1580421638.87641,-0.991958495460441,-0.10424963759823,-0.216556038757915
1580421638.88041,-0.994399938963912,-0.102296482795452,-0.216556038757915
1580421638.88441,-0.992446784161135,-0.0974135957885096,-0.227786678873883
1580421638.8884,-0.991470206759747,-0.0925307087815668,-0.222903791866941
1580421638.8924,-0.994399938963912,-0.0837415121690697,-0.217044327458609
1580421638.8964,-0.98951705195697,-0.077393759060044,-0.222903791866941
1580421638.9004,-0.98609903105211,-0.0837415121690697,-0.230228122377355
1580421638.9044,-0.987075608453498,-0.0930189974822611,-0.222903791866941
1580421638.9084,-0.988540474555581,-0.108644235904478,-0.218509193560692
1580421638.9124,-0.995376516365301,-0.11792172121767,-0.214602883955138
1580421638.9164,-0.998794537270161,-0.126222629129472,-0.210208285648889
1580421638.92039,-0.996841382467384,-0.130617227435721,-0.217532616159303
1580421638.92439,-0.990493629358358,-0.138918135347524,-0.212649729152361
1580421638.92839,-0.985610742351415,-0.149172198062104,-0.211673151750972
1580421638.9324,-0.981704432745861,-0.156984817273212,-0.216067750057221
1580421638.9364,-0.977309834439613,-0.157961394674601,-0.212649729152361
1580421638.9404,-0.976333257038224,-0.154543373769741,-0.209719996948195
1580421638.9444,-0.976821545738918,-0.146242465857938,-0.201419089036392
1580421638.9484,-0.974380102235447,-0.137941557946135,-0.205813687342641
1580421638.9524,-0.974380102235447,-0.131105516136415,-0.212649729152361
1580421638.9564,-0.97242694743267,-0.129640650034332,-0.218509193560692
1580421638.96039,-0.977309834439613,-0.133058670939192,-0.224856946669718
1580421638.96439,-0.979751277943084,-0.133546959639887,-0.224856946669718
1580421638.96839,-0.981704432745861,-0.137941557946135,-0.223392080567635
1580421638.97239,-0.977309834439613,-0.142824444953078,-0.218997482261386
1580421638.97639,-0.984145876249332,-0.154055085069047,-0.220462348363469
1580421638.98039,-0.983657587548638,-0.153078507667658,-0.218509193560692
1580421638.98439,-0.984145876249332,-0.153566796368352,-0.213138017853055
1580421638.98839,-0.985610742351415,-0.147707331960021,-0.203860532539863
1580421638.99238,-0.98609903105211,-0.136476691844052,-0.208743419546806
1580421638.99638,-0.984145876249332,-0.125734340428778,-0.209231708247501
1580421639.00038,-0.976821545738918,-0.124269474326695,-0.215091172655832
1580421639.00438,-0.971450370031281,-0.129152361333638,-0.211184863050278
1580421639.00838,-0.971938658731975,-0.134523537041275,-0.208743419546806
1580421639.01236,-0.971938658731975,-0.137453269245441,-0.199954222934309
1580421639.01636,-0.975356679636835,-0.144289311055161,-0.198489356832226
1580421639.02036,-0.97926298924239,-0.151125352864881,-0.196047913328755
1580421639.02436,-0.980239566643778,-0.158449683375295,-0.199954222934309
1580421639.02835,-0.977798123140307,-0.161379415579461,-0.203860532539863
1580421639.03235,-0.982192721446555,-0.156008239871824,-0.198977645532921
1580421639.03635,-0.981704432745861,-0.152590218966964,-0.205325398641946
1580421639.04035,-0.978286411841001,-0.146242465857938,-0.207766842145418
1580421639.04435,-0.979751277943084,-0.141359578850995,-0.211673151750972
1580421639.04835,-0.97584496833753,-0.135011825741969,-0.216556038757915
1580421639.05235,-0.977309834439613,-0.137453269245441,-0.216556038757915
1580421639.05635,-0.977798123140307,-0.134035248340581,-0.213626306553749
1580421639.06034,-0.981216144045167,-0.135011825741969,-0.208743419546806
1580421639.06434,-0.981704432745861,-0.130128938735027,-0.210208285648889
1580421639.06834,-0.979751277943084,-0.133546959639887,-0.211184863050278
1580421639.07234,-0.976333257038224,-0.144289311055161,-0.212161440451666
1580421639.07634,-0.973403524834058,-0.155519951171129,-0.211184863050278
1580421639.08034,-0.970962081330587,-0.163332570382238,-0.200930800335698
1580421639.08434,-0.967544060425727,-0.167727168688486,-0.198977645532921
1580421639.08834,-0.967544060425727,-0.173098344396124,-0.200442511635003
1580421639.09235,-0.970473792629893,-0.174563210498206,-0.204837109941252
1580421639.09634,-0.969497215228504,-0.174074921797512,-0.208255130846112
1580421639.10034,-0.975356679636835,-0.168703746089875,-0.210208285648889
1580421639.10434,-0.978774700541695,-0.166262302586404,-0.216067750057221
1580421639.10834,-0.983169298847944,-0.158937972075989,-0.217532616159303
1580421639.11234,-0.990493629358358,-0.152590218966964,-0.219485770962081
1580421639.11634,-0.993423361562524,-0.147707331960021,-0.211673151750972
1580421639.12034,-0.99293507286183,-0.143312733653772,-0.205813687342641
1580421639.12434,-0.995864805065995,-0.146730754558632,-0.206301976043335
1580421639.12833,-0.990981918059052,-0.145754177157244,-0.205813687342641
1580421639.13233,-0.989028763256275,-0.144777599755855,-0.204837109941252
1580421639.13633,-0.983169298847944,-0.141847867551689,-0.193606469825284
1580421639.14033,-0.97584496833753,-0.138429846646829,-0.192141603723201
1580421639.14433,-0.966079194323644,-0.137453269245441,-0.188723582818341
1580421639.14833,-0.958266575112535,-0.142824444953078,-0.191165026321812
1580421639.15233,-0.953383688105593,-0.148195620660715,-0.197024490730143
1580421639.15633,-0.955825131609064,-0.154055085069047,-0.201419089036392
1580421639.16032,-0.961684596017395,-0.162355992980849,-0.204348821240558
1580421639.16432,-0.968032349126421,-0.170656900892652,-0.215579461356526
1580421639.16832,-0.974380102235447,-0.177004654001678,-0.217044327458609
1580421639.1723,-0.98268101014725,-0.180422674906538,-0.218997482261386
1580421639.1763,-0.990981918059052,-0.179934386205844,-0.216556038757915
1580421639.1803,-0.98951705195697,-0.177492942702372,-0.213138017853055
1580421639.1843,-0.988540474555581,-0.172121766994735,-0.214114595254443
1580421639.1883,-0.987563897154192,-0.161867704280155,-0.212649729152361
1580421639.1923,-0.97584496833753,-0.157961394674601,-0.217532616159303
1580421639.19629,-0.970473792629893,-0.157961394674601,-0.209719996948195
1580421639.20029,-0.96217288471809,-0.165285725185015,-0.208255130846112
1580421639.20429,-0.95875486381323,-0.174563210498206,-0.211184863050278
1580421639.20829,-0.951430533302815,-0.190188448920424,-0.209231708247501
1580421639.21229,-0.953383688105593,-0.198489356832226,-0.208743419546806
1580421639.21629,-0.957289997711147,-0.189700160219729,-0.209719996948195
1580421639.22029,-0.966567483024338,-0.177492942702372,-0.208255130846112
1580421639.22429,-0.979751277943084,-0.170168612191958,-0.209231708247501
1580421639.22828,-0.988540474555581,-0.168703746089875,-0.203860532539863
1580421639.23228,-0.995864805065995,-0.170168612191958,-0.200930800335698
1580421639.23628,-0.997329671168078,-0.176028076600289,-0.204348821240558
1580421639.24028,-0.998794537270161,-0.176028076600289,-0.207766842145418
1580421639.24428,-0.991958495460441,-0.167238879987792,-0.215091172655832
1580421639.24828,-0.986587319752804,-0.154543373769741,-0.214602883955138
1580421639.25229,-0.97926298924239,-0.146730754558632,-0.218509193560692
1580421639.25629,-0.97926298924239,-0.144777599755855,-0.219485770962081
1580421639.26029,-0.974380102235447,-0.156008239871824,-0.224368657969023
1580421639.26428,-0.959731441214618,-0.171145189593346,-0.221438925764858
1580421639.26828,-0.954360265506981,-0.179446097505149,-0.218509193560692
1580421639.27228,-0.954360265506981,-0.170168612191958,-0.224368657969023
1580421639.27628,-0.953871976806287,-0.154055085069047,-0.222903791866941
1580421639.28028,-0.959243152513924,-0.148683909361409,-0.215091172655832
1580421639.28428,-0.964126039520867,-0.162844281681544,-0.203372243839169
1580421639.28828,-0.970473792629893,-0.179446097505149,-0.196536202029449
1580421639.29228,-0.973403524834058,-0.187747005416952,-0.198489356832226
1580421639.29627,-0.971938658731975,-0.191653315022506,-0.202395666437781
1580421639.30027,-0.975356679636835,-0.177492942702372,-0.214114595254443
1580421639.30427,-0.978774700541695,-0.163820859082932,-0.213138017853055
1580421639.30827,-0.982192721446555,-0.150148775463492,-0.211184863050278
1580421639.31227,-0.990493629358358,-0.137453269245441,-0.209719996948195
1580421639.31627,-0.991958495460441,-0.133058670939192,-0.212161440451666
1580421639.32027,-0.985122453650721,-0.133546959639887,-0.217044327458609
1580421639.32427,-0.979751277943084,-0.142336156252384,-0.217044327458609
1580421639.32826,-0.97242694743267,-0.151125352864881,-0.212649729152361
1580421639.33224,-0.96900892652781,-0.165774013885709,-0.205813687342641
1580421639.33624,-0.966079194323644,-0.176516365300984,-0.197024490730143
1580421639.34024,-0.966567483024338,-0.178957808804455,-0.184328984512092
1580421639.34424,-0.969497215228504,-0.173098344396124,-0.180910963607232
1580421639.34824,-0.970473792629893,-0.165774013885709,-0.184328984512092
1580421639.35224,-0.969985503929198,-0.147707331960021,-0.193118181124589
1580421639.35624,-0.969985503929198,-0.136476691844052,-0.202395666437781
1580421639.36024,-0.970473792629893,-0.133546959639887,-0.206301976043335
1580421639.36423,-0.97242694743267,-0.135988403143358,-0.202883955138475
1580421639.36823,-0.97584496833753,-0.144777599755855,-0.197512779430838
1580421639.37223,-0.983657587548638,-0.150637064164187,-0.192141603723201
1580421639.37623,-0.978774700541695,-0.156984817273212,-0.194583047226672
1580421639.38023,-0.980239566643778,-0.159426260776684,-0.191653315022506
1580421639.38423,-0.977309834439613,-0.166262302586404,-0.185305561913481
1580421639.38823,-0.966079194323644,-0.175051499198901,-0.179934386205844
1580421639.39223,-0.958266575112535,-0.177492942702372,-0.178957808804455
1580421639.39622,-0.961684596017395,-0.178469520103761,-0.170656900892652
1580421639.40022,-0.966079194323644,-0.177004654001678,-0.163332570382238
1580421639.40422,-0.967055771725033,-0.169192034790569,-0.162355992980849
1580421639.40822,-0.963149462119478,-0.173586633096818,-0.168215457389181
1580421639.41223,-0.963149462119478,-0.179446097505149,-0.168215457389181
1580421639.41623,-0.969497215228504,-0.183840695811398,-0.170168612191958
1580421639.42023,-0.98268101014725,-0.181887541008621,-0.166262302586404
1580421639.42423,-0.991958495460441,-0.179446097505149,-0.175539787899595
1580421639.42823,-0.99977111467155,-0.175539787899595,-0.187747005416952
1580421639.43222,-1.00514229037919,-0.174074921797512,-0.202883955138475
1580421639.43622,-1.00660715648127,-0.163332570382238,-0.217044327458609
1580421639.44022,-1.01051346608682,-0.149172198062104,-0.224368657969023
1580421639.44422,-1.00807202258335,-0.126222629129472,-0.224368657969023
1580421639.44822,-1.00660715648127,-0.10766765850309,-0.226810101472495
1580421639.45222,-1.01344319829099,-0.0915541313801782,-0.223880369268329
1580421639.45622,-1.01149004348821,-0.0881361104753182,-0.23315785458152
1580421639.46022,-1.01197833218891,-0.0861829556725411,-0.241947051194018
1580421639.46422,-1.01832608529793,-0.0900892652780954,-0.246341649500266
1580421639.46821,-1.01393148699168,-0.0969253070878153,-0.243900205996795
1580421639.47221,-1.00465400167849,-0.101319905394064,-0.246341649500266
1580421639.47621,-0.99293507286183,-0.106202792401007,-0.250247959105822
1580421639.48021,-0.982192721446555,-0.103761348897535,-0.246341649500266
1580421639.48421,-0.979751277943084,-0.102296482795452,-0.245853360799572
1580421639.48821,-0.973403524834058,-0.0852063782711525,-0.23999389639124
1580421639.49219,-0.976821545738918,-0.0729991607537954,-0.237552452887769
1580421639.49619,-0.969985503929198,-0.0661631189440754,-0.245853360799572
1580421639.50019,-0.967544060425727,-0.0568856336308841,-0.239017318989852
1580421639.50418,-0.981216144045167,-0.0314946211947813,-0.216556038757915
1580421639.50818,-1.00025940337224,-0.00219729915312428,-0.213138017853055
1580421639.51218,-1.00856031128405,0.00366216525520713,-0.229251544975966
1580421639.51618,-1.01051346608682,-0.0231937132829785,-0.237064164187075
1580421639.52018,-1.02369726100557,-0.0578622110322726,-0.233646143282215
1580421639.52418,-1.03736934462501,-0.0744640268558783,-0.202883955138475
1580421639.52818,-1.05934233615625,-0.0754406042572668,-0.176516365300984
1580421639.53217,-1.07350270847639,-0.0578622110322726,-0.164309147783626
1580421639.53617,-1.08033875028611,-0.0427252613107498,-0.162355992980849
1580421639.54017,-1.08375677119097,-0.0266117341878385,-0.163820859082932
1580421639.54417,-1.08815136949721,-0.0134279392690928,-0.171145189593346
1580421639.54817,-1.09254596780346,-0.00366216525520713,-0.181887541008621
1580421639.55217,-1.09303425650416,0.0075684748607614,-0.192629892423895
1580421639.55617,-1.09742885481041,0.0187991149767299,-0.194094758525978
1580421639.56017,-1.10572976272221,0.0280766002899213,-0.186770428015564
1580421639.56416,-1.1237964446479,0.0422369726100555,-0.167727168688486
1580421639.56816,-1.1403982604715,0.037842374303807,-0.162355992980849
1580421639.57217,-1.15651178759441,0.0212405584802013,-0.159426260776684
1580421639.57617,-1.16920729381247,-0.00512703135728998,-0.160891126878766
1580421639.58017,-1.19655146105135,-0.044678416113527,-0.180910963607232
1580421639.58417,-1.22682536049439,-0.0778820477607383,-0.207766842145418
1580421639.58817,-1.26442359044785,-0.103761348897535,-0.218020904859998
1580421639.59217,-1.33034256504158,-0.118410009918364,-0.223392080567635
1580421639.59617,-1.4060273136492,-0.148195620660715,-0.257084000915542
1580421639.60016,-1.4997787441825,-0.170656900892652,-0.226321812771801
1580421639.60416,-1.58229953459983,-0.160402838178072,-0.200930800335698
1580421639.60816,-1.61403830014496,-0.201907377737086,-0.240482185091935
1580421639.61216,-1.60720225833524,-0.31958495460441,-0.341557946135653
1580421639.61616,-1.62526894026093,-0.422613870450904,-0.430426489662013
1580421639.62016,-1.66433203631647,-0.442145418478676,-0.448004882887007
1580421639.62416,-1.70778973067826,-0.383550774395362,-0.393804837109942
1580421639.62816,-1.72927443350881,-0.292240787365531,-0.313237201495385
1580421639.63215,-1.69753566796368,-0.220950637064163,-0.283451590753033
1580421639.63615,-1.61355001144427,-0.204837109941252,-0.320073243305105
1580421639.64015,-1.51979858091096,-0.210696574349583,-0.365484092469673
1580421639.64415,-1.43825436789502,-0.220462348363469,-0.401129167620356
1580421639.64815,-1.35671015487907,-0.234622720683603,-0.44263370717937
1580421639.65213,-1.28249027237354,-0.234622720683603,-0.462653543907836
1580421639.65613,-1.22926680399786,-0.216067750057221,-0.465583276112001
1580421639.66013,-1.17799649042496,-0.187747005416952,-0.433844510566873
1580421639.66413,-1.11549553673609,-0.199465934233615,-0.39478141451133
1580421639.66812,-1.03590447852293,-0.271244373235676,-0.364507515068285
1580421639.67212,-0.968520637827115,-0.384039063096056,-0.362066071564813
1580421639.67612,-0.930922407873656,-0.48364995803769,-0.353276874952316
1580421639.68012,-0.944106202792401,-0.464606698710613,-0.309330891889831
1580421639.68412,-0.988052185854887,-0.270756084534982,-0.228274967574578
1580421639.68812,-1.01051346608682,0.0148928053711757,-0.154543373769741
1580421639.69212,-0.998794537270161,0.295170519569695,-0.105714503700312
1580421639.69612,-0.938735027084764,0.506599526970323,-0.0759288929579611
1580421639.70011,-0.829358358129245,0.602792401007097,-0.130617227435721
1580421639.70411,-0.723399710078583,0.632578011749448,-0.23315785458152
1580421639.70811,-0.68433661402304,0.65210955977722,-0.272220950637065
1580421639.71211,-0.710215915159838,0.677988860914017,-0.265384908827345
1580421639.71611,-0.734630350194552,0.722423132677196,-0.273197528038454
1580421639.72011,-0.760997940032045,0.77759975585565,-0.269779507133594
1580421639.72411,-0.783459220263982,0.802014190890365,-0.252689402609294
1580421639.72811,-0.789318684672313,0.782482642862593,-0.229251544975966
1580421639.73212,-0.77759975585565,0.720958266575114,-0.207766842145418
1580421639.73611,-0.760021362630656,0.636972610055697,-0.179446097505149
1580421639.74011,-0.745372701609826,0.545662623025866,-0.154543373769741
1580421639.74411,-0.733165484092469,0.466559853513388,-0.118410009918364
1580421639.74811,-0.729259174486915,0.396734569314106,-0.0910658426794839
1580421639.75211,-0.733165484092469,0.349858854047454,-0.0710460059510183
1580421639.75611,-0.744884412909132,0.321049820706492,-0.0520027466239412
1580421639.76011,-0.759044785229268,0.304448004882886,-0.0422369726100555
1580421639.76411,-0.762462806134128,0.301029983978026,-0.0231937132829785
1580421639.76811,-0.769787136644542,0.296635385671777,-0.00854505226214997
1580421639.7721,-0.77418173495079,0.279545281147477,0.0134279392690928
1580421639.7761,-0.785900663767453,0.25708400091554,0.0373540856031127
1580421639.7801,-0.804455634393836,0.224368657969023,0.0573739223315783
1580421639.7841,-0.830334935530633,0.183840695811398,0.0676279850461583
1580421639.7881,-0.862073701075762,0.150148775463492,0.077393759060044
1580421639.7921,-0.894300755321584,0.113038834210727,0.0783703364614325
1580421639.7961,-0.927504386968796,0.0798352025635154,0.073975738155184
1580421639.80009,-0.960708018616007,0.0490730144197755,0.0651865415426869
1580421639.80409,-0.982192721446555,0.0251468680857556,0.0554207675288012
1580421639.80809,-1.00514229037919,0.00122072175173571,0.0354009308003356
1580421639.81207,-1.02369726100557,-0.0183108262760356,0.01196307316701
1580421639.81607,-1.05104142824445,-0.037842374303807,-0.00854505226214997
1580421639.82007,-1.072526131075,-0.0539559014267184,-0.0197756923781185
1580421639.82407,-1.09254596780346,-0.0690928511482412,-0.0314946211947813
1580421639.82807,-1.1150072480354,-0.0817883573662925,-0.0534676127260241
1580421639.83207,-1.13014419775692,-0.096437018387121,-0.0700694285496297
1580421639.83606,-1.15016403448539,-0.10424963759823,-0.0832532234683754
1580421639.84006,-1.16676585030899,-0.112550545510032,-0.0988784618905925
1580421639.84406,-1.18190280003052,-0.117433432516975,-0.115480277714198
1580421639.84806,-1.19606317235065,-0.123781185626001,-0.120851453421835
1580421639.85206,-1.21559472037842,-0.12133974212253,-0.125734340428778
1580421639.85606,-1.23610284580758,-0.12133974212253,-0.123781185626001
1580421639.86006,-1.25514610513466,-0.128175783932249,-0.119874876020447
1580421639.86406,-1.27467765316243,-0.132082093537804,-0.110597390707255
1580421639.86805,-1.28786144808118,-0.143801022354467,-0.112062256809338
1580421639.87205,-1.30397497520409,-0.164309147783626,-0.101319905394064
1580421639.87605,-1.31520561532006,-0.185305561913481,-0.0974135957885096
1580421639.88005,-1.33327229724575,-0.209719996948195,-0.0891126878767068
1580421639.88405,-1.34157320515755,-0.229251544975966,-0.0793469138628211
1580421639.88805,-1.34987411306935,-0.242435339894712,-0.0695811398489354
1580421639.89206,-1.34987411306935,-0.252689402609294,-0.0676279850461583
1580421639.89606,-1.34889753566796,-0.260990310521096,-0.0642099641412983
1580421639.90006,-1.34352635996033,-0.270267795834288,-0.0622568093385212
1580421639.90405,-1.32790112153811,-0.280033569848174,-0.0598153658350498
1580421639.90805,-1.31618219272145,-0.294193942168308,-0.0534676127260241
1580421639.91205,-1.29811551079576,-0.314213778896773,-0.0529793240253298
1580421639.91605,-1.27858396276799,-0.331792172121768,-0.0544441901274126
1580421639.92005,-1.26735332265202,-0.352788586251622,-0.0700694285496297
1580421639.92405,-1.25954070344091,-0.378179598687725,-0.0871595330739297
1580421639.92805,-1.25661097123674,-0.415777828641184,-0.107179369802395
1580421639.93205,-1.25514610513466,-0.45288776989395,-0.112062256809338
1580421639.93604,-1.24440375371939,-0.489021133745327,-0.11792172121767
1580421639.94004,-1.22682536049439,-0.51783016708629,-0.137941557946135
1580421639.94404,-1.20534065766384,-0.542244602121004,-0.162844281681544
1580421639.94804,-1.1916685740444,-0.55201037613489,-0.182375829709315
1580421639.95204,-1.17799649042496,-0.54517433432517,-0.205325398641946
1580421639.95604,-1.16823071641108,-0.52124818799115,-0.219974059662775
1580421639.96004,-1.14332799267567,-0.49390402075227,-0.229251544975966
1580421639.96404,-1.11647211413748,-0.462653543907836,-0.235111009384298
1580421639.96803,-1.08570992599374,-0.433356221866179,-0.243900205996795
1580421639.97201,-1.05983062485695,-0.402594033722439,-0.253177691309988
1580421639.97601,-1.03102159151598,-0.383062485694667,-0.260502021820402
1580421639.98001,-1.00514229037919,-0.368413824673839,-0.264408331425956
1580421639.98401,-0.989028763256275,-0.364507515068285,-0.253665980010682
1580421639.98801,-0.970473792629893,-0.375249866483559,-0.250736247806516
1580421639.99201,-0.956313420309758,-0.399176012817579,-0.249759670405126
1580421639.99601,-0.94508278019379,-0.431403067063401,-0.247318226901655
1580421640.00001,-0.936293583581293,-0.468024719615473,-0.245365072098878
1580421640.004,-0.929457541771573,-0.505622949568933,-0.238529030289158
1580421640.008,-0.926527809567407,-0.54859235523003,-0.236087586785686
1580421640.012,-0.926039520866713,-0.581307698176547,-0.228763256275272
1580421640.016,-0.920180056458381,-0.612558175020981,-0.217044327458609
1580421640.02,-0.913344014648661,-0.640878919661249,-0.200442511635003
1580421640.024,-0.903089951934081,-0.662363622491798,-0.190676737621118
1580421640.028,-0.888441290913253,-0.679942015716792,-0.175539787899595
1580421640.032,-0.873792629892424,-0.694102388036926,-0.167727168688486
1580421640.036,-0.857190814068819,-0.708751049057755,-0.162355992980849
1580421640.03999,-0.840588998245213,-0.722423132677195,-0.173098344396124
1580421640.04399,-0.825940337224385,-0.733653772793163,-0.178957808804455
1580421640.04799,-0.816174563210499,-0.741954680704966,-0.188723582818341
1580421640.05197,-0.80494392309453,-0.751720454718853,-0.201419089036392
1580421640.05597,-0.799084458686199,-0.761974517433433,-0.203372243839169
1580421640.05997,-0.79810788128481,-0.766857404440376,-0.212161440451666
1580421640.06397,-0.800549324788282,-0.77076371404593,-0.219974059662775
1580421640.06797,-0.802014190890365,-0.767833981841765,-0.235599298084992
1580421640.07196,-0.806897077897307,-0.754650186923019,-0.249759670405126
1580421640.07596,-0.812268253604945,-0.745372701609826,-0.260013733119708
1580421640.07996,-0.809826810101473,-0.726329442282749,-0.274174105439842
1580421640.08396,-0.802990768291753,-0.71168078126192,-0.281986724650951
1580421640.08796,-0.79810788128481,-0.691660944533455,-0.287357900358588
1580421640.09196,-0.791760128175785,-0.67750057221332,-0.300541695277333
1580421640.09596,-0.844495307850767,-0.603280689707789,-0.425055313954376
1580421640.09996,-0.960708018616007,-0.422613870450904,-0.418219272144656
1580421640.10396,-0.954360265506981,-0.369390402075227,-0.371831845578699
1580421640.10795,-0.90406652933547,-0.465094987411307,-0.371831845578699
1580421640.11195,-0.901625085831999,-0.606698710612649,-0.43921568627451
1580421640.11595,-0.944594491493095,-0.800061036087587,-0.298588540474556
1580421640.11995,-1.03639276722362,-0.876234073395896,-0.099855039291981
1580421640.12395,-1.2092469672694,-0.616464484626535,-0.0222171358815899
1580421640.12795,-1.34792095826658,-0.139406424048218,0.0100099183642328
1580421640.13196,-1.30495155260548,0.242435339894712,0.0236820019836728
1580421640.13596,-1.15553521019303,0.443610284580757,-0.0554207675288012
1580421640.13996,-0.985610742351415,0.493415732051574,-0.204837109941252
1580421640.14395,-0.844495307850767,0.442145418478674,-0.32983901731899
1580421640.14795,-0.777111467154956,0.329350728618294,-0.378667887388419
1580421640.15195,-0.801037613488976,0.183840695811398,-0.451422903791867
1580421640.15595,-0.906996261539636,0.135988403143358,-0.425055313954376
1580421640.15995,-1.08229190508888,0.219485770962081,-0.232669565880826
1580421640.16395,-1.17750820172427,0.201419089036392,-0.109620813305867
1580421640.16795,-1.18873884184024,0.0451667048142212,-0.0852063782711525
1580421640.17194,-1.16041809719997,-0.164309147783626,-0.148683909361409
1580421640.17594,-1.13600366216525,-0.326909285114825,-0.269779507133594
1580421640.17994,-1.13844510566873,-0.439703974975204,-0.380621042191196
1580421640.18394,-1.20680552376593,-0.499763485160601,-0.39819943541619
1580421640.18794,-1.31032272831312,-0.567147325856412,-0.393316548409247
1580421640.19194,-1.39821469443809,-0.668711375600823,-0.395269703212024
1580421640.19594,-1.49245441367208,-0.723887998779277,-0.354253452353705
1580421640.19994,-1.54128328374151,-0.71851682307164,-0.292240787365531
1580421640.20393,-1.51198596169985,-0.656015869382772,-0.246341649500266
1580421640.20793,-1.44167238879988,-0.551522087434195,-0.206790264744029
1580421640.21191,-1.33522545204852,-0.431403067063401,-0.172121766994735
1580421640.21591,-1.21559472037842,-0.334233615625239,-0.159914549477378
1580421640.21991,-1.0979171435111,-0.264408331425956,-0.164797436484321
1580421640.22391,-0.991958495460441,-0.23999389639124,-0.181399252307926
1580421640.22791,-0.88697642481117,-0.251224536507211,-0.204837109941252
1580421640.23191,-0.800549324788282,-0.294193942168308,-0.237552452887769
1580421640.23591,-0.750255588616771,-0.350835431448845,-0.277592126344702
1580421640.2399,-0.73560692759594,-0.410894941634242,-0.314213778896773
1580421640.2439,-0.759044785229268,-0.454840924696727,-0.324956130312048
1580421640.2479,-0.81519798580911,-0.470466163118944,-0.299076829175251
1580421640.2519,-0.877210650797284,-0.457770656900893,-0.269291218432899
1580421640.2559,-0.922621499961853,-0.438239108873121,-0.264896620126651
1580421640.2599,-0.954360265506981,-0.412848096437019,-0.264408331425956
1580421640.2639,-0.97584496833753,-0.376714732585642,-0.264896620126651
1580421640.2679,-0.989028763256275,-0.335698481727322,-0.267826352330816
1580421640.27189,-0.994399938963912,-0.301518272678722,-0.264896620126651
1580421640.27589,-0.998794537270161,-0.275638971541925,-0.267826352330816
1580421640.27989,-0.995376516365301,-0.252201113908599,-0.272709239337759
1580421640.28389,-0.987075608453498,-0.232669565880826,-0.269779507133594
1580421640.28789,-0.984145876249332,-0.211184863050278,-0.258060578316931
1580421640.2919,-0.98951705195697,-0.191165026321812,-0.239017318989852
1580421640.2959,-0.987563897154192,-0.191165026321812,-0.226321812771801
1580421640.2999,-0.973403524834058,-0.231204699778743,-0.232181277180132
1580421640.3039,-0.97242694743267,-0.285893034256505,-0.250247959105822
1580421640.30789,-0.988052185854887,-0.329350728618296,-0.250247959105822
1580421640.31189,-1.01734950789654,-0.334721904325933,-0.229251544975966
1580421640.31589,-1.05445944914931,-0.299565117875945,-0.214602883955138
1580421640.31989,-1.07643244068055,-0.242923628595406,-0.221438925764858
1580421640.32389,-1.07740901808194,-0.185305561913481,-0.250736247806516
1580421640.32789,-1.06959639887083,-0.146730754558632,-0.292240787365531
1580421640.33189,-1.0554360265507,-0.123781185626001,-0.345952544441902
1580421640.33589,-1.04078736552987,-0.108644235904478,-0.40161745632105
1580421640.33988,-1.0295567254139,-0.0959487296864268,-0.420660715648127
1580421640.34388,-1.01393148699168,-0.0876478217746239,-0.427985046158541
1580421640.34788,-0.992446784161135,-0.0930189974822611,-0.417730983443962
1580421640.35188,-0.964126039520867,-0.112062256809338,-0.416266117341879
1580421640.35588,-0.944106202792401,-0.144777599755855,-0.417730983443962
1580421640.35988,-0.928480964370184,-0.191165026321812,-0.423590447852293
1580421640.36388,-0.919691767757687,-0.244388494697489,-0.430426489662013
1580421640.36788,-0.91432059205005,-0.286869611657893,-0.43237964446479
1580421640.37186,-0.905043106736859,-0.305912870984971,-0.413336385137713
1580421640.37585,-0.900160219729916,-0.306889448386359,-0.397222858014802
1580421640.37985,-0.894300755321584,-0.301029983978028,-0.387457084000916
1580421640.38385,-0.892835889219501,-0.292729076066225,-0.385015640497445
1580421640.38785,-0.901136797131304,-0.282475013351645,-0.370366979476616
1580421640.39185,-0.918226901655604,-0.280033569848174,-0.351812008850233
1580421640.39585,-0.943129625391013,-0.291752498664836,-0.336186770428016
1580421640.39985,-0.96900892652781,-0.302494850080111,-0.328374151216908
1580421640.40385,-0.992446784161135,-0.307377737087053,-0.309819180590525
1580421640.40785,-1.0124666208896,-0.298100251773862,-0.295658808270391
1580421640.41184,-1.02027924010071,-0.282963302052339,-0.284916456855116
1580421640.41584,-1.0129549095903,-0.256595712214848,-0.294682230869002
1580421640.41984,-0.998306248569467,-0.23315785458152,-0.294193942168308
1580421640.42384,-0.991958495460441,-0.202883955138475,-0.288334477759976
1580421640.42784,-0.980239566643778,-0.165774013885709,-0.282475013351645
1580421640.43184,-0.969497215228504,-0.139894712748912,-0.274174105439842
1580421640.43584,-0.962661173418784,-0.129152361333638,-0.274174105439842
1580421640.43983,-0.961196307316701,-0.134035248340581,-0.272709239337759
1580421640.44383,-0.962661173418784,-0.145754177157244,-0.276127260242619
1580421640.44783,-0.952407110704204,-0.174074921797512,-0.285404745555811
1580421640.45184,-0.944594491493095,-0.210208285648889,-0.295170519569696
1580421640.45584,-0.943617914091707,-0.23999389639124,-0.293705653467613
1580421640.45984,-0.95875486381323,-0.254154268711376,-0.281010147249562
1580421640.46384,-0.968520637827115,-0.265873197528039,-0.271732661936371
1580421640.46784,-0.954848554207675,-0.278080415045396,-0.286869611657893
1580421640.47184,-0.943617914091707,-0.294682230869002,-0.302494850080111
1580421640.47583,-0.93482871747921,-0.302006561379416,-0.306889448386359
1580421640.47983,-0.939711604486153,-0.298588540474556,-0.295170519569696
1580421640.48383,-0.940199893186847,-0.287357900358588,-0.288334477759976
1580421640.48783,-0.935317006179904,-0.276127260242619,-0.286381322957199
1580421640.49183,-0.933852140077821,-0.271244373235676,-0.275638971541925
1580421640.49583,-0.942641336690318,-0.259525444419014,-0.278080415045396
1580421640.49983,-0.950453955901427,-0.246341649500266,-0.284916456855116
1580421640.50383,-0.940688181887541,-0.238040741588463,-0.305424582284276
1580421640.50782,-0.939223315785458,-0.226810101472495,-0.302494850080111
1580421640.51182,-0.947035934996567,-0.205325398641946,-0.300053406576639
1580421640.51582,-0.948989089799344,-0.190188448920424,-0.310307469291219
1580421640.51982,-0.94508278019379,-0.183840695811398,-0.316655222400245
1580421640.52382,-0.94850080109865,-0.167727168688486,-0.320073243305105
1580421640.52782,-0.955825131609064,-0.162355992980849,-0.339116502632182
1580421640.5318,-0.96559090562295,-0.170168612191958,-0.344487678339819
1580421640.5358,-0.985122453650721,-0.192629892423895,-0.303959716182193
1580421640.5398,-1.01197833218891,-0.200442511635003,-0.264896620126651
1580421640.54379,-1.04615854123751,-0.197024490730143,-0.253177691309988
1580421640.54779,-1.05836575875486,-0.191165026321812,-0.283939879453728
1580421640.55179,-1.05104142824445,-0.211673151750972,-0.330815594720379
1580421640.55579,-1.03492790112154,-0.250247959105822,-0.34009308003357
1580421640.55979,-1.03932249942779,-0.268314641031511,-0.314213778896773
1580421640.56379,-1.04274052033265,-0.277103837644008,-0.312748912794691
1580421640.56779,-1.02906843671321,-0.285893034256505,-0.290775921263448
1580421640.57179,-1.02320897230488,-0.287357900358588,-0.272709239337759
1580421640.57578,-1.02565041580835,-0.274662394140536,-0.231692988479438
1580421640.57978,-1.03053330281529,-0.232669565880826,-0.209719996948195
1580421640.58378,-1.03688105592432,-0.180910963607232,-0.229251544975966
1580421640.58778,-1.03492790112154,-0.151125352864881,-0.269291218432899
1580421640.59178,-1.02516212710765,-0.135011825741969,-0.295658808270391
1580421640.59578,-1.03395132372015,-0.138918135347524,-0.307377737087053
1580421640.59978,-1.04957656214237,-0.148195620660715,-0.288334477759976
1580421640.60378,-1.07447928587777,-0.138429846646829,-0.228763256275272
1580421640.60777,-1.09010452429999,-0.111573968108644,-0.208743419546806
1580421640.61179,-1.07985046158541,-0.0959487296864268,-0.201907377737086
1580421640.61578,-1.06178377965972,-0.0920424200808725,-0.209719996948195
1580421640.61978,-1.04811169604028,-0.0764171816586554,-0.223392080567635
1580421640.62378,-1.02662699320974,-0.0539559014267184,-0.230716411078049
1580421640.62778,-1.01832608529793,-0.0363775082017241,-0.234134431982909
1580421640.63178,-1.00904859998474,-0.0256351567864499,-0.244388494697489
1580421640.63578,-1.00514229037919,-0.0339360646982527,-0.232669565880826
1580421640.63978,-1.01734950789654,-0.0422369726100555,-0.232181277180132
1580421640.64378,-1.04274052033265,-0.0505378805218584,-0.237064164187075
1580421640.64777,-1.06861982146944,-0.0549324788281069,-0.258548867017625
1580421640.65177,-1.09987029831388,-0.0642099641412983,-0.286869611657893
1580421640.65577,-1.13112077515831,-0.0661631189440754,-0.294682230869002
1580421640.65977,-1.16481269550622,-0.0700694285496297,-0.311772335393302
1580421640.66377,-1.1916685740444,-0.0813000686655982,-0.323491264209965
1580421640.66777,-1.2175478751812,-0.105226214999618,-0.323979552910659
1580421640.67177,-1.24440375371939,-0.131593804837109,-0.307866025787748
1580421640.67577,-1.27077134355688,-0.148195620660715,-0.292240787365531
1580421640.67976,-1.29958037689784,-0.145265888456549,-0.275150682841231
1580421640.68376,-1.31715877012284,-0.136476691844052,-0.264896620126651
1580421640.68776,-1.32692454413672,-0.116945143816281,-0.266849774929428
1580421640.69174,-1.33278400854505,-0.0988784618905925,-0.272709239337759
1580421640.69574,-1.33424887464714,-0.0881361104753182,-0.267338063630122
1580421640.69974,-1.34401464866102,-0.0720225833524069,-0.268802929732205
1580421640.70374,-1.35622186617838,-0.0485847257190812,-0.263431754024568
1580421640.70774,-1.37624170290684,-0.0295414663920042,-0.272709239337759
1580421640.71174,-1.39382009613184,-0.0305180437933927,-0.282475013351645
1580421640.71573,-1.41530479896239,-0.0437018387121384,-0.281986724650951
1580421640.71973,-1.44704356450752,-0.0515144579232469,-0.270756084534982
1580421640.72373,-1.48464179446098,-0.0427252613107498,-0.262943465323874
1580421640.72773,-1.5163805600061,-0.0246585793850613,-0.251712825207905
1580421640.73173,-1.54958419165331,-0.00854505226214997,-0.257572289616236
1580421640.73573,-1.57448691538872,0.00903334096284425,-0.269779507133594
1580421640.73973,-1.6106202792401,0.0187991149767299,-0.302494850080111
1580421640.74372,-1.64089417868315,0.0163576714732585,-0.321538109407188
1580421640.74772,-1.67214465552758,0.0202639810788128,-0.328862439917602
1580421640.75172,-1.71169604028382,0.0397955291065841,-0.313725490196079
1580421640.75572,-1.74880598153658,0.0798352025635154,-0.322514686808576
1580421640.75972,-1.7644312199588,0.110109102006561,-0.351812008850233
1580421640.76372,-1.77175555046922,0.132570382238498,-0.366948958571756
1580421640.76772,-1.77810330357824,0.147219043259327,-0.383062485694667
1580421640.77173,-1.77615014877546,0.156496528572518,-0.372808422980087
1580421640.77573,-1.77907988097963,0.167727168688486,-0.330815594720379
1580421640.77973,-1.77907988097963,0.184328984512092,-0.297611963073168
1580421640.78372,-1.77419699397269,0.173586633096818,-0.282475013351645
1580421640.78772,-1.76638437476158,0.154055085069047,-0.303959716182193
1580421640.79172,-1.78103303578241,0.171145189593346,-0.304448004882888
1580421640.79572,-1.8074006256199,0.221927214465552,-0.298100251773862
1580421640.79972,-1.81716639963378,0.26392004272526,-0.32642099641413
1580421640.80372,-1.80495918211643,0.26733806363012,-0.361089494163425
1580421640.80772,-1.81716639963378,0.245365072098878,-0.354741741054399
1580421640.81172,-1.87478446631571,0.253177691309986,-0.318120088502328
1580421640.81571,-1.93777370870527,0.27075608453498,-0.299565117875945
1580421640.81971,-1.97537193865873,0.26392004272526,-0.312748912794691
1580421640.82371,-1.97732509346151,0.248294804303043,-0.39136339360647
1580421640.82771,-1.95779354543374,0.262943465323872,-0.429449912260624
1580421640.83171,-1.91335927367056,0.290775921263446,-0.498786907759213
1580421640.83571,-1.84255741206989,0.327885862516212,-0.516853589684901
1580421640.83971,-1.74929427023728,0.335210193026626,-0.522224765392538
1580421640.84371,-1.62136263065537,0.276615548943312,-0.589608606088349
1580421640.8477,-1.46803997863737,0.189211871519035,-0.660898756389715
1580421640.85168,-1.31520561532006,0.0925307087815668,-0.649668116273746
1580421640.85568,-1.15846494239719,0.0168459601739528,-0.54859235523003
1580421640.85968,-0.99293507286183,-0.0690928511482412,-0.478278782330053
1580421640.86368,-0.813244831006333,-0.241458762493323,-0.417242694743267
1580421640.86768,-0.661387045090409,-0.501716639963378,-0.348393987945373
1580421640.87168,-0.582772564278629,-0.871839475089647,-0.309330891889831
1580421640.87568,-0.621835660334172,-1.22780193789578,-0.364507515068285
1580421640.87967,-0.806897077897307,-1.13160906385901,-0.302983138780805
1580421640.88367,-1.06324864576181,-0.756603341725796,-0.0612802319371326
1580421640.88767,-1.22096589608606,-0.554940108339055,-0.0563973449301898
1580421640.89167,-1.14186312657359,-0.285893034256505,-0.281498435950256
1580421640.89567,-0.971450370031281,0.177004654001678,-0.40845349813077
1580421640.89967,-0.820080872816053,0.631113145647365,-0.431403067063401
1580421640.90367,-0.7390249485008,0.977309834439613,-0.383550774395362
1580421640.90767,-0.705333028152895,1.28493171587701,-0.382085908293279
1580421640.91167,-0.714122224765392,1.51393911650263,-0.428473334859236
1580421640.91566,-0.746349279011215,1.5598382543679,-0.438239108873121
1580421640.91966,-0.720958266575112,1.4138399328603,-0.375738155184253
1580421640.92366,-0.634531166552224,1.15065232318608,-0.302983138780805
1580421640.92766,-0.526619363698787,0.841077286945907,-0.304448004882888
1580421640.93167,-0.437750820172427,0.535408560311286,-0.37769130998703
1580421640.93567,-0.369390402075227,0.2605020218204,-0.44263370717937
1580421640.93967,-0.326909285114825,0.0271000228885327,-0.491462577248798
1580421640.94367,-0.303471427481499,-0.158449683375295,-0.498298619058518
1580421640.94767,-0.290287632562753,-0.296635385671779,-0.46314183260853
1580421640.95166,-0.295170519569696,-0.383550774395362,-0.353276874952316
1580421640.95566,-0.327397573815519,-0.399664301518273,-0.231692988479438
1580421640.95966,-0.391851682307164,-0.343022812237736,-0.142824444953078
1580421640.96366,-0.475837338826581,-0.260013733119708,-0.11108567940795
1580421640.96766,-0.559822995345998,-0.197024490730143,-0.110597390707255
1580421640.97166,-0.580331120775158,-0.178957808804455,-0.101319905394064
1580421640.97566,-0.530525673304341,-0.165774013885709,-0.0788586251621268
1580421640.97966,-0.483161669336996,-0.126222629129472,-0.0319829098954756
1580421640.98365,-0.462653543907836,-0.0695811398489354,0.0109864957656214
1580421640.98765,-0.465094987411307,-0.0178225375753414,0.0280766002899213
1580421640.99165,-0.477790493629358,0.00610360875867855,0.031006332494087
1580421640.99565,-0.502204928664073,0.0046387426565957,0.0417486839093613
1580421640.99965,-0.542732890821698,-0.0256351567864499,0.0495613031204698
1580421641.00365,-0.596444647898069,-0.0813000686655982,0.0710460059510183
1580421641.00765,-0.658457312886243,-0.142336156252384,0.0954604409857325
1580421641.01163,-0.72877088578622,-0.208255130846112,0.105226214999618
1580421641.01563,-0.802014190890365,-0.270267795834288,0.113038834210727
1580421641.01962,-0.875745784695201,-0.32300297550927,0.116456855115587
1580421641.02362,-0.93824673838407,-0.356694895857176,0.120851453421835
1580421641.02762,-0.985610742351415,-0.372320134279393,0.127199206530861
1580421641.03162,-1.01930266269932,-0.373296711680782,0.099855039291981
1580421641.03562,-1.03883421072709,-0.359624628061342,0.073975738155184
1580421641.03962,-1.05690089265278,-0.336186770428016,0.0529793240253298
1580421641.04362,-1.05983062485695,-0.307377737087053,0.024170290684367
1580421641.04762,-1.06617837796597,-0.271732661936371,-0.000732433051041426
1580421641.05161,-1.07399099717708,-0.219485770962081,-0.0227054245822842
1580421641.05561,-1.08522163729305,-0.167238879987792,-0.0520027466239412
1580421641.05961,-1.10914778362707,-0.116456855115587,-0.0559090562294955
1580421641.06361,-1.149187457084,-0.0788586251621268,-0.0915541313801782
1580421641.06761,-1.20192263675898,-0.0515144579232469,-0.141847867551689
1580421641.07161,-1.26442359044785,-0.0280766002899213,-0.183840695811398
1580421641.07561,-1.33571374074922,-0.0100099183642328,-0.202883955138475
1580421641.07961,-1.40895704585336,-0.0075684748607614,-0.206790264744029
1580421641.0836,-1.48513008316167,-0.0217288471808956,-0.216556038757915
1580421641.0876,-1.56032654306859,-0.0524910353246355,-0.223880369268329
1580421641.09161,-1.63845273517967,-0.0900892652780954,-0.234622720683603
1580421641.09561,-1.71169604028382,-0.121828030823224,-0.239017318989852
1580421641.09961,-1.78786907759213,-0.153566796368352,-0.250736247806516
1580421641.10361,-1.85525291828794,-0.207766842145418,-0.276615548943314
1580421641.10761,-1.90408178835737,-0.298100251773862,-0.307866025787748
1580421641.11161,-1.94070344090944,-0.41187151903563,-0.299076829175251
1580421641.11561,-1.9612115663386,-0.547615777828641,-0.282475013351645
1580421641.1196,-1.95730525673304,-0.675547417410543,-0.234134431982909
1580421641.1236,-1.93289082169833,-0.79127183947509,-0.193118181124589
1580421641.1276,-1.8845502403296,-0.898695353627833,-0.172610055695429
1580421641.1316,-1.82253757534142,-1.00807202258335,-0.176028076600289
1580421641.1356,-1.77907988097963,-1.14479285877775,-0.181887541008621
1580421641.1396,-1.76345464255741,-1.3029983978027,-0.177004654001678
1580421641.1436,-1.77663843747616,-1.49489585717556,-0.178469520103761
1580421641.1476,-1.81667811093309,-1.69167620355535,-0.179934386205844
1580421641.15159,-1.83913939116503,-1.86306553749905,-0.180422674906538
1580421641.15559,-1.82302586404212,-1.96511787594415,-0.208743419546806
1580421641.15959,-1.75222400244144,-1.97878995956359,-0.260990310521096
1580421641.16359,-1.64040588998245,-1.92214847028306,-0.340581368734265
1580421641.16759,-1.51833371480888,-1.83718623636225,-0.42896162355993
1580421641.17157,-1.3972381170367,-1.75954833295186,-0.521736476691844
1580421641.17557,-1.28981460288396,-1.70681315327687,-0.608651865415426
1580421641.17957,-1.1833676661326,-1.67605096513313,-0.716563668268863
1580421641.18357,-1.08229190508888,-1.68044556343938,-0.826428625925079
1580421641.18756,-1.00318913557641,-1.70388342107271,-0.89723048752575
1580421641.19156,-0.915297169451438,-1.73318074311437,-0.949477378500038
1580421641.19556,-0.824963759822996,-1.76150148775464,-0.99977111467155
1580421641.19956,-0.756115053025102,-1.81228351262684,-1.0036774242771
1580421641.20356,-0.714122224765392,-1.86550698100252,-0.96217288471809
1580421641.20756,-0.690196078431372,-1.9099412527657,-0.884534981307699
1580421641.21156,-0.677988860914015,-1.95828183413443,-0.779552910658428
1580421641.21556,-0.669199664301518,-2.01638818951705,-0.679453727016098
1580421641.21955,-0.670664530403601,-2.08279545281147,-0.586678873884184
1580421641.22355,-0.683848325322346,-2.14529640650034,-0.483161669336996
1580421641.22755,-0.695567254139009,-2.19412527656977,-0.394293125810636
1580421641.23155,-0.71168078126192,-2.22781719691768,-0.330327306019685
1580421641.23555,-0.735118638895246,-2.24197756923781,-0.292729076066225
1580421641.23955,-0.758068207827879,-2.21658655680171,-0.280521858548868
1580421641.24355,-0.919203479056993,-2.07742427710384,-0.304936293583582
1580421641.24755,-1.07447928587777,-1.88992141603723,-0.520271610589761
1580421641.25153,-1.07740901808194,-1.40016784924086,-0.449958037689784
1580421641.25552,-1.01783779659724,-1.24977492942702,-0.364995803768979
1580421641.25952,-0.916273746852827,-1.38063630121309,-0.675547417410543
1580421641.26352,-0.98609903105211,-1.56618600747692,-0.759044785229268
1580421641.26752,-1.32252994583047,-1.32741283283742,-0.406500343327993
1580421641.27152,-1.7986114290074,-0.331792172121768,-0.0471198596169984
1580421641.27552,-2.01931792172122,0.682383459220265,0.405523765926603
1580421641.27952,-1.92605477988861,1.27809567406729,0.490974288548102
1580421641.28352,-1.67165636682689,1.3884489204242,0.295658808270389
1580421641.28751,-1.3117875944152,1.09059281300069,-0.0163576714732585
1580421641.29151,-1.01002517738613,0.58374914168002,-0.367925535973145
1580421641.29551,-0.857679102769513,0.0129396505683985,-0.734630350194552
1580421641.29951,-0.867444876783399,-0.403570611123827,-1.13258564126039
1580421641.30351,-1.14772259098192,-0.379156176089113,-0.981704432745861
1580421641.30751,-1.54128328374151,-0.0983901731898982,-0.481208514534218
1580421641.31151,-1.65944914930953,-0.0388189517051956,-0.112062256809338
1580421641.31551,-1.57302204928664,-0.229739833676661,-0.0207522697795071
1580421641.3195,-1.41530479896239,-0.547127489127947,-0.184328984512092
1580421641.3235,-1.30153353170062,-0.779552910658428,-0.339604791332876
1580421641.3275,-1.27125963225757,-0.903089951934081,-0.473884184023804
1580421641.33151,-1.34840924696727,-0.955825131609064,-0.457282368200199
1580421641.33551,-1.45290302891585,-1.03102159151598,-0.373296711680782
1580421641.33951,-1.58229953459983,-1.10865949492637,-0.313237201495385
1580421641.34351,-1.64235904478523,-1.16920729381247,-0.262455176623179
1580421641.34751,-1.55690852216373,-1.1574883649958,-0.162844281681544
1580421641.35151,-1.38796063172351,-1.03248645761807,-0.127199206530861
1580421641.3555,-1.21803616388189,-0.873792629892424,-0.125246051728084
1580421641.3595,-1.07740901808194,-0.724864576180666,-0.0676279850461583
1580421641.3635,-0.974868390936141,-0.581307698176547,0.00854505226214997
1580421641.3675,-0.881116960402839,-0.492927443350881,0.0266117341878385
1580421641.3715,-0.760997940032045,-0.486579690241856,-0.0422369726100555
1580421641.3755,-0.634042877851529,-0.538826581216144,-0.179934386205844
1580421641.3795,-0.561776150148775,-0.582772564278629,-0.327397573815519
1580421641.3835,-0.55884641794461,-0.606210421911955,-0.416266117341879
1580421641.3875,-0.640878919661249,-0.583260852979324,-0.440680552376593
1580421641.39149,-0.771252002746625,-0.536873426413367,-0.411383230334936
1580421641.39549,-0.887953002212559,-0.472907606622416,-0.347905699244679
1580421641.39949,-0.949965667200733,-0.422613870450904,-0.314213778896773
1580421641.40349,-0.987563897154192,-0.412359807736324,-0.35034714274815
1580421641.40749,-1.01393148699168,-0.431403067063401,-0.431403067063401
1580421641.41147,-1.05006485084306,-0.427985046158541,-0.454352635996033
1580421641.41547,-1.09645227740902,-0.374761577782865,-0.418219272144656
1580421641.41947,-1.12184328984512,-0.304936293583582,-0.422613870450904
1580421641.42346,-1.11598382543679,-0.245365072098878,-0.45288776989395
1580421641.42746,-1.11110093842985,-0.177004654001678,-0.440192263675899
1580421641.43146,-1.11842526894026,-0.114015411612115,-0.419195849546044
1580421641.43546,-1.11354238193332,-0.0749523155565726,-0.40161745632105
1580421641.43946,-1.09938200961318,-0.0832532234683754,-0.38452735179675
1580421641.44346,-1.07936217288472,-0.130128938735027,-0.414312962539102
1580421641.44746,-1.06813153276875,-0.182864118410009,-0.411383230334936
1580421641.45146,-1.08278019378958,-0.219485770962081,-0.359136339360647
1580421641.45545,-1.08717479209583,-0.244876783398183,-0.351323720149539
1580421641.45945,-1.07447928587777,-0.264896620126651,-0.344487678339819
1580421641.46345,-1.06178377965972,-0.274662394140536,-0.305912870984971
1580421641.46745,-1.04811169604028,-0.291264209964142,-0.294193942168308
1580421641.47145,-1.02369726100557,-0.312748912794691,-0.295170519569696
1580421641.47545,-1.00611886778058,-0.34351110093843,-0.251224536507211
1580421641.47945,-0.999282825970855,-0.364507515068285,-0.207278553444723
1580421641.48345,-1.00318913557641,-0.366948958571756,-0.177492942702372
1580421641.48744,-1.00709544518196,-0.354253452353705,-0.156496528572518
1580421641.49145,-1.00172426947433,-0.337163347829405,-0.156984817273212
1580421641.49545,-0.978774700541695,-0.328374151216908,-0.178469520103761
1580421641.49945,-0.959243152513924,-0.320561532005799,-0.189211871519035
1580421641.50345,-0.952895399404898,-0.294682230869002,-0.214602883955138
1580421641.50745,-0.953871976806287,-0.268802929732205,-0.251224536507211
1580421641.51145,-0.95533684290837,-0.249271381704432,-0.277103837644008
1580421641.51545,-0.959243152513924,-0.237064164187075,-0.292729076066225
1580421641.51945,-0.969497215228504,-0.23657587548638,-0.304448004882888
1580421641.52344,-0.980239566643778,-0.225345235370412,-0.305424582284276
1580421641.52744,-0.990005340657664,-0.210696574349583,-0.287846189059282
1580421641.53144,-0.994888227664607,-0.195559624628061,-0.267338063630122
1580421641.53544,-0.99293507286183,-0.183352407110704,-0.278080415045396
1580421641.53944,-0.988540474555581,-0.178469520103761,-0.272220950637065
1580421641.54344,-0.981704432745861,-0.179446097505149,-0.260013733119708
1580421641.54744,-0.983169298847944,-0.176516365300984,-0.23999389639124
1580421641.55144,-0.983657587548638,-0.159426260776684,-0.241947051194018
1580421641.55543,-0.976821545738918,-0.153566796368352,-0.266849774929428
1580421641.55943,-0.970473792629893,-0.149172198062104,-0.269291218432899
1580421641.56343,-0.973403524834058,-0.147707331960021,-0.252689402609294
1580421641.56743,-0.97584496833753,-0.153566796368352,-0.235599298084992
1580421641.57141,-0.97242694743267,-0.157473105973907,-0.218997482261386
1580421641.57541,-0.96559090562295,-0.159914549477378,-0.215579461356526
1580421641.57941,-0.957289997711147,-0.161867704280155,-0.209231708247501
1580421641.58341,-0.953383688105593,-0.159426260776684,-0.220462348363469
1580421641.58741,-0.95533684290837,-0.165285725185015,-0.242435339894712
1580421641.5914,-0.953871976806287,-0.191165026321812,-0.261966887922485
1580421641.5954,-0.952407110704204,-0.229739833676661,-0.291264209964142
1580421641.5994,-0.953383688105593,-0.260013733119708,-0.318608377203022
1580421641.6034,-0.95533684290837,-0.279545281147479,-0.34692912184329
1580421641.6074,-0.960219729915313,-0.272709239337759,-0.339116502632182
1580421641.6114,-0.961196307316701,-0.258060578316931,-0.349370565346762
1580421641.6154,-0.96900892652781,-0.255130846112765,-0.344487678339819
1580421641.6194,-0.984634164950027,-0.263920042725262,-0.343022812237736
1580421641.62339,-1.01393148699168,-0.272220950637065,-0.315190356298162
1580421641.62739,-1.04908827344167,-0.254154268711376,-0.286869611657893
1580421641.63139,-1.0642252231632,-0.237064164187075,-0.303471427481499
1580421641.63539,-1.05787747005417,-0.237552452887769,-0.328374151216908
1580421641.63939,-1.05250629434653,-0.240482185091935,-0.332768749523156
1580421641.64339,-1.05250629434653,-0.240482185091935,-0.332768749523156
1580421641.64739,-1.05836575875486,-0.218020904859998,-0.308842603189136
1580421641.6514,-1.06129549095903,-0.180910963607232,-0.291264209964142
1580421641.6554,-1.05152971694514,-0.137941557946135,-0.286869611657893
1580421641.65939,-1.03981078812848,-0.103761348897535,-0.266361486228734
1580421641.66339,-1.03248645761807,-0.0778820477607383,-0.233646143282215
1580421641.66739,-1.02662699320974,-0.0573739223315783,-0.232181277180132
1580421641.67139,-1.02174410620279,-0.0422369726100555,-0.23315785458152
1580421641.67539,-1.01979095140002,-0.024170290684367,-0.229251544975966
1580421641.67939,-1.01344319829099,-0.0222171358815899,-0.232669565880826
1580421641.68339,-1.00758373388266,-0.0227054245822842,-0.219485770962081
1580421641.68739,-1.01393148699168,-0.0192874036774242,-0.212161440451666
1580421641.69139,-1.01783779659724,-0.0207522697795071,-0.208255130846112
1580421641.69538,-1.02467383840696,-0.0314946211947813,-0.197024490730143
1580421641.69938,-1.03590447852293,-0.0456549935149155,-0.189700160219729
1580421641.70338,-1.05104142824445,-0.0505378805218584,-0.195071335927366
1580421641.70738,-1.06520180056458,-0.0520027466239412,-0.207278553444723
1580421641.71138,-1.08131532768749,-0.0554207675288012,-0.222903791866941
1580421641.71538,-1.11158922713054,-0.0568856336308841,-0.224856946669718
1580421641.71938,-1.14576943617914,-0.0612802319371326,-0.208743419546806
1580421641.72337,-1.19020370794232,-0.0607919432364383,-0.201419089036392
1580421641.72737,-1.22877851529717,-0.0578622110322726,-0.187747005416952
1580421641.73135,-1.26491187914855,-0.0510261692225527,-0.171633478294041
1580421641.73535,-1.29030289158465,-0.0451667048142212,-0.178469520103761
1580421641.73935,-1.31618219272145,-0.0451667048142212,-0.181887541008621
1580421641.74335,-1.34010833905547,-0.0490730144197755,-0.179934386205844
1580421641.74735,-1.35768673228046,-0.0485847257190812,-0.157473105973907
1580421641.75135,-1.37477683680476,-0.0427252613107498,-0.149660486762798
1580421641.75535,-1.38356603341726,-0.0432135500114441,-0.140383001449607
1580421641.75934,-1.38991378652628,-0.0427252613107498,-0.127199206530861
1580421641.76334,-1.39626153963531,-0.0388189517051956,-0.12475776302739
1580421641.76734,-1.4060273136492,-0.0256351567864499,-0.126222629129472
1580421641.77134,-1.41921110856794,-0.0109864957656214,-0.133058670939192
1580421641.77534,-1.43434805828946,0.00268558785381856,-0.156984817273212
1580421641.77934,-1.43630121309224,-0.00415045395590141,-0.213626306553749
1580421641.78334,-1.43678950179294,-0.0153810940718699,-0.253665980010682
1580421641.78734,-1.4485084306096,-0.00317387655451284,-0.262943465323874
1580421641.79133,-1.46315709163043,0.0271000228885327,-0.284428168154422
1580421641.79533,-1.47292286564431,0.0500495918211641,-0.32300297550927
1580421641.79933,-1.49294270237278,0.0617685206378269,-0.351812008850233
1580421641.80333,-1.53054093232624,0.0847180895704582,-0.375249866483559
1580421641.80733,-1.57009231708247,0.102784771496147,-0.394293125810636
1580421641.81134,-1.61989776455329,0.116456855115587,-0.421637293049516
1580421641.81534,-1.67165636682689,0.12133974212253,-0.471442740520333
1580421641.81934,-1.73220416571298,0.129640650034332,-0.511970702677958
1580421641.82334,-1.79519340810254,0.150148775463492,-0.540291447318227
1580421641.82733,-1.8498817425803,0.177492942702372,-0.565194171053635
1580421641.83133,-1.88357366292821,0.206301976043335,-0.566170748455024
1580421641.83533,-1.91189440756848,0.248783093003738,-0.545662623025864
1580421641.83933,-1.93728542000458,0.302494850080109,-0.530037384603647
1580421641.84333,-1.95046921492332,0.334233615625237,-0.52808422980087
1580421641.84733,-1.94656290531777,0.327885862516212,-0.530525673304341
1580421641.85133,-1.94851606012055,0.33228046082246,-0.519783321889067
1580421641.85533,-1.96365300984207,0.378667887388417,-0.47339589532311
1580421641.85932,-1.98171969176776,0.456794079499502,-0.42212558175021
1580421641.86332,-1.98123140306706,0.50171663996338,-0.369878690775922
1580421641.86732,-1.96707103074693,0.497810330357822,-0.32300297550927
1580421641.87132,-1.94949263752194,0.444098573281451,-0.294682230869002
1580421641.87532,-1.94753948271916,0.35278858625162,-0.270756084534982
1580421641.87932,-1.95144579232471,0.231692988479438,-0.257572289616236
1580421641.88332,-1.98171969176776,0.152590218966964,-0.231692988479438
1580421641.88732,-2.02029449912261,0.113527122911421,-0.262455176623179
1580421641.8913,-2.03445487144274,0.0852063782711525,-0.348882276646068
1580421641.89529,-2.00320439459831,0.0974135957885096,-0.416754406042573
1580421641.89929,-1.92263675898375,0.123292896925307,-0.489021133745327
1580421641.90329,-1.80056458381018,0.131105516136415,-0.561287861448081
1580421641.90729,-1.65505455100328,0.113038834210727,-0.646250095368886
1580421641.91129,-1.50954451819638,0.0832532234683754,-0.686778057526512
1580421641.91529,-1.36598764019226,0.0451667048142212,-0.659922178988326
1580421641.91929,-1.21657129777981,0.00415045395590141,-0.577889677271687
1580421641.92329,-1.072526131075,-0.114991989013504,-0.448493171587701
1580421641.92728,-0.937758449683376,-0.304448004882888,-0.409430075532159
1580421641.93128,-0.846448462653544,-0.566170748455024,-0.406988632028687
1580421641.93528,-0.846448462653544,-0.730235751888303,-0.44946974898909
1580421641.93928,-0.92457465476463,-0.614999618524452,-0.336186770428016
1580421641.94328,-1.05397116044862,-0.572518501564049,-0.268314641031511
1580421641.94728,-1.13063248645762,-0.591073472190432,-0.430914778362707
1580421641.95128,-1.06080720225834,-0.458258945601587,-0.568612191958495
1580421641.95528,-0.956801709010453,-0.173098344396124,-0.551033798733501
1580421641.95928,-0.880628671702144,0.135500114442664,-0.490974288548104
1580421641.96327,-0.82545204852369,0.403082322423131,-0.424567025253682
1580421641.96727,-0.775646601052873,0.636484321355002,-0.347905699244679
1580421641.97128,-0.726817730983443,0.835217822537576,-0.298588540474556
1580421641.97528,-0.689219501029983,0.979751277943084,-0.271732661936371
1580421641.97928,-0.644785229266803,1.02418554970626,-0.254154268711376
1580421641.98328,-0.574471656366827,0.969497215228504,-0.240482185091935
1580421641.98728,-0.49732204165713,0.870374608987564,-0.234622720683603
1580421641.99128,-0.423590447852293,0.745860990310522,-0.229739833676661
1580421641.99528,-0.355230029755093,0.6281834134432,-0.227298390173189
1580421641.99927,-0.303959716182193,0.507576104371712,-0.216556038757915
1580421642.00327,-0.265873197528039,0.407965209430074,-0.203372243839169
1580421642.00727,-0.251224536507211,0.30493629358358,-0.201907377737086
1580421642.01127,-0.247806515602349,0.197512779430838,-0.214602883955138
1580421642.01527,-0.249759670405126,0.0983901731898982,-0.240482185091935
1580421642.01927,-0.259525444419014,0.00317387655451284,-0.244876783398183
1580421642.02327,-0.270267795834288,-0.0827649347676811,-0.230716411078049
1580421642.02726,-0.289799343862059,-0.151613641565575,-0.195071335927366
1580421642.03126,-0.324956130312048,-0.204837109941252,-0.159426260776684
1580421642.03526,-0.366460669871062,-0.227298390173189,-0.114015411612115
1580421642.03926,-0.419195849546044,-0.215579461356526,-0.0744640268558783
1580421642.04326,-0.475837338826581,-0.182864118410009,-0.0471198596169984
1580421642.04726,-0.537850003814755,-0.141359578850995,-0.024170290684367
1580421642.05124,-0.594491493095292,-0.096437018387121,-0.0100099183642328
1580421642.05524,-0.629648279545281,-0.0495613031204698,0.0046387426565957
1580421642.05924,-0.645273517967498,-0.0075684748607614,0.0187991149767299
1580421642.06324,-0.640390630960555,0.0148928053711757,0.0388189517051956
1580421642.06723,-0.636972610055695,0.0246585793850613,0.0563973449301898
1580421642.07123,-0.640390630960555,0.0153810940718699,0.0852063782711525
1580421642.07523,-0.654062714579995,-0.00170901045242999,0.105226214999618
1580421642.07923,-0.677988860914015,-0.0314946211947813,0.112062256809338
1580421642.08323,-0.71509880216678,-0.0666514076447697,0.110597390707255
1580421642.08723,-0.761974517433433,-0.112550545510032,0.11108567940795
1580421642.09123,-0.820569161516747,-0.159914549477378,0.102296482795452
1580421642.09522,-0.888929579613947,-0.208255130846112,0.0949721522850382
1580421642.09922,-0.959243152513924,-0.251224536507211,0.0827649347676811
1580421642.10322,-1.02858014801251,-0.287357900358588,0.063721675440604
1580421642.10722,-1.09254596780346,-0.319096665903716,0.0485847257190812
1580421642.11122,-1.149187457084,-0.342534523537042,0.0295414663920042
1580421642.11522,-1.20338750286107,-0.361577782864119,0.0187991149767299
1580421642.11922,-1.2522163729305,-0.361577782864119,0.0158693827725642
1580421642.12322,-1.30055695429923,-0.351323720149539,0.00366216525520713
1580421642.12721,-1.34889753566796,-0.330327306019685,-0.0148928053711757
1580421642.13122,-1.41481651026169,-0.309819180590525,-0.0271000228885327
1580421642.13522,-1.48317692835889,-0.296635385671779,-0.0554207675288012
1580421642.13922,-1.56520943007553,-0.290775921263448,-0.0944838635843439
1580421642.14322,-1.64626535439078,-0.283451590753033,-0.129640650034332
1580421642.14722,-1.72341496910048,-0.281010147249562,-0.161867704280155
1580421642.15122,-1.77419699397269,-0.283939879453728,-0.183352407110704
1580421642.15522,-1.8074006256199,-0.301518272678722,-0.190676737621118
1580421642.15922,-1.83181506065461,-0.311284046692608,-0.199954222934309
1580421642.16321,-1.85622949568933,-0.315678644998856,-0.220950637064163
1580421642.16721,-1.88894483863584,-0.320073243305105,-0.243900205996795
1580421642.17121,-1.92458991378653,-0.351323720149539,-0.273197528038454
1580421642.17521,-1.94509803921569,-0.401129167620356,-0.282963302052339
1580421642.17921,-1.94753948271916,-0.468513008316167,-0.274174105439842
1580421642.18321,-1.93289082169833,-0.553475242236972,-0.254642557412071
1580421642.18721,-1.90505836575876,-0.635019455252918,-0.220950637064163
1580421642.19121,-1.8752727550164,-0.714610513466086,-0.198977645532921
1580421642.1952,-1.84792858777752,-0.789318684672313,-0.187747005416952
1580421642.1992,-1.82937361715114,-0.862561989776456,-0.191165026321812
1580421642.2032,-1.82888532845045,-0.96559090562295,-0.193606469825284
1580421642.2072,-1.85622949568933,-1.09352254520485,-0.203860532539863
1580421642.21118,-1.90310521095598,-1.25270466163119,-0.206790264744029
1580421642.21518,-1.96267643244068,-1.4226291294728,-0.225345235370412
1580421642.21918,-2.00857557030594,-1.57595178149081,-0.252201113908599
1580421642.22318,-2.00906385900664,-1.68630502784771,-0.293705653467613
1580421642.22718,-1.95486381322957,-1.75271229114214,-0.356206607156482
1580421642.23117,-1.84206912336919,-1.77566186007477,-0.440680552376593
1580421642.23517,-1.68142214084077,-1.78738078889143,-0.536385137712672
1580421642.23917,-1.48464179446098,-1.77859159227894,-0.636484321355001
1580421642.24317,-1.29225604638743,-1.78396276798657,-0.723887998779277
1580421642.24717,-1.1403982604715,-1.81228351262684,-0.777111467154956
1580421642.25117,-1.00514229037919,-1.84939345387961,-0.814221408407722
1580421642.25517,-0.895765621423667,-1.89578088044556,-0.854749370565347
1580421642.25917,-0.823010605020219,-1.97195391775387,-0.900160219729916
1580421642.26316,-0.773693446250096,-2.07840085450523,-0.92115663385977
1580421642.26716,-0.746837567711909,-2.17850003814755,-0.912855725947967
1580421642.27116,-0.73218890669108,-2.24930189974823,-0.86646829938201
1580421642.27516,-0.724864576180666,-2.27371633478294,-0.795178149080645
1580421642.27916,-0.723887998779277,-2.25564965285725,-0.710704203860532
1580421642.28316,-0.720469977874417,-2.21316853589685,-0.634531166552224
1580421642.28716,-0.716075379568169,-2.15994506752117,-0.55884641794461
1580421642.29117,-0.712657358663309,-2.09939726863508,-0.481696803234913
1580421642.29517,-0.716563668268863,-2.04275577935454,-0.424567025253682
1580421642.29917,-0.734142061493857,-1.98318455786984,-0.385015640497445
1580421642.30316,-0.751232166018159,-1.92458991378653,-0.351812008850233
1580421642.30716,-0.779064621957733,-1.87722590981918,-0.336186770428016
1580421642.31116,-0.807385366598002,-1.83376821545739,-0.326909285114825
1580421642.31516,-0.832776379034105,-1.77907988097963,-0.326909285114825
1580421642.31916,-0.861097123674373,-1.70290684367132,-0.309819180590525
1580421642.32316,-1.00123598077363,-1.5510490577554,-0.350835431448845
1580421642.32716,-1.08766308079652,-1.42555886167697,-0.706797894254978
1580421642.33115,-1.14528114747845,-0.86646829938201,-0.714122224765392
1580421642.33515,-1.15455863279164,-0.56910048065919,-0.553963530937667
1580421642.33915,-1.11158922713054,-0.406500343327993,-0.779552910658428
1580421642.34315,-1.33669031815061,0.172610055695429,-0.929457541771573
1580421642.34715,-1.68142214084077,1.11256580453193,-0.277592126344702
1580421642.35115,-1.9016403448539,2.04959182116426,0.294193942168306
1580421642.35515,-1.95095750362402,2.31326771953918,0.497810330357822
1580421642.35915,-1.78249790188449,1.64089417868315,0.60425726710918
1580421642.36314,-1.50466163118944,0.758556496528573,0.538338292515451
1580421642.36714,-1.21364156557565,0.00122072175173571,0.217044327458609
1580421642.37112,-1.02613870450904,-0.644785229266803,-0.147707331960021
1580421642.37512,-0.990005340657664,-1.08424505989166,-0.554451819638361
1580421642.37912,-1.09156939040207,-1.11061264972915,-0.906996261539636
1580421642.38312,-1.23756771190967,-0.759044785229268,-0.692637521934843
1580421642.38712,-1.26100556954299,-0.412359807736324,-0.365484092469673
1580421642.39112,-1.09352254520485,-0.34692912184329,-0.277592126344702
1580421642.39512,-0.990493629358358,-0.463630121309224,-0.462165255207141
1580421642.39911,-1.0041657129778,-0.582772564278629,-0.549568932631418
1580421642.40311,-1.06715495536736,-0.645761806668192,-0.583749141680018
1580421642.40711,-1.17799649042496,-0.6877546349279,-0.503181506065461
1580421642.41111,-1.32741283283742,-0.806408789196613,-0.37769130998703
1580421642.41511,-1.50514991989014,-0.984145876249332,-0.332768749523156
1580421642.41911,-1.68630502784771,-1.20485236896315,-0.279056992446785
1580421642.42311,-1.7986114290074,-1.39089036392767,-0.105714503700312
1580421642.42711,-1.82986190585184,-1.42067597467002,-0.00952162966353853
1580421642.4311,-1.77419699397269,-1.31960021362631,0.0290531776913099
1580421642.4351,-1.67312123292897,-1.12428473334859,0.0681162737468526
1580421642.4391,-1.52809948882277,-0.899183642328527,0.0935072861829553
1580421642.4431,-1.32643625543603,-0.71851682307164,0.0544441901274126
1580421642.4471,-1.08863965819791,-0.612558175020981,-0.0651865415426869
1580421642.45108,-0.86305027847715,-0.543221179522392,-0.244876783398183
1580421642.45508,-0.688731212329289,-0.49732204165713,-0.423102159151599
1580421642.45908,-0.578866254673075,-0.447516594186313,-0.526131074998093
1580421642.46308,-0.548104066529335,-0.39478141451133,-0.548104066529335
1580421642.46707,-0.578866254673075,-0.358648050659953,-0.499275196459907
1580421642.47107,-0.630624856946669,-0.330815594720379,-0.429449912260624
1580421642.47507,-0.666269932097352,-0.317631799801633,-0.390386816205082
1580421642.47907,-0.685801480125123,-0.341069657434959,-0.406012054627299
1580421642.48307,-0.720469977874417,-0.401129167620356,-0.468024719615473
1580421642.48707,-0.78101777676051,-0.452399481193256,-0.503181506065461
1580421642.49107,-0.853284504463264,-0.466071564812696,-0.51441214618143
1580421642.49507,-0.914808880750744,-0.429449912260624,-0.49732204165713
1580421642.49906,-0.970473792629893,-0.359136339360647,-0.462165255207141
1580421642.50306,-1.02369726100557,-0.273685816739148,-0.43237964446479
1580421642.50706,-1.07447928587777,-0.186282139314869,-0.413336385137713
1580421642.51106,-1.10524147402151,-0.124269474326695,-0.417242694743267
1580421642.51506,-1.11940184634165,-0.0886243991760125,-0.458747234302281
1580421642.51906,-1.1237964446479,-0.10424963759823,-0.487556267643244
1580421642.52306,-1.13307392996109,-0.151613641565575,-0.49732204165713
1580421642.52706,-1.17262531471733,-0.192629892423895,-0.420172426947433
1580421642.53107,-1.21120012207217,-0.202395666437781,-0.335210193026628
1580421642.53506,-1.21071183337148,-0.218509193560692,-0.298588540474556
1580421642.53906,-1.17360189211871,-0.274174105439842,-0.260013733119708
1580421642.54306,-1.13795681696803,-0.345952544441902,-0.261478599221791
1580421642.54706,-1.10377660791943,-0.40845349813077,-0.270267795834288
1580421642.55106,-1.07643244068055,-0.455817502098116,-0.259037155718319
1580421642.55506,-1.05934233615625,-0.47681391622797,-0.226321812771801
1580421642.55906,-1.05055313954376,-0.448981460288396,-0.207278553444723
1580421642.56306,-1.02662699320974,-0.405523765926604,-0.206301976043335
1580421642.56705,-0.98268101014725,-0.369878690775922,-0.209719996948195
1580421642.57105,-0.94166475928893,-0.358648050659953,-0.208255130846112
1580421642.57505,-0.922133211261158,-0.346440833142596,-0.230228122377355
1580421642.57905,-0.92115663385977,-0.324467841611353,-0.269779507133594
1580421642.58305,-0.915297169451438,-0.301518272678722,-0.276615548943314
1580421642.58705,-0.912855725947967,-0.274174105439842,-0.274174105439842
1580421642.59105,-0.911879148546578,-0.241458762493323,-0.290287632562753
1580421642.59505,-0.909925993743801,-0.220950637064163,-0.312260624093996
1580421642.59905,-0.903089951934081,-0.218997482261386,-0.319096665903716
1580421642.60304,-0.906019684138247,-0.229739833676661,-0.323491264209965
1580421642.60704,-0.93141069657435,-0.243900205996795,-0.315678644998856
1580421642.61102,-0.96217288471809,-0.238040741588463,-0.306401159685665
1580421642.61502,-0.983169298847944,-0.230716411078049,-0.306401159685665
1580421642.61902,-0.99293507286183,-0.218020904859998,-0.287846189059282
1580421642.62302,-1.00807202258335,-0.196536202029449,-0.259525444419014
1580421642.62702,-1.01881437399863,-0.183352407110704,-0.254154268711376
1580421642.63102,-1.02272068360418,-0.189211871519035,-0.258548867017625
1580421642.63502,-1.02467383840696,-0.190188448920424,-0.248783093003738
1580421642.63901,-1.03297474631876,-0.192629892423895,-0.239505607690546
1580421642.64301,-1.02174410620279,-0.187747005416952,-0.256107423514154
1580421642.64701,-0.998794537270161,-0.194583047226672,-0.264896620126651
1580421642.65101,-0.981216144045167,-0.206790264744029,-0.277592126344702
1580421642.65501,-0.950942244602121,-0.228763256275272,-0.317631799801633
1580421642.65901,-0.937270160982681,-0.242923628595406,-0.324956130312048
1580421642.66301,-0.944594491493095,-0.232669565880826,-0.316166933699551
1580421642.667,-0.942641336690318,-0.237064164187075,-0.305912870984971
1580421642.671,-0.936293583581293,-0.272220950637065,-0.281010147249562
1580421642.675,-0.958266575112535,-0.311772335393302,-0.24682993820096
1580421642.679,-0.99635309376669,-0.333745326924545,-0.211673151750972
1580421642.683,-1.0212558175021,-0.358648050659953,-0.197512779430838
1580421642.687,-1.0300450141146,-0.372320134279393,-0.208255130846112
1580421642.69101,-1.0212558175021,-0.376714732585642,-0.245853360799572
1580421642.69501,-1.00709544518196,-0.373785000381476,-0.265384908827345
1580421642.69901,-1.01441977569238,-0.362066071564813,-0.270756084534982
1580421642.703,-1.0212558175021,-0.335698481727322,-0.289799343862059
1580421642.707,-1.0207675288014,-0.293217364766919,-0.293705653467613
1580421642.711,-1.02418554970626,-0.251712825207905,-0.294193942168308
1580421642.715,-1.02809185931182,-0.219485770962081,-0.304448004882888
1580421642.719,-1.03199816891737,-0.196047913328755,-0.314702067597468
1580421642.723,-1.03981078812848,-0.184328984512092,-0.321049820706493
1580421642.727,-1.04176394293126,-0.169680323491264,-0.320073243305105
1580421642.731,-1.04859998474098,-0.151125352864881,-0.320561532005799
1580421642.73499,-1.04762340733959,-0.137453269245441,-0.312260624093996
1580421642.73899,-1.04420538643473,-0.123781185626001,-0.298100251773862
1580421642.74299,-1.04078736552987,-0.108644235904478,-0.282963302052339
1580421642.74699,-1.04127565423056,-0.096437018387121,-0.260990310521096
1580421642.75099,-1.04274052033265,-0.0783703364614325,-0.248294804303043
1580421642.75499,-1.04029907682918,-0.0681162737468526,-0.236087586785686
1580421642.75899,-1.03541618982223,-0.0759288929579611,-0.204348821240558
1580421642.76299,-1.04078736552987,-0.0886243991760125,-0.173586633096818
1580421642.76699,-1.05152971694514,-0.0939955748836496,-0.152101930266269
1580421642.77096,-1.05690089265278,-0.0988784618905925,-0.134035248340581
1580421642.77496,-1.06080720225834,-0.0861829556725411,-0.128175783932249
1580421642.77896,-1.06129549095903,-0.0651865415426869,-0.146242465857938
1580421642.78296,-1.06227206836042,-0.0354009308003356,-0.148195620660715
1580421642.78696,-1.07350270847639,0.0046387426565957,-0.160891126878766
1580421642.79096,-1.09205767910277,0.0505378805218584,-0.173098344396124
1580421642.79496,-1.1062180514229,0.0764171816586554,-0.198977645532921
1580421642.79896,-1.12721446555276,0.0744640268558783,-0.221927214465552
1580421642.80295,-1.15162890058747,0.0593270771343555,-0.219974059662775
1580421642.80695,-1.18190280003052,0.0319829098954756,-0.221438925764858
1580421642.81095,-1.21998931868467,0.0114747844663157,-0.213626306553749
1580421642.81495,-1.24879835202563,-0.0148928053711757,-0.200442511635003
1580421642.81895,-1.28151369497215,-0.0217288471808956,-0.180910963607232
1580421642.82295,-1.31032272831312,-0.0168459601739528,-0.159914549477378
1580421642.82695,-1.33327229724575,-0.000244144350347142,-0.156496528572518
1580421642.83095,-1.35280384527352,0.00610360875867855,-0.161379415579461
1580421642.83494,-1.35573357747768,-0.00610360875867855,-0.167238879987792
1580421642.83894,-1.36403448538949,-0.0256351567864499,-0.174074921797512
1580421642.84294,-1.37917143511101,-0.0329594872968642,-0.176028076600289
1580421642.84694,-1.39528496223392,-0.0295414663920042,-0.173098344396124
1580421642.85095,-1.40798046845197,-0.0173342488746471,-0.188235294117646
1580421642.85495,-1.41969939726864,-0.01196307316701,-0.194583047226672
1580421642.85895,-1.44460212100404,0.000732433051041426,-0.214602883955138
1580421642.86295,-1.4822003509575,0.0256351567864499,-0.241947051194018
1580421642.86695,-1.52321660181582,0.041260395208667,-0.257084000915542
1580421642.87095,-1.56227969787137,0.0642099641412983,-0.274662394140536
1580421642.87494,-1.61843289845121,0.0930189974822611,-0.299565117875945
1580421642.87894,-1.67605096513313,0.117433432516975,-0.312260624093996
1580421642.88294,-1.73513389791714,0.125734340428778,-0.337163347829405
1580421642.88694,-1.80105287251087,0.132082093537804,-0.375249866483559
1580421642.89094,-1.87136644541085,0.144777599755855,-0.399664301518273
1580421642.89494,-1.91921873807889,0.176516365300984,-0.405523765926604
1580421642.89894,-1.94705119401846,0.201907377737086,-0.427008468757153
1580421642.90294,-1.95584039063096,0.223880369268329,-0.435309376668956
1580421642.90693,-1.95193408102541,0.252689402609292,-0.424567025253682
1580421642.91093,-1.94168001831083,0.274662394140535,-0.41870756084535
1580421642.91493,-1.93044937819486,0.285404745555809,-0.415777828641184
1580421642.91893,-1.91482413977264,0.306401159685663,-0.421637293049516
1580421642.92293,-1.89578088044556,0.352300297550926,-0.403570611123827
1580421642.92693,-1.87673762111849,0.40747692072938,-0.400640878919662
1580421642.93091,-1.84353398947128,0.432867933165483,-0.396246280613413
1580421642.93491,-1.81521324483101,0.401617456321048,-0.377203021286336
1580421642.93891,-1.80788891432059,0.353276874952314,-0.357671473258565
1580421642.9429,-1.82253757534142,0.285893034256503,-0.360112916762036
1580421642.9469,-1.85769436179141,0.231692988479438,-0.316166933699551
1580421642.9509,-1.91140611886778,0.218020904859998,-0.289799343862059
1580421642.9549,-1.94558632791638,0.201907377737086,-0.335210193026628
1580421642.9589,-1.95877012283513,0.169680323491264,-0.39136339360647
1580421642.9629,-1.96853589684901,0.148195620660715,-0.443121995880064
1580421642.9669,-1.9607232776379,0.130617227435721,-0.491462577248798
1580421642.97089,-1.92068360418097,0.0832532234683754,-0.55542839703975
1580421642.97489,-1.832791638056,0.00561532005798426,-0.646250095368886
1580421642.97889,-1.72780956740673,-0.0437018387121384,-0.677012283512626
1580421642.98289,-1.6023193713283,-0.0598153658350498,-0.618417639429312
1580421642.98689,-1.4402075226978,-0.0402838178072784,-0.572518501564049
1580421642.99089,-1.25368123903258,-0.0681162737468526,-0.499763485160601
1580421642.99489,-1.0896162355993,-0.155031662470435,-0.498298619058518
1580421642.99889,-0.95875486381323,-0.307866025787748,-0.466071564812696
1580421643.00288,-0.859143968871596,-0.522224765392538,-0.46655985351339
1580421643.00688,-0.81519798580911,-0.621835660334172,-0.415777828641184
1580421643.01089,-0.92115663385977,-0.710215915159838,-0.335698481727322
1580421643.01489,-1.08473334859235,-0.83570611123827,-0.396246280613413
1580421643.01889,-1.1150072480354,-0.823987182421607,-0.593514915693904
1580421643.02289,-1.03736934462501,-0.607186999313344,-0.663828488593881
1580421643.02689,-0.956313420309758,-0.326909285114825,-0.608163576714732
1580421643.03089,-0.88697642481117,-0.0627450980392155,-0.537850003814755
1580421643.03489,-0.812756542305639,0.182864118410009,-0.461676966506447
1580421643.03889,-0.746837567711909,0.378667887388417,-0.37427328908217
1580421643.04288,-0.693125810635538,0.543221179522394,-0.306889448386359
1580421643.04688,-0.640878919661249,0.668711375600825,-0.261478599221791
1580421643.05088,-0.596444647898069,0.731700617990388,-0.230716411078049
1580421643.05488,-0.553475242236972,0.718028534370948,-0.205325398641946
1580421643.05888,-0.506111238269627,0.650156404974442,-0.192629892423895
1580421643.06288,-0.45630579079881,0.570565346761274,-0.189700160219729
1580421643.06688,-0.409430075532159,0.490485999847408,-0.188235294117646
1580421643.07088,-0.365484092469673,0.40747692072938,-0.198001068131532
1580421643.07487,-0.325444419012742,0.33228046082246,-0.203860532539863
1580421643.07887,-0.301029983978028,0.25708400091554,-0.223392080567635
1580421643.08287,-0.281010147249562,0.170656900892652,-0.240482185091935
1580421643.08687,-0.270756084534982,0.0896009765774011,-0.249271381704432
1580421643.09085,-0.264408331425956,0.0217288471808956,-0.245853360799572
1580421643.09485,-0.256107423514154,-0.0319829098954756,-0.229739833676661
1580421643.09885,-0.261478599221791,-0.0695811398489354,-0.215091172655832
1580421643.10285,-0.268802929732205,-0.0988784618905925,-0.202395666437781
1580421643.10684,-0.281498435950256,-0.118898298619058,-0.186770428015564
1580421643.11084,-0.301518272678722,-0.126222629129472,-0.167238879987792
1580421643.11484,-0.331792172121768,-0.125734340428778,-0.153566796368352
1580421643.11884,-0.362554360265507,-0.130128938735027,-0.137453269245441
1580421643.12284,-0.399176012817579,-0.128175783932249,-0.11450370031281
1580421643.12684,-0.43921568627451,-0.117433432516975,-0.0891126878767068
1580421643.13084,-0.474372472724498,-0.0983901731898982,-0.0578622110322726
1580421643.13484,-0.507087815671015,-0.0783703364614325,-0.0329594872968642
1580421643.13884,-0.534431982909895,-0.0676279850461583,-0.0271000228885327
1580421643.14283,-0.563729304951552,-0.0588387884336612,-0.0197756923781185
1580421643.14683,-0.587655451285572,-0.0549324788281069,-0.00415045395590141
1580421643.15083,-0.617441062027924,-0.0510261692225527,0.01196307316701
1580421643.15483,-0.647714961470969,-0.0456549935149155,0.0217288471808956
1580421643.15883,-0.686289768825818,-0.0397955291065841,0.0300297550926985
1580421643.16283,-0.723399710078583,-0.0354009308003356,0.0305180437933927
1580421643.16683,-0.763439383535516,-0.0383306630045013,0.0231937132829785
1580421643.17084,-0.80494392309453,-0.0407721065079727,0.0246585793850613
1580421643.17484,-0.847425040054933,-0.0515144579232469,0.0231937132829785
1580421643.17883,-0.896742198825056,-0.0710460059510183,0.01196307316701
1580421643.18283,-0.946059357595178,-0.0920424200808725,0.00366216525520713
1580421643.18683,-1.00270084687572,-0.123781185626001,-0.000732433051041426
1580421643.19083,-1.06324864576181,-0.148683909361409,-0.00268558785381856
1580421643.19483,-1.12623788815137,-0.168215457389181,-0.0158693827725642
1580421643.19883,-1.18922713054093,-0.189700160219729,-0.0271000228885327
1580421643.20283,-1.25612268253605,-0.204348821240558,-0.0432135500114441
1580421643.20683,-1.32594796673533,-0.217044327458609,-0.0466315709163041
1580421643.21082,-1.39235523002976,-0.226321812771801,-0.063721675440604
1580421643.21482,-1.47096971084154,-0.236087586785686,-0.0764171816586554
1580421643.21882,-1.54860761425193,-0.252201113908599,-0.102296482795452
1580421643.22282,-1.62966353856718,-0.268802929732205,-0.137941557946135
1580421643.22682,-1.70681315327687,-0.286381322957199,-0.167727168688486
1580421643.23082,-1.78347447928588,-0.303959716182193,-0.192141603723201
1580421643.23482,-1.85427634088655,-0.309819180590525,-0.201419089036392
1580421643.23882,-1.91628900587472,-0.324956130312048,-0.210696574349583
1580421643.24282,-1.96658274204623,-0.345464255741208,-0.233646143282215
1580421643.24681,-1.99783321889067,-0.365972381170367,-0.264408331425956
1580421643.25079,-2.00955214770733,-0.390386816205082,-0.293217364766919
1580421643.25479,-2.01638818951705,-0.420660715648127,-0.329350728618296
1580421643.25879,-2.01492332341497,-0.477790493629358,-0.355230029755093
1580421643.26279,-2.00759899290455,-0.561776150148775,-0.36743724727245
1580421643.26679,-2.00466926070039,-0.667246509498741,-0.378179598687725
1580421643.27079,-1.99197375448234,-0.769787136644542,-0.37085526817731
1580421643.27479,-1.97244220645457,-0.869398031586176,-0.358648050659953
1580421643.27878,-1.94314488441291,-0.959731441214618,-0.364995803768979
1580421643.28278,-1.91628900587472,-1.04957656214237,-0.368902113374533
1580421643.28678,-1.89040970473793,-1.1320973525597,-0.373785000381476
1580421643.29078,-1.86355382619974,-1.22145418478675,-0.385015640497445
1580421643.29478,-1.83913939116503,-1.30739299610895,-0.523689631494621
1580421643.29878,-1.85622949568933,-1.36452277409018,-0.607675288014038
1580421643.30278,-1.86941329060807,-1.38698405432212,-0.45972381170367
1580421643.30678,-1.81228351262684,-1.49782558937972,-0.304448004882888
1580421643.31077,-1.69314106965743,-1.72683299000534,-0.393316548409247
1580421643.31477,-1.58425268940261,-1.93093766689555,-0.45288776989395
1580421643.31877,-1.47682917524987,-2.03396658274205,-0.412848096437019
1580421643.32277,-1.33424887464714,-2.06765850308995,-0.455329213397421
1580421643.32677,-1.18287937743191,-2.05838101777676,-0.594491493095292
1580421643.33078,-1.04518196383612,-2.04031433585107,-0.714610513466086
1580421643.33478,-0.937270160982681,-2.05008010986496,-0.827405203326467
1580421643.33878,-0.870862897688259,-2.11355764095521,-0.870862897688259
1580421643.34278,-0.847913328755627,-2.20633249408713,-0.841077286945907
1580421643.34677,-0.850354772259099,-2.29666590371557,-0.740001525902189
1580421643.35077,-0.848889906157016,-2.37674525062944,-0.619882505531395
1580421643.35477,-0.812268253604945,-2.45047684443427,-0.520759899290455
1580421643.35877,-0.747814145113297,-2.50321202410925,-0.45288776989395
1580421643.36277,-0.699961852445258,-2.50174715800717,-0.39819943541619
1580421643.36677,-0.687266346227206,-2.41532005798428,-0.341069657434959
1580421643.37077,-0.70142671854734,-2.2605325398642,-0.305424582284276
1580421643.37477,-0.740978103303577,-2.08621347371633,-0.290287632562753
1580421643.37876,-0.997329671168078,-1.87136644541085,-0.460700389105059
1580421643.38276,-1.0207675288014,-1.5935301747158,-0.559334706645304
1580421643.38676,-1.07301441977569,-1.26784161135271,-0.370366979476616
1580421643.39076,-1.05934233615625,-1.22145418478675,-0.392828259708553
1580421643.39476,-1.02565041580835,-1.3547570000763,-0.740001525902189
1580421643.39876,-1.04371709773404,-1.508567940795,-0.879163805600061
1580421643.40276,-1.16432440680552,-1.46706340123598,-0.760997940032045
1580421643.40676,-1.48122377355612,-0.901136797131304,-0.516365300984207
1580421643.41074,-1.82497901884489,0.0866712443732354,-0.0578622110322726
1580421643.41473,-2.03884946974899,0.90064850843061,0.45532921339742
1580421643.41873,-2.07498283360037,1.21412985427634,0.663828488593882
1580421643.42273,-1.93923857480736,1.07106126497291,0.630624856946671
1580421643.42673,-1.66628519111925,0.606210421911957,0.388921950102997
1580421643.43073,-1.4055390249485,0.0432135500114441,-0.0192874036774242
1580421643.43473,-1.2429388876173,-0.407476920729382,-0.491950865949493
1580421643.43873,-1.29909208819715,-0.412848096437019,-0.559822995345998
1580421643.44273,-1.5505607690547,-0.0681162737468526,-0.166750591287098
1580421643.44672,-1.60085450522621,-0.0783703364614325,0.220950637064163
1580421643.45072,-1.45583276112001,-0.398687724116884,0.383062485694666
1580421643.45472,-1.24245059891661,-0.74244296940566,0.276127260242617
1580421643.45872,-1.01441977569238,-0.954360265506981,-0.122804608224612
1580421643.46272,-0.86305027847715,-0.970962081330587,-0.539803158617532
1580421643.46672,-0.86646829938201,-0.83912413214313,-0.716075379568169
1580421643.47072,-0.921644922560464,-0.759533073929962,-0.718028534370946
1580421643.47472,-0.975356679636835,-0.805432211795225,-0.731700617990386
1580421643.47871,-1.03541618982223,-0.946059357595178,-0.821545738918136
1580421643.48271,-1.13258564126039,-1.10475318532082,-0.712657358663309
1580421643.48671,-1.30885786221103,-1.12916762035553,-0.586190585183489
1580421643.49069,-1.48805981536584,-1.0124666208896,-0.448004882887007
1580421643.49469,-1.58962386511025,-0.82203402761883,-0.265384908827345
1580421643.49869,-1.59108873121233,-0.649179827573052,-0.152101930266269
1580421643.50269,-1.50075532158389,-0.560311284046692,-0.166262302586404
1580421643.50669,-1.337666895552,-0.602792401007095,-0.195071335927366
1580421643.51069,-1.13258564126039,-0.685313191424429,-0.209231708247501
1580421643.51468,-0.946059357595178,-0.753673609521631,-0.279545281147479
1580421643.51868,-0.834729533836882,-0.78443579766537,-0.355718318455787
1580421643.52268,-0.83912413214313,-0.715587090867475,-0.36743724727245
1580421643.52668,-0.934340428778516,-0.589608606088349,-0.293217364766919
1580421643.53068,-0.981704432745861,-0.482185091935607,-0.189700160219729
1580421643.53468,-0.923598077363241,-0.421149004348822,-0.179446097505149
1580421643.53868,-0.848889906157016,-0.409430075532159,-0.266361486228734
1580421643.54268,-0.81861600671397,-0.420660715648127,-0.359136339360647
1580421643.54667,-0.82545204852369,-0.431403067063401,-0.42212558175021
1580421643.55067,-0.845471885252156,-0.423102159151599,-0.443121995880064
1580421643.55467,-0.874769207293813,-0.406500343327993,-0.404547188525216
1580421643.55867,-0.91090257114519,-0.396734569314107,-0.379156176089113
1580421643.56267,-0.958266575112535,-0.406988632028687,-0.369878690775922
1580421643.56667,-1.00563057907988,-0.397222858014802,-0.360112916762036
1580421643.57068,-1.04322880903334,-0.358648050659953,-0.373785000381476
1580421643.57468,-1.06569008926528,-0.314213778896773,-0.40161745632105
1580421643.57868,-1.06471351186389,-0.268314641031511,-0.438727397573816
1580421643.58267,-1.07057297627222,-0.219974059662775,-0.429449912260624
1580421643.58667,-1.09303425650416,-0.171633478294041,-0.412848096437019
1580421643.59067,-1.10914778362707,-0.113038834210727,-0.400152590218967
1580421643.59467,-1.11647211413748,-0.070557717250324,-0.359624628061342
1580421643.59867,-1.11158922713054,-0.0656748302433812,-0.342534523537042
1580421643.60267,-1.08473334859235,-0.0974135957885096,-0.338139925230793
1580421643.60667,-1.06666666666667,-0.156984817273212,-0.325444419012742
1580421643.61067,-1.05494773785,-0.209719996948195,-0.301029983978028
1580421643.61467,-1.04859998474098,-0.237064164187075,-0.271244373235676
1580421643.61866,-1.04078736552987,-0.267826352330816,-0.267826352330816
1580421643.62266,-1.01490806439307,-0.301518272678722,-0.279545281147479
1580421643.62666,-0.991958495460441,-0.340581368734265,-0.278568703746091
1580421643.63066,-0.981216144045167,-0.359136339360647,-0.271732661936371
1580421643.63466,-0.973403524834058,-0.353276874952316,-0.269291218432899
1580421643.63866,-0.97242694743267,-0.34009308003357,-0.276615548943314
1580421643.64266,-0.960708018616007,-0.320073243305105,-0.281010147249562
1580421643.64665,-0.942641336690318,-0.303471427481499,-0.287357900358588
1580421643.65063,-0.936293583581293,-0.296147096971085,-0.303471427481499
1580421643.65463,-0.93141069657435,-0.294682230869002,-0.311284046692608
1580421643.65863,-0.931898985275044,-0.287846189059282,-0.327397573815519
1580421643.66263,-0.935317006179904,-0.256107423514154,-0.323491264209965
1580421643.66663,-0.93824673838407,-0.213626306553749,-0.312260624093996
1580421643.67063,-0.935317006179904,-0.200442511635003,-0.308354314488442
1580421643.67463,-0.93824673838407,-0.206790264744029,-0.312748912794691
1580421643.67863,-0.957289997711147,-0.209719996948195,-0.297123674372473
1580421643.68262,-0.977798123140307,-0.199954222934309,-0.280521858548868
1580421643.68662,-0.993911650263218,-0.171633478294041,-0.277592126344702
1580421643.69062,-0.997329671168078,-0.143801022354467,-0.288334477759976
1580421643.69462,-0.977798123140307,-0.126222629129472,-0.319096665903716
1580421643.69862,-0.974868390936141,-0.106691081101701,-0.349858854047456
1580421643.70262,-0.980727855344472,-0.0798352025635154,-0.349370565346762
1580421643.70662,-0.987563897154192,-0.0617685206378269,-0.332280460822462
1580421643.71062,-0.981704432745861,-0.0642099641412983,-0.315678644998856
1580421643.71461,-0.97584496833753,-0.0983901731898982,-0.304448004882888
1580421643.71861,-0.980239566643778,-0.151613641565575,-0.271732661936371
1580421643.72261,-0.99635309376669,-0.194583047226672,-0.216067750057221
1580421643.72661,-1.00465400167849,-0.225345235370412,-0.183840695811398
1580421643.73062,-0.994888227664607,-0.273197528038454,-0.189211871519035
1580421643.73462,-0.972915236133364,-0.312748912794691,-0.204837109941252
1580421643.73862,-0.952407110704204,-0.335698481727322,-0.205325398641946
1580421643.74262,-0.929945830472267,-0.345952544441902,-0.228763256275272
1580421643.74662,-0.915297169451438,-0.345952544441902,-0.24682993820096
1580421643.75061,-0.911390859845884,-0.329350728618296,-0.253177691309988
1580421643.75461,-0.918715190356298,-0.307377737087053,-0.241458762493323
1580421643.75861,-0.929945830472267,-0.287357900358588,-0.252201113908599
1580421643.76261,-0.941176470588236,-0.281498435950256,-0.271244373235676
1580421643.76661,-0.957778286411841,-0.285893034256505,-0.273685816739148
1580421643.77061,-0.971938658731975,-0.291264209964142,-0.271732661936371
1580421643.77461,-0.990005340657664,-0.294682230869002,-0.270267795834288
1580421643.77861,-0.999282825970855,-0.281010147249562,-0.267338063630122
1580421643.7826,-1.00807202258335,-0.251224536507211,-0.272220950637065
1580421643.7866,-1.00465400167849,-0.223392080567635,-0.285893034256505
1580421643.7906,-0.994399938963912,-0.200442511635003,-0.285893034256505
1580421643.7946,-0.991470206759747,-0.175051499198901,-0.284428168154422
1580421643.7986,-0.978286411841001,-0.154055085069047,-0.287846189059282
1580421643.8026,-0.970473792629893,-0.131593804837109,-0.278568703746091
1580421643.8066,-0.972915236133364,-0.114015411612115,-0.267826352330816
1580421643.81058,-0.971450370031281,-0.108644235904478,-0.257084000915542
1580421643.81458,-0.970962081330587,-0.120851453421835,-0.244876783398183
1580421643.81857,-0.977798123140307,-0.140871290150301,-0.222415503166246
1580421643.82257,-0.990493629358358,-0.153078507667658,-0.210208285648889
1580421643.82657,-1.0036774242771,-0.160402838178072,-0.214602883955138
1580421643.83057,-1.0041657129778,-0.173586633096818,-0.211184863050278
1580421643.83457,-1.01002517738613,-0.177004654001678,-0.216067750057221
1580421643.83857,-1.01832608529793,-0.171633478294041,-0.229251544975966
1580421643.84257,-1.02613870450904,-0.160402838178072,-0.241458762493323
1580421643.84657,-1.03346303501946,-0.142824444953078,-0.261966887922485
1580421643.85056,-1.03639276722362,-0.125734340428778,-0.279056992446785
1580421643.85456,-1.04029907682918,-0.0954604409857325,-0.282963302052339
1580421643.85856,-1.04762340733959,-0.0690928511482412,-0.299565117875945
1580421643.86256,-1.05397116044862,-0.0407721065079727,-0.313237201495385
1580421643.86656,-1.06080720225834,-0.0158693827725642,-0.316166933699551
1580421643.87056,-1.072526131075,0.00805676356145568,-0.304448004882888
1580421643.87456,-1.09205767910277,0.0266117341878385,-0.299076829175251
1580421643.87856,-1.11110093842985,0.0290531776913099,-0.277592126344702
1580421643.88256,-1.14332799267567,0.0187991149767299,-0.238040741588463
1580421643.88655,-1.18043793392843,0.01196307316701,-0.194583047226672
1580421643.89056,-1.21657129777981,0.00122072175173571,-0.151613641565575
1580421643.89456,-1.24489204242008,-0.0129396505683985,-0.130617227435721
1580421643.89856,-1.27125963225757,-0.0231937132829785,-0.109132524605172
1580421643.90256,-1.28834973678187,-0.0363775082017241,-0.100343327992675
1580421643.90656,-1.30690470740826,-0.0510261692225527,-0.0969253070878153
1580421643.91056,-1.32497138933394,-0.0559090562294955,-0.0993667505912867
1580421643.91456,-1.3371786068513,-0.0617685206378269,-0.102296482795452
1580421643.91856,-1.35231555657282,-0.060303654535744,-0.114015411612115
1580421643.92255,-1.36452277409018,-0.0495613031204698,-0.134035248340581
1580421643.92655,-1.37868314641032,-0.048096437018387,-0.159914549477378
1580421643.93055,-1.40651560234989,-0.0529793240253298,-0.200442511635003
1580421643.93455,-1.43825436789502,-0.0563973449301898,-0.230716411078049
1580421643.93855,-1.47780575265126,-0.063721675440604,-0.257084000915542
1580421643.94255,-1.51882200350957,-0.0612802319371326,-0.298588540474556
1580421643.94655,-1.56472114137484,-0.0432135500114441,-0.321538109407188
1580421643.95054,-1.60524910353246,-0.0124513618677042,-0.36401922636759
1580421643.95454,-1.64138246738384,0.00610360875867855,-0.41870756084535
1580421643.95854,-1.68142214084077,0.0187991149767299,-0.448981460288396
1580421643.96254,-1.73464560921645,0.0471198596169984,-0.474860761425193
1580421643.96654,-1.78933394369421,0.0925307087815668,-0.503669794766155
1580421643.97052,-1.83132677195392,0.140871290150301,-0.511970702677958
1580421643.97452,-1.86111238269627,0.173098344396124,-0.510017547875181
1580421643.97852,-1.8845502403296,0.199954222934309,-0.513923857480735
1580421643.98252,-1.90066376745251,0.210208285648889,-0.510017547875181
1580421643.98652,-1.91726558327611,0.212649729152361,-0.498298619058518
1580421643.99051,-1.92361333638514,0.199954222934309,-0.495368886854353
1580421643.99451,-1.91628900587472,0.194094758525978,-0.505134660868238
1580421643.99851,-1.9011520561532,0.210696574349583,-0.489021133745327
1580421644.00251,-1.89773403524834,0.251712825207903,-0.434332799267567
1580421644.00651,-1.89138628213932,0.293705653467612,-0.369390402075227
1580421644.01051,-1.88308537422751,0.302494850080109,-0.31958495460441
1580421644.01451,-1.86257724879835,0.248783093003738,-0.291264209964142
1580421644.0185,-1.83865110246433,0.175539787899595,-0.274174105439842
1580421644.0225,-1.81472495613031,0.0734874494544897,-0.262943465323874
1580421644.0265,-1.78884565499352,-0.0539559014267184,-0.310307469291219
1580421644.0305,-1.77517357137408,-0.122804608224612,-0.313725490196079
1580421644.0345,-1.7820096131838,-0.114015411612115,-0.330327306019685
1580421644.0385,-1.77224383916991,-0.0764171816586554,-0.349370565346762
1580421644.0425,-1.74294651712825,-0.0285648889906156,-0.386968795300222
1580421644.0465,-1.69411764705882,0.0339360646982527,-0.436774242771039
1580421644.05051,-1.62526894026093,0.0646982528419926,-0.506111238269627
1580421644.0545,-1.53591210803387,0.063721675440604,-0.571053635461967
1580421644.0585,-1.43727779049363,0.0646982528419926,-0.587655451285572
1580421644.0625,-1.34254978255894,0.0837415121690697,-0.568612191958495
1580421644.0665,-1.2175478751812,0.0710460059510183,-0.543221179522392
1580421644.0705,-1.07447928587777,0.0187991149767299,-0.510505836575875
1580421644.0745,-0.937758449683376,-0.0520027466239412,-0.486091401541161
1580421644.0785,-0.818127718013276,-0.144777599755855,-0.444586861982147
1580421644.0825,-0.698496986343175,-0.322514686808576,-0.40845349813077
1580421644.08649,-0.606698710612649,-0.54517433432517,-0.453864347295339
1580421644.09049,-0.626230258640421,-0.685801480125123,-0.380132753490502
1580421644.09449,-0.790783550774396,-0.844983596551462,-0.278080415045396
1580421644.09849,-0.940688181887541,-0.966567483024338,-0.335698481727322
1580421644.10249,-0.947035934996567,-0.96900892652781,-0.502204928664073
1580421644.10649,-0.893324177920196,-0.830334935530633,-0.582772564278629
1580421644.11049,-0.844007019150073,-0.612069886320286,-0.529549095902953
1580421644.11449,-0.796643015182728,-0.38794537270161,-0.443610284580759
1580421644.11848,-0.749767299916074,-0.161867704280155,-0.379156176089113
1580421644.12248,-0.694102388036926,0.0505378805218584,-0.329350728618296
1580421644.12648,-0.647714961470969,0.2434119172961,-0.293705653467613
1580421644.13046,-0.609628442816815,0.395269703212023,-0.262455176623179
1580421644.13446,-0.571541924162661,0.507087815671017,-0.226810101472495
1580421644.13846,-0.530525673304341,0.555916685740446,-0.205325398641946
1580421644.14246,-0.488532845044633,0.547127489127949,-0.192629892423895
1580421644.14646,-0.443121995880064,0.499275196459905,-0.188235294117646
1580421644.15046,-0.407476920729382,0.444098573281451,-0.178957808804455
1580421644.15445,-0.380621042191196,0.398199435416188,-0.156984817273212
1580421644.15845,-0.362066071564813,0.345464255741206,-0.126222629129472
1580421644.16245,-0.35718318455787,0.293705653467612,-0.103761348897535
1580421644.16645,-0.351323720149539,0.238040741588463,-0.0910658426794839
1580421644.17045,-0.35034714274815,0.184328984512092,-0.100343327992675
1580421644.17445,-0.351323720149539,0.127687495231555,-0.106202792401007
1580421644.17845,-0.348393987945373,0.0720225833524069,-0.115480277714198
1580421644.18245,-0.350835431448845,0.0183108262760356,-0.120363164721141
1580421644.18644,-0.351812008850233,-0.0329594872968642,-0.127687495231555
1580421644.19044,-0.352788586251622,-0.0886243991760125,-0.119386587319752
1580421644.19444,-0.354741741054399,-0.135988403143358,-0.109620813305867
1580421644.19844,-0.36401922636759,-0.171633478294041,-0.0944838635843439
1580421644.20244,-0.377203021286336,-0.206301976043335,-0.0891126878767068
1580421644.20644,-0.402105745021744,-0.228763256275272,-0.0866712443732354
1580421644.21045,-0.431403067063401,-0.237064164187075,-0.0651865415426869
1580421644.21445,-0.46655985351339,-0.220462348363469,-0.0383306630045013
1580421644.21845,-0.499275196459907,-0.190676737621118,-0.000244144350347142
1580421644.22245,-0.529549095902953,-0.148683909361409,0.0222171358815899
1580421644.22644,-0.556404974441138,-0.102296482795452,0.0300297550926985
1580421644.23044,-0.579354543373769,-0.060303654535744,0.0285648889906156
1580421644.23444,-0.604257267109178,-0.0285648889906156,0.0256351567864499
1580421644.23844,-0.624765392538338,-0.00659189745937283,0.0153810940718699
1580421644.24244,-0.648691538872358,0.00561532005798426,0.0129396505683985
1580421644.24644,-0.677988860914015,0.0134279392690928,0.0139162279697871
1580421644.25044,-0.709239337758449,0.0187991149767299,0.00561532005798426
1580421644.25443,-0.74244296940566,0.0212405584802013,0.00512703135728998
1580421644.25843,-0.777111467154956,0.0202639810788128,-0.0124513618677042
1580421644.26243,-0.816662851911193,0.00903334096284425,-0.0231937132829785
1580421644.26643,-0.85621423666743,-0.0046387426565957,-0.0441901274128327
1580421644.27043,-0.901625085831999,-0.0266117341878385,-0.0690928511482412
1580421644.27443,-0.950942244602121,-0.0451667048142212,-0.0847180895704582
1580421644.27843,-1.00172426947433,-0.0690928511482412,-0.100343327992675
1580421644.28243,-1.05983062485695,-0.0969253070878153,-0.112550545510032
1580421644.28642,-1.11354238193332,-0.12475776302739,-0.127687495231555
1580421644.29041,-1.16920729381247,-0.157961394674601,-0.153078507667658
1580421644.2944,-1.23805600061036,-0.189700160219729,-0.175051499198901
1580421644.2984,-1.31471732661936,-0.226321812771801,-0.180422674906538
1580421644.3024,-1.41091020065614,-0.263920042725262,-0.209231708247501
1580421644.3064,-1.50954451819638,-0.311772335393302,-0.244876783398183
1580421644.3104,-1.61403830014496,-0.36743724727245,-0.278080415045396
1580421644.3144,-1.71999694819562,-0.421637293049516,-0.313725490196079
1580421644.3184,-1.81521324483101,-0.475349050125887,-0.338628213931488
1580421644.32239,-1.8845502403296,-0.519783321889067,-0.361577782864119
1580421644.32639,-1.92507820248722,-0.559822995345998,-0.379156176089113
1580421644.33039,-1.93386739909972,-0.578866254673075,-0.396246280613413
1580421644.33439,-1.93142595559625,-0.586678873884184,-0.41528953994049
1580421644.33839,-1.9187304493782,-0.598397802700847,-0.442145418478676
1580421644.34239,-1.90896467536431,-0.623300526436255,-0.463630121309224
1580421644.34639,-1.90066376745251,-0.668223086900129,-0.478278782330053
1580421644.35039,-1.89724574654765,-0.736095216296635,-0.494392309452964
1580421644.35438,-1.89187457084001,-0.81519798580911,-0.492439154650187
1580421644.35838,-1.88943312733654,-0.91090257114519,-0.486579690241856
1580421644.36238,-1.87331960021363,-0.995376516365301,-0.482185091935607
1580421644.36638,-1.85134660868238,-1.0720378423743,-0.475349050125887
1580421644.37039,-1.83865110246433,-1.14528114747845,-0.468513008316167
1580421644.37439,-1.84011596856642,-1.21901274128328,-0.458747234302281
1580421644.37839,-1.85622949568933,-1.29762722209506,-0.448493171587701
1580421644.38239,-1.8752727550164,-1.38796063172351,-0.437750820172427
1580421644.38639,-1.88064393072404,-1.48317692835889,-0.434821087968261
1580421644.39038,-1.87380788891432,-1.57839322499428,-0.424078736552987
1580421644.39438,-1.83816281376364,-1.67751583123522,-0.414312962539102
1580421644.39838,-1.7556420233463,-1.75222400244144,-0.416266117341879
1580421644.40238,-1.63308155947204,-1.81423666742962,-0.416266117341879
1580421644.40638,-1.48659494926375,-1.86062409399558,-0.429449912260624
1580421644.41038,-1.33034256504158,-1.89333943694209,-0.44946974898909
1580421644.41438,-1.16823071641108,-1.89919890135042,-0.482185091935607
1580421644.41838,-1.0471351186389,-1.90359349965667,-0.51441214618143
1580421644.42237,-0.955825131609064,-1.93972686350805,-0.55201037613489
1580421644.42637,-0.876234073395896,-2.01834134431983,-0.573006790264744
1580421644.43037,-0.829358358129245,-2.10769817654688,-0.56910048065919
1580421644.43437,-0.803967345693142,-2.16775768673228,-0.504646372167544
1580421644.43837,-0.780529488059816,-2.2087739375906,-0.407476920729382
1580421644.44237,-0.742931258106355,-2.22684061951629,-0.321538109407188
1580421644.44637,-0.7048447394522,-2.23074692912184,-0.271244373235676
1580421644.45035,-0.665293354695963,-2.21121538109407,-0.234622720683603
1580421644.45435,-0.648203250171663,-2.13601892118715,-0.195559624628061
1580421644.45834,-0.661875333791103,-2.01443503471427,-0.149660486762798
1580421644.46234,-0.695078965438315,-1.87283131151293,-0.106691081101701
1580421644.46634,-0.733653772793163,-1.74636453803311,-0.0788586251621268
1580421644.47034,-0.776134889753568,-1.66335545891508,-0.0563973449301898
1580421644.47434,-0.81519798580911,-1.61403830014496,-0.048096437018387
1580421644.47834,-0.971450370031281,-1.52468146791791,-0.321538109407188
1580421644.48234,-1.01149004348821,-1.22487220569161,-0.50757610437171
1580421644.48634,-1.10377660791943,-0.790295262073702,-0.317631799801633
1580421644.49033,-1.05885404745556,-0.769298847943848,-0.369878690775922
1580421644.49433,-1.10768291752499,-0.636972610055695,-0.750743877317465
1580421644.49833,-1.40505073624781,0.0417486839093613,-0.784924086366065
1580421644.50233,-1.73952849622339,1.13990997177081,-0.154543373769741
1580421644.50633,-2.04422064545663,2.30594338902876,0.398199435416188
1580421644.51033,-2.1999847409781,2.60770580605783,0.588632028686963
1580421644.51433,-2.1062333104448,1.8757610437171,0.761486228732739
1580421644.51833,-1.82009613183795,0.933363851377127,0.730235751888305
1580421644.52233,-1.45290302891585,0.115968566414892,0.295170519569695
1580421644.52632,-1.24098573281453,-0.527595941100175,-0.160891126878766
1580421644.53033,-1.25075150682841,-0.805920500495919,-0.573006790264744
1580421644.53433,-1.4138399328603,-0.520271610589761,-0.629159990844586
1580421644.53833,-1.54177157244221,-0.0324711985961699,-0.205325398641946
1580421644.54233,-1.40456244754711,0.0246585793850613,0.11108567940795
1580421644.54633,-1.2004577706569,-0.191165026321812,0.204348821240558
1580421644.55033,-1.05348287174792,-0.467048142214084,0.0915541313801782
1580421644.55433,-0.957778286411841,-0.656992446784161,-0.235599298084992
1580421644.55832,-0.960219729915313,-0.686778057526512,-0.526131074998093
1580421644.56232,-1.07789730678263,-0.583260852979324,-0.572518501564049
1580421644.56632,-1.21510643167773,-0.546639200427252,-0.552986953536278
1580421644.57032,-1.32936598764019,-0.639414053559166,-0.573006790264744
1580421644.57432,-1.43190661478599,-0.813733119707027,-0.597909514000152
1580421644.57832,-1.53933012893873,-0.961196307316701,-0.460212100404364
1580421644.58232,-1.64235904478523,-0.959731441214618,-0.338628213931488
1580421644.58632,-1.67849240863661,-0.834729533836882,-0.317631799801633
1580421644.59031,-1.61989776455329,-0.690684367132066,-0.298100251773862
1580421644.59431,-1.49782558937972,-0.56226443884947,-0.251224536507211
1580421644.59831,-1.34450293736172,-0.45630579079881,-0.242435339894712
1580421644.60231,-1.14479285877775,-0.434821087968261,-0.268314641031511
1580421644.60631,-0.91432059205005,-0.465094987411307,-0.293705653467613
1580421644.61029,-0.694102388036926,-0.522224765392538,-0.382085908293279
1580421644.61429,-0.548104066529335,-0.590585183489738,-0.460212100404364
1580421644.61829,-0.592538338292515,-0.579842832074464,-0.424567025253682
1580421644.62229,-0.746349279011215,-0.495368886854353,-0.269291218432899
1580421644.62628,-0.803967345693142,-0.431891355764096,-0.0944838635843439
1580421644.63028,-0.759044785229268,-0.43237964446479,-0.0563973449301898
1580421644.63428,-0.719981689173723,-0.491950865949493,-0.235111009384298
1580421644.63828,-0.740978103303577,-0.568123903257801,-0.436285954070344
1580421644.64228,-0.819592584115359,-0.579354543373769,-0.457282368200199
1580421644.64628,-0.908461127641718,-0.530037384603647,-0.355230029755093
1580421644.65028,-0.978774700541695,-0.47681391622797,-0.313725490196079
1580421644.65428,-1.02662699320974,-0.43579766536965,-0.324467841611353
1580421644.65827,-1.07008468757153,-0.414801251239796,-0.33325703822385
1580421644.66227,-1.11061264972915,-0.38110933089189,-0.345464255741208
1580421644.66627,-1.13014419775692,-0.339604791332876,-0.385992217898833
1580421644.67027,-1.13307392996109,-0.297611963073168,-0.388921950102999
1580421644.67427,-1.13307392996109,-0.239505607690546,-0.359136339360647
1580421644.67827,-1.13014419775692,-0.182864118410009,-0.340581368734265
1580421644.68227,-1.1233081559472,-0.136964980544747,-0.340581368734265
1580421644.68627,-1.12037842374304,-0.108155947203784,-0.334721904325933
1580421644.69025,-1.10914778362707,-0.0905775539787896,-0.322514686808576
1580421644.69424,-1.08375677119097,-0.0861829556725411,-0.328862439917602
1580421644.69824,-1.06813153276875,-0.0949721522850382,-0.32300297550927
1580421644.70224,-1.06031891355764,-0.0983901731898982,-0.306401159685665
1580421644.70624,-1.05055313954376,-0.0993667505912867,-0.295658808270391
1580421644.71024,-1.02369726100557,-0.106202792401007,-0.299076829175251
