Timestamp_seconds,Accel_X_g,Accel_Y_g,Accel_Z_g
1580421638.35163,-0.959731441214618,0.0158693827725642,-0.274174105439842
1580421638.35562,-0.960708018616007,0.0197756923781185,-0.287357900358588
1580421638.35961,-0.95875486381323,0.0231937132829785,-0.287846189059282
1580421638.36361,-0.959731441214618,0.0236820019836728,-0.293705653467613
1580421638.3676,-0.961196307316701,0.024170290684367,-0.301518272678722
1580421638.3716,-0.960708018616007,0.0285648889906156,-0.301518272678722
1580421638.37559,-0.963149462119478,0.0280766002899213,-0.307377737087053
1580421638.37961,-0.967055771725033,0.0314946211947813,-0.307377737087053
1580421638.3836,-0.967544060425727,0.0363775082017241,-0.307866025787748
1580421638.38759,-0.971450370031281,0.0383306630045013,-0.302006561379416
1580421638.39159,-0.976821545738918,0.0417486839093613,-0.292729076066225
1580421638.39558,-0.979751277943084,0.0451667048142212,-0.290775921263448
1580421638.39957,-0.977798123140307,0.0544441901274126,-0.287357900358588
1580421638.40357,-0.977798123140307,0.0598153658350498,-0.286381322957199
1580421638.40756,-0.979751277943084,0.0632333867399097,-0.276615548943314
1580421638.41156,-0.974380102235447,0.0632333867399097,-0.271732661936371
1580421638.41555,-0.972915236133364,0.0568856336308841,-0.262943465323874
1580421638.41954,-0.977309834439613,0.0549324788281069,-0.264408331425956
1580421638.42354,-0.973403524834058,0.0505378805218584,-0.261966887922485
1580421638.42753,-0.971938658731975,0.0471198596169984,-0.263431754024568
1580421638.43152,-0.96900892652781,0.0417486839093613,-0.260013733119708
1580421638.43552,-0.963637750820173,0.0397955291065841,-0.264896620126651
1580421638.43951,-0.962661173418784,0.037842374303807,-0.270756084534982
1580421638.4435,-0.96217288471809,0.0397955291065841,-0.269779507133594
1580421638.4475,-0.964614328221561,0.034424353398947,-0.272709239337759
1580421638.45149,-0.967544060425727,0.0329594872968642,-0.270267795834288
1580421638.45548,-0.967544060425727,0.0334477759975584,-0.270756084534982
1580421638.45947,-0.967544060425727,0.031006332494087,-0.275150682841231
1580421638.46347,-0.973403524834058,0.031006332494087,-0.277103837644008
1580421638.46746,-0.971450370031281,0.0295414663920042,-0.276127260242619
1580421638.47145,-0.973891813534753,0.0256351567864499,-0.272220950637065
1580421638.47545,-0.968520637827115,0.027588311589227,-0.275150682841231
1580421638.47944,-0.965102616922255,0.0256351567864499,-0.283939879453728
1580421638.48343,-0.96559090562295,0.0256351567864499,-0.283451590753033
1580421638.48743,-0.961684596017395,0.0290531776913099,-0.288334477759976
1580421638.49142,-0.964614328221561,0.0324711985961699,-0.284916456855116
1580421638.49541,-0.963149462119478,0.0373540856031127,-0.283451590753033
1580421638.49941,-0.964614328221561,0.0363775082017241,-0.281010147249562
1580421638.5034,-0.96900892652781,0.0368657969024184,-0.278080415045396
1580421638.50739,-0.967055771725033,0.041260395208667,-0.282963302052339
1580421638.51139,-0.967055771725033,0.0383306630045013,-0.281498435950256
1580421638.51538,-0.96559090562295,0.0339360646982527,-0.280033569848174
1580421638.51937,-0.960708018616007,0.0324711985961699,-0.285893034256505
1580421638.52337,-0.956801709010453,0.0314946211947813,-0.283451590753033
1580421638.52736,-0.954848554207675,0.027588311589227,-0.278080415045396
1580421638.53135,-0.958266575112535,0.0256351567864499,-0.273685816739148
1580421638.53535,-0.956801709010453,0.024170290684367,-0.268314641031511
1580421638.53937,-0.962661173418784,0.0207522697795071,-0.264896620126651
1580421638.54336,-0.962661173418784,0.0251468680857556,-0.261966887922485
1580421638.54735,-0.958266575112535,0.0222171358815899,-0.263920042725262
1580421638.55135,-0.959243152513924,0.0246585793850613,-0.266849774929428
1580421638.55534,-0.95875486381323,0.0261234454871442,-0.272220950637065
1580421638.55933,-0.959731441214618,0.0266117341878385,-0.275638971541925
1580421638.56333,-0.961196307316701,0.0271000228885327,-0.273197528038454
1580421638.56732,-0.958266575112535,0.0295414663920042,-0.269779507133594
1580421638.57131,-0.959731441214618,0.0266117341878385,-0.266849774929428
1580421638.57531,-0.957778286411841,0.0329594872968642,-0.269779507133594
1580421638.5793,-0.95875486381323,0.0329594872968642,-0.272709239337759
1580421638.5833,-0.957289997711147,0.0349126420996413,-0.277103837644008
1580421638.58729,-0.958266575112535,0.0417486839093613,-0.277103837644008
1580421638.59128,-0.962661173418784,0.0456549935149155,-0.280033569848174
1580421638.59528,-0.963637750820173,0.0505378805218584,-0.281498435950256
1580421638.59927,-0.974380102235447,0.0515144579232469,-0.284916456855116
1580421638.60326,-0.976333257038224,0.0563973449301898,-0.280521858548868
1580421638.60726,-0.976821545738918,0.0588387884336612,-0.280521858548868
1580421638.61125,-0.975356679636835,0.0583504997329669,-0.280033569848174
1580421638.61524,-0.969497215228504,0.0539559014267184,-0.278080415045396
1580421638.61923,-0.96900892652781,0.0515144579232469,-0.277592126344702
1580421638.62322,-0.966079194323644,0.0510261692225527,-0.274662394140536
1580421638.62722,-0.968520637827115,0.0500495918211641,-0.269779507133594
1580421638.63121,-0.963637750820173,0.0490730144197755,-0.264896620126651
1580421638.63521,-0.966079194323644,0.0432135500114441,-0.253177691309988
1580421638.6392,-0.966079194323644,0.0427252613107498,-0.247806515602349
1580421638.64319,-0.964614328221561,0.041260395208667,-0.242435339894712
1580421638.64719,-0.968032349126421,0.0427252613107498,-0.241458762493323
1580421638.65118,-0.96900892652781,0.0402838178072784,-0.244876783398183
1580421638.65517,-0.97242694743267,0.0373540856031127,-0.250736247806516
1580421638.65917,-0.970473792629893,0.0388189517051956,-0.249271381704432
1580421638.66316,-0.971450370031281,0.0358892195010299,-0.254154268711376
1580421638.66715,-0.974868390936141,0.0329594872968642,-0.254642557412071
1580421638.67115,-0.97242694743267,0.0314946211947813,-0.255130846112765
1580421638.67514,-0.971938658731975,0.0280766002899213,-0.250736247806516
1580421638.67913,-0.970473792629893,0.027588311589227,-0.261478599221791
1580421638.68313,-0.971450370031281,0.0266117341878385,-0.262943465323874
1580421638.68712,-0.972915236133364,0.0290531776913099,-0.269779507133594
1580421638.69111,-0.974868390936141,0.0271000228885327,-0.281010147249562
1580421638.69511,-0.97584496833753,0.027588311589227,-0.280033569848174
1580421638.6991,-0.974380102235447,0.0305180437933927,-0.288822766460671
1580421638.70309,-0.972915236133364,0.034424353398947,-0.285404745555811
1580421638.70708,-0.970962081330587,0.0354009308003356,-0.279056992446785
1580421638.71108,-0.978286411841001,0.0334477759975584,-0.278568703746091
1580421638.71507,-0.976333257038224,0.0354009308003356,-0.264408331425956
1580421638.71906,-0.978286411841001,0.0358892195010299,-0.263920042725262
1580421638.72306,-0.976821545738918,0.0314946211947813,-0.253665980010682
1580421638.72705,-0.974868390936141,0.0368657969024184,-0.250736247806516
1580421638.73104,-0.974380102235447,0.037842374303807,-0.24682993820096
1580421638.73504,-0.969985503929198,0.034424353398947,-0.242923628595406
1580421638.73903,-0.969497215228504,0.0358892195010299,-0.241458762493323
1580421638.74302,-0.971450370031281,0.0368657969024184,-0.238040741588463
1580421638.74702,-0.969985503929198,0.0388189517051956,-0.230228122377355
1580421638.75101,-0.969985503929198,0.0388189517051956,-0.226810101472495
1580421638.755,-0.971938658731975,0.0388189517051956,-0.228274967574578
1580421638.759,-0.970962081330587,0.0417486839093613,-0.234622720683603
1580421638.76299,-0.969985503929198,0.0461432822156098,-0.245365072098878
1580421638.76699,-0.968032349126421,0.0461432822156098,-0.254642557412071
1580421638.77098,-0.964614328221561,0.0490730144197755,-0.261478599221791
1580421638.77497,-0.96217288471809,0.0490730144197755,-0.268314641031511
1580421638.77902,-0.961684596017395,0.048096437018387,-0.269291218432899
1580421638.78302,-0.95875486381323,0.0490730144197755,-0.270756084534982
1580421638.78701,-0.959243152513924,0.0495613031204698,-0.273197528038454
1580421638.791,-0.95875486381323,0.0520027466239412,-0.274662394140536
1580421638.795,-0.960708018616007,0.0568856336308841,-0.275638971541925
1580421638.79899,-0.964614328221561,0.0563973449301898,-0.278080415045396
1580421638.80298,-0.967055771725033,0.0593270771343555,-0.276615548943314
1580421638.80698,-0.971450370031281,0.0593270771343555,-0.276127260242619
1580421638.81097,-0.96900892652781,0.0617685206378269,-0.276615548943314
1580421638.81496,-0.963637750820173,0.0583504997329669,-0.268802929732205
1580421638.81896,-0.962661173418784,0.0539559014267184,-0.278568703746091
1580421638.82295,-0.95875486381323,0.0524910353246355,-0.274662394140536
1580421638.82694,-0.964614328221561,0.0534676127260241,-0.275150682841231
1580421638.83094,-0.964126039520867,0.0534676127260241,-0.267338063630122
1580421638.83493,-0.966079194323644,0.0554207675288012,-0.262455176623179
1580421638.83892,-0.967055771725033,0.0520027466239412,-0.254642557412071
1580421638.84292,-0.970473792629893,0.0529793240253298,-0.251224536507211
1580421638.84691,-0.971938658731975,0.0559090562294955,-0.240970473792629
1580421638.8509,-0.972915236133364,0.0534676127260241,-0.235599298084992
1580421638.8549,-0.980239566643778,0.0593270771343555,-0.231204699778743
1580421638.85889,-0.985122453650721,0.0568856336308841,-0.226321812771801
1580421638.86288,-0.988052185854887,0.0578622110322726,-0.229251544975966
1580421638.86687,-0.995376516365301,0.0568856336308841,-0.231204699778743
1580421638.87087,-0.991958495460441,0.0568856336308841,-0.227786678873883
1580421638.87486,-0.990005340657664,0.0563973449301898,-0.232181277180132
1580421638.87885,-0.993423361562524,0.0524910353246355,-0.239505607690546
1580421638.88285,-0.995864805065995,0.0534676127260241,-0.234622720683603
1580421638.88684,-0.99635309376669,0.0529793240253298,-0.238040741588463
1580421638.89083,-1.00074769207294,0.0505378805218584,-0.238529030289158
1580421638.89483,-1.00074769207294,0.0515144579232469,-0.239017318989852
1580421638.89882,-0.997817959868772,0.0529793240253298,-0.247318226901655
1580421638.90281,-0.991958495460441,0.0505378805218584,-0.246341649500266
1580421638.90681,-0.984145876249332,0.0402838178072784,-0.252689402609294
1580421638.9108,-0.978774700541695,0.0349126420996413,-0.257084000915542
1580421638.9148,-0.975356679636835,0.0256351567864499,-0.250247959105822
1580421638.91879,-0.973403524834058,0.0168459601739528,-0.240970473792629
1580421638.92278,-0.968032349126421,0.00805676356145568,-0.230228122377355
1580421638.92678,-0.967055771725033,-0.00366216525520713,-0.220462348363469
1580421638.93077,-0.963637750820173,-0.01196307316701,-0.208255130846112
1580421638.93476,-0.960708018616007,-0.0251468680857556,-0.203860532539863
1580421638.93875,-0.961684596017395,-0.0329594872968642,-0.198977645532921
1580421638.94274,-0.96217288471809,-0.0417486839093613,-0.205325398641946
1580421638.94674,-0.963149462119478,-0.0402838178072784,-0.215579461356526
1580421638.95073,-0.964126039520867,-0.0383306630045013,-0.224368657969023
1580421638.95473,-0.966079194323644,-0.0314946211947813,-0.226810101472495
1580421638.95872,-0.966079194323644,-0.0231937132829785,-0.228763256275272
1580421638.96271,-0.968032349126421,-0.0163576714732585,-0.226321812771801
1580421638.9667,-0.972915236133364,-0.0109864957656214,-0.233646143282215
1580421638.9707,-0.976821545738918,0.000732433051041426,-0.236087586785686
1580421638.97469,-0.973891813534753,0.0134279392690928,-0.243900205996795
1580421638.97869,-0.972915236133364,0.0222171358815899,-0.245853360799572
1580421638.98268,-0.968520637827115,0.031006332494087,-0.254642557412071
1580421638.98667,-0.965102616922255,0.0427252613107498,-0.263920042725262
1580421638.99067,-0.963149462119478,0.0485847257190812,-0.267338063630122
1580421638.99466,-0.961196307316701,0.0505378805218584,-0.267338063630122
1580421638.99865,-0.959243152513924,0.0554207675288012,-0.268802929732205
1580421639.00265,-0.964126039520867,0.0583504997329669,-0.263431754024568
1580421639.00664,-0.961196307316701,0.0617685206378269,-0.262943465323874
1580421639.01063,-0.96559090562295,0.067139696345464,-0.260502021820402
1580421639.01463,-0.96217288471809,0.067139696345464,-0.259525444419014
1580421639.01865,-0.961684596017395,0.0661631189440754,-0.263920042725262
1580421639.02264,-0.956313420309758,0.0617685206378269,-0.264896620126651
1580421639.02663,-0.953871976806287,0.0563973449301898,-0.269291218432899
1580421639.03063,-0.953871976806287,0.0539559014267184,-0.264896620126651
1580421639.03462,-0.957289997711147,0.0554207675288012,-0.259037155718319
1580421639.03861,-0.957778286411841,0.0568856336308841,-0.251712825207905
1580421639.04261,-0.962661173418784,0.0588387884336612,-0.243900205996795
1580421639.0466,-0.965102616922255,0.063721675440604,-0.243900205996795
1580421639.05059,-0.96559090562295,0.067139696345464,-0.244876783398183
1580421639.05459,-0.96217288471809,0.0729991607537954,-0.246341649500266
1580421639.05858,-0.961196307316701,0.0783703364614325,-0.256595712214848
1580421639.06257,-0.957778286411841,0.0827649347676811,-0.264896620126651
1580421639.06657,-0.960708018616007,0.0822766460669868,-0.267826352330816
1580421639.07056,-0.959243152513924,0.0778820477607383,-0.269779507133594
1580421639.07455,-0.961196307316701,0.0734874494544897,-0.270756084534982
1580421639.07855,-0.955825131609064,0.0661631189440754,-0.266361486228734
1580421639.08254,-0.954360265506981,0.0529793240253298,-0.258060578316931
1580421639.08654,-0.95191882200351,0.0417486839093613,-0.248783093003738
1580421639.09053,-0.954360265506981,0.0339360646982527,-0.246341649500266
1580421639.09452,-0.957289997711147,0.0261234454871442,-0.244876783398183
1580421639.09851,-0.961684596017395,0.0227054245822842,-0.252201113908599
1580421639.1025,-0.964614328221561,0.0256351567864499,-0.257084000915542
1580421639.1065,-0.96559090562295,0.0290531776913099,-0.262455176623179
1580421639.11049,-0.963149462119478,0.034424353398947,-0.258060578316931
1580421639.11448,-0.966079194323644,0.0388189517051956,-0.261966887922485
1580421639.11848,-0.967055771725033,0.0437018387121384,-0.272220950637065
1580421639.12247,-0.970473792629893,0.0554207675288012,-0.276615548943314
1580421639.12646,-0.96217288471809,0.060303654535744,-0.275638971541925
1580421639.13046,-0.95533684290837,0.0607919432364383,-0.288334477759976
1580421639.13445,-0.952407110704204,0.063721675440604,-0.293705653467613
1580421639.13844,-0.948012512397955,0.063721675440604,-0.298100251773862
1580421639.14244,-0.950942244602121,0.0681162737468526,-0.291752498664836
1580421639.14643,-0.953383688105593,0.0651865415426869,-0.286869611657893
1580421639.15043,-0.957289997711147,0.0632333867399097,-0.272709239337759
1580421639.15442,-0.960708018616007,0.0617685206378269,-0.261966887922485
1580421639.15841,-0.960708018616007,0.0617685206378269,-0.242435339894712
1580421639.16241,-0.96217288471809,0.0642099641412983,-0.230228122377355
1580421639.1664,-0.968032349126421,0.0686045624475469,-0.225345235370412
1580421639.17039,-0.96900892652781,0.0715342946517126,-0.228274967574578
1580421639.17439,-0.968032349126421,0.073975738155184,-0.230716411078049
1580421639.17841,-0.963637750820173,0.0769054703593497,-0.225345235370412
1580421639.1824,-0.960219729915313,0.0744640268558783,-0.226321812771801
1580421639.18639,-0.955825131609064,0.070557717250324,-0.230716411078049
1580421639.19039,-0.951430533302815,0.0646982528419926,-0.242923628595406
1580421639.19438,-0.949477378500038,0.0651865415426869,-0.255619134813459
1580421639.19837,-0.947035934996567,0.0622568093385212,-0.261966887922485
1580421639.20237,-0.951430533302815,0.0598153658350498,-0.283939879453728
1580421639.20636,-0.954848554207675,0.0520027466239412,-0.293705653467613
1580421639.21035,-0.95875486381323,0.0495613031204698,-0.296147096971085
1580421639.21435,-0.957289997711147,0.044678416113527,-0.305424582284276
1580421639.21834,-0.957778286411841,0.0427252613107498,-0.302983138780805
1580421639.22233,-0.95875486381323,0.0422369726100555,-0.306401159685665
1580421639.22633,-0.95875486381323,0.048096437018387,-0.304936293583582
1580421639.23032,-0.961196307316701,0.0524910353246355,-0.301518272678722
1580421639.23431,-0.96217288471809,0.0544441901274126,-0.288822766460671
1580421639.23831,-0.960219729915313,0.0559090562294955,-0.271244373235676
1580421639.2423,-0.96217288471809,0.0593270771343555,-0.252201113908599
1580421639.24629,-0.960219729915313,0.063721675440604,-0.239505607690546
1580421639.25029,-0.954848554207675,0.063721675440604,-0.234134431982909
1580421639.25428,-0.954848554207675,0.0720225833524069,-0.229739833676661
1580421639.25827,-0.952895399404898,0.0744640268558783,-0.23657587548638
1580421639.26226,-0.950942244602121,0.0827649347676811,-0.241458762493323
1580421639.26626,-0.952407110704204,0.0905775539787896,-0.241458762493323
1580421639.27025,-0.951430533302815,0.0886243991760125,-0.246341649500266
1580421639.27424,-0.953871976806287,0.0925307087815668,-0.248294804303043
1580421639.27824,-0.953871976806287,0.0915541313801782,-0.255130846112765
1580421639.28223,-0.95533684290837,0.0949721522850382,-0.250736247806516
1580421639.28622,-0.958266575112535,0.0925307087815668,-0.251712825207905
1580421639.29022,-0.96559090562295,0.0949721522850382,-0.255619134813459
1580421639.29421,-0.969497215228504,0.0930189974822611,-0.257572289616236
1580421639.2982,-0.97584496833753,0.0935072861829553,-0.260990310521096
1580421639.3022,-0.97926298924239,0.0954604409857325,-0.265384908827345
1580421639.30619,-0.978286411841001,0.0979018844892039,-0.259525444419014
1580421639.31019,-0.977309834439613,0.0910658426794839,-0.256595712214848
1580421639.31418,-0.970473792629893,0.0891126878767068,-0.257084000915542
1580421639.31817,-0.96900892652781,0.0803234912642097,-0.260990310521096
1580421639.32217,-0.964614328221561,0.0769054703593497,-0.271244373235676
1580421639.32616,-0.960219729915313,0.0686045624475469,-0.273197528038454
1580421639.33015,-0.960708018616007,0.0622568093385212,-0.270267795834288
1580421639.33415,-0.957778286411841,0.0573739223315783,-0.274662394140536
1580421639.33813,-0.957289997711147,0.048096437018387,-0.270756084534982
1580421639.34213,-0.959731441214618,0.0407721065079727,-0.260013733119708
1580421639.34612,-0.959243152513924,0.0363775082017241,-0.254642557412071
1580421639.35011,-0.959731441214618,0.0329594872968642,-0.240970473792629
1580421639.35411,-0.959731441214618,0.0271000228885327,-0.23315785458152
1580421639.3581,-0.953871976806287,0.024170290684367,-0.239017318989852
1580421639.36209,-0.955825131609064,0.0256351567864499,-0.239017318989852
1580421639.36609,-0.956313420309758,0.0207522697795071,-0.251712825207905
1580421639.37008,-0.951430533302815,0.0178225375753414,-0.254154268711376
1580421639.37408,-0.948989089799344,0.0163576714732585,-0.250736247806516
1580421639.37807,-0.949477378500038,0.0124513618677042,-0.250736247806516
1580421639.38206,-0.951430533302815,0.0109864957656214,-0.242435339894712
1580421639.38606,-0.950942244602121,0.0109864957656214,-0.233646143282215
1580421639.39005,-0.954360265506981,0.00561532005798426,-0.219974059662775
1580421639.39404,-0.96559090562295,0.00170901045242999,-0.213138017853055
1580421639.39804,-0.972915236133364,-0.00659189745937283,-0.203372243839169
1580421639.40203,-0.97926298924239,-0.0144045166704814,-0.197512779430838
1580421639.40602,-0.986587319752804,-0.0227054245822842,-0.185793850614175
1580421639.41002,-0.993911650263218,-0.0314946211947813,-0.177004654001678
1580421639.41401,-0.996841382467384,-0.041260395208667,-0.164797436484321
1580421639.41803,-1.00270084687572,-0.0451667048142212,-0.159426260776684
1580421639.42202,-1.00660715648127,-0.048096437018387,-0.148195620660715
1580421639.42602,-1.00904859998474,-0.0432135500114441,-0.142336156252384
1580421639.43001,-1.01197833218891,-0.0334477759975584,-0.125246051728084
1580421639.434,-1.01832608529793,-0.0290531776913099,-0.11450370031281
1580421639.438,-1.02418554970626,-0.0192874036774242,-0.10424963759823
1580421639.44199,-1.03102159151598,-0.00903334096284425,-0.0944838635843439
1580421639.44598,-1.03492790112154,0.00219729915312428,-0.0842298008697639
1580421639.44998,-1.04176394293126,0.0158693827725642,-0.0744640268558783
1580421639.45397,-1.04957656214237,0.0295414663920042,-0.0515144579232469
1580421639.45796,-1.05934233615625,0.0388189517051956,-0.0349126420996413
1580421639.46196,-1.06520180056458,0.0510261692225527,-0.0187991149767299
1580421639.46595,-1.072526131075,0.0598153658350498,-0.00708018616006711
1580421639.46994,-1.072526131075,0.0651865415426869,0.00659189745937283
1580421639.47394,-1.07301441977569,0.0695811398489354,0.0139162279697871
1580421639.47793,-1.07545586327916,0.0695811398489354,0.0246585793850613
1580421639.48193,-1.08033875028611,0.067139696345464,0.0354009308003356
1580421639.48592,-1.08131532768749,0.0681162737468526,0.0417486839093613
1580421639.48991,-1.07936217288472,0.0642099641412983,0.0534676127260241
1580421639.49391,-1.08522163729305,0.060303654535744,0.0627450980392155
1580421639.49789,-1.09645227740902,0.0529793240253298,0.0681162737468526
1580421639.50189,-1.09889372091249,0.0466315709163041,0.0778820477607383
1580421639.50588,-1.10865949492637,0.0373540856031127,0.0925307087815668
1580421639.50987,-1.11354238193332,0.031006332494087,0.099855039291981
1580421639.51387,-1.11305409323262,0.0187991149767299,0.115968566414892
1580421639.51786,-1.11256580453193,0.00561532005798426,0.122316319523918
1580421639.52185,-1.10865949492637,-0.0046387426565957,0.137941557946135
1580421639.52585,-1.10914778362707,-0.0187991149767299,0.153566796368352
1580421639.52984,-1.10182345311665,-0.0290531776913099,0.170656900892652
1580421639.53384,-1.10035858701457,-0.044678416113527,0.187258716716258
1580421639.53783,-1.09498741130693,-0.0559090562294955,0.207278553444723
1580421639.54182,-1.09010452429999,-0.0642099641412983,0.223392080567635
1580421639.54582,-1.08473334859235,-0.0715342946517126,0.242435339894712
1580421639.54981,-1.08619821469444,-0.0754406042572668,0.270267795834286
1580421639.5538,-1.08668650339513,-0.0729991607537954,0.294682230869
1580421639.5578,-1.08619821469444,-0.0734874494544897,0.317631799801632
1580421639.56179,-1.09694056610971,-0.0729991607537954,0.340093080033569
1580421639.56578,-1.10768291752499,-0.070557717250324,0.355230029755091
1580421639.56978,-1.12184328984512,-0.0642099641412983,0.377691309987028
1580421639.57377,-1.13942168307011,-0.0622568093385212,0.388921950102997
1580421639.57776,-1.16432440680552,-0.0646982528419926,0.406012054627297
1580421639.58175,-1.19459830624857,-0.0720225833524069,0.415777828641183
1580421639.58574,-1.22780193789578,-0.0832532234683754,0.416266117341877
1580421639.58974,-1.2688181887541,-0.100343327992675,0.411383230334934
1580421639.59373,-1.31081101701381,-0.11450370031281,0.3972228580148
1580421639.59773,-1.35280384527352,-0.128175783932249,0.38696879530022
1580421639.60172,-1.40260929274434,-0.137941557946135,0.377203021286334
1580421639.60571,-1.44216067750057,-0.154543373769741,0.371343556878003
1580421639.60971,-1.47536430914778,-0.166750591287098,0.359136339360646
1580421639.6137,-1.49587243457694,-0.179446097505149,0.337163347829403
1580421639.61769,-1.50954451819638,-0.196536202029449,0.288334477759975
1580421639.62169,-1.5168688487068,-0.204837109941252,0.218997482261386
1580421639.62568,-1.5168688487068,-0.205813687342641,0.137453269245441
1580421639.62967,-1.50759136339361,-0.202395666437781,0.041260395208667
1580421639.63367,-1.48610666056306,-0.201907377737086,-0.0656748302433812
1580421639.63766,-1.45436789501793,-0.208743419546806,-0.173098344396124
1580421639.64165,-1.4060273136492,-0.229739833676661,-0.280033569848174
1580421639.64565,-1.35866330968185,-0.261966887922485,-0.355718318455787
1580421639.64964,-1.30006866559854,-0.299076829175251,-0.397222858014802
1580421639.65364,-1.24586861982147,-0.332768749523156,-0.38794537270161
1580421639.65765,-1.1916685740444,-0.356694895857176,-0.349858854047456
1580421639.66165,-1.13453879606317,-0.362066071564813,-0.296147096971085
1580421639.66564,-1.08766308079652,-0.35034714274815,-0.235599298084992
1580421639.66963,-1.04078736552987,-0.332280460822462,-0.178957808804455
1580421639.67363,-0.996841382467384,-0.321049820706493,-0.139894712748912
1580421639.67762,-0.963637750820173,-0.313237201495385,-0.125246051728084
1580421639.68161,-0.964614328221561,-0.291752498664836,-0.138429846646829
1580421639.68561,-0.983169298847944,-0.249759670405126,-0.163820859082932
1580421639.6896,-0.990981918059052,-0.213626306553749,-0.180910963607232
1580421639.69359,-1.00318913557641,-0.182375829709315,-0.190676737621118
1580421639.69759,-1.03150988021668,-0.148195620660715,-0.182375829709315
1580421639.70158,-1.06080720225834,-0.11450370031281,-0.177004654001678
1580421639.70558,-1.09449912260624,-0.0725108720531011,-0.177492942702372
1580421639.70957,-1.12819104295415,-0.0222171358815899,-0.176028076600289
1580421639.71356,-1.15114061188678,0.0168459601739528,-0.165285725185015
1580421639.71756,-1.16481269550622,0.0432135500114441,-0.152590218966964
1580421639.72155,-1.15846494239719,0.0554207675288012,-0.123292896925307
1580421639.72554,-1.13649195086595,0.0539559014267184,-0.080811779964904
1580421639.72954,-1.09498741130693,0.0437018387121384,-0.0393072404058898
1580421639.73353,-1.04908827344167,0.0300297550926985,-0.000244144350347142
1580421639.73752,-1.00172426947433,0.0163576714732585,0.0349126420996413
1580421639.74151,-0.957778286411841,0.01196307316701,0.0539559014267184
1580421639.7455,-0.925062943465324,0.00317387655451284,0.0676279850461583
1580421639.7495,-0.90064850843061,0.00366216525520713,0.0642099641412983
1580421639.75349,-0.88014038300145,0.00366216525520713,0.0646982528419926
1580421639.75748,-0.864026855878539,-0.000732433051041426,0.0744640268558783
1580421639.76148,-0.850843060959793,-0.00170901045242999,0.0856946669718468
1580421639.76547,-0.840100709544519,-0.00610360875867855,0.096437018387121
1580421639.76947,-0.832776379034105,-0.0046387426565957,0.101808194094758
1580421639.77346,-0.823010605020219,-0.00561532005798426,0.100343327992675
1580421639.77745,-0.817639429312582,0.000732433051041426,0.101319905394064
1580421639.78145,-0.814709697108416,0.00854505226214997,0.0886243991760125
1580421639.78544,-0.814709697108416,0.0183108262760356,0.0793469138628211
1580421639.78943,-0.81519798580911,0.027588311589227,0.0661631189440754
1580421639.79343,-0.814709697108416,0.0358892195010299,0.0549324788281069
1580421639.79742,-0.816662851911193,0.0393072404058898,0.0397955291065841
1580421639.80141,-0.817151140611887,0.0358892195010299,0.031006332494087
1580421639.80541,-0.812756542305639,0.0256351567864499,0.0300297550926985
1580421639.8094,-0.81177996490425,0.0100099183642328,0.0397955291065841
1580421639.8134,-0.803967345693142,-0.0129396505683985,0.0451667048142212
1580421639.81741,-0.800549324788282,-0.0349126420996413,0.0554207675288012
1580421639.82141,-0.79468986037995,-0.0568856336308841,0.0695811398489354
1580421639.8254,-0.785412375066759,-0.0837415121690697,0.0783703364614325
1580421639.82939,-0.781506065461205,-0.107179369802395,0.0896009765774011
1580421639.83339,-0.778576333257039,-0.125734340428778,0.0979018844892039
1580421639.83738,-0.777111467154956,-0.139894712748912,0.117433432516975
1580421639.84137,-0.774670023651485,-0.155031662470435,0.127687495231555
1580421639.84537,-0.776623178454262,-0.164797436484321,0.149660486762798
1580421639.84936,-0.785900663767453,-0.179446097505149,0.177492942702372
1580421639.85335,-0.790783550774396,-0.193118181124589,0.205325398641946
1580421639.85735,-0.79810788128481,-0.205813687342641,0.230228122377355
1580421639.86134,-0.804455634393836,-0.224368657969023,0.259525444419012
1580421639.86533,-0.810315098802167,-0.247806515602349,0.299076829175249
1580421639.86933,-0.811291676203556,-0.273197528038454,0.3288624399176
1580421639.87332,-0.812268253604945,-0.298588540474556,0.357671473258563
1580421639.87732,-0.810315098802167,-0.333745326924545,0.382085908293277
1580421639.88131,-0.803967345693142,-0.364507515068285,0.41089494163424
1580421639.8853,-0.793224994277868,-0.388921950102999,0.42456702525368
1580421639.8893,-0.782970931563288,-0.415777828641184,0.439703974975203
1580421639.89329,-0.769787136644542,-0.444098573281453,0.451422903791865
1580421639.89728,-0.757091630426491,-0.46655985351339,0.45532921339742
1580421639.90127,-0.742931258106355,-0.48364995803769,0.455817502098114
1580421639.90526,-0.73560692759594,-0.499763485160601,0.456305790798808
1580421639.90926,-0.726817730983443,-0.507087815671015,0.450934615091171
1580421639.91325,-0.722911421377889,-0.511482413977264,0.44507515068284
1580421639.91724,-0.721446555275806,-0.505134660868238,0.433356221866177
1580421639.92124,-0.726329442282749,-0.499275196459907,0.423590447852291
1580421639.92523,-0.72877088578622,-0.478767071030747,0.419195849546043
1580421639.92923,-0.737560082398717,-0.461188677805753,0.409918364232851
1580421639.93322,-0.748790722514686,-0.43921568627451,0.416754406042571
1580421639.93721,-0.759044785229268,-0.41528953994049,0.425055313954374
1580421639.94121,-0.76734569314107,-0.39136339360647,0.425055313954374
1580421639.9452,-0.775646601052873,-0.36743724727245,0.426031891355763
1580421639.94919,-0.783947508964676,-0.347417410543985,0.423102159151597
1580421639.95319,-0.791760128175785,-0.324956130312048,0.415777828641183
1580421639.95718,-0.796643015182728,-0.309819180590525,0.422613870450903
1580421639.96117,-0.809826810101473,-0.290287632562753,0.427496757457845
1580421639.96517,-0.824963759822996,-0.271732661936371,0.440680552376591
1580421639.96916,-0.838147554741742,-0.250247959105822,0.449469748989088
1580421639.97315,-0.847425040054933,-0.224856946669718,0.467536430914777
1580421639.97714,-0.868909742885482,-0.199465934233615,0.480720225833522
1580421639.98113,-0.885999847409781,-0.175539787899595,0.491950865949491
1580421639.98513,-0.898695353627833,-0.151613641565575,0.498786907759211
1580421639.98912,-0.907972838941024,-0.131593804837109,0.508064393072406
1580421639.99312,-0.906019684138247,-0.118898298619058,0.513923857480737
1580421639.99711,-0.904554818036164,-0.109620813305867,0.515877012283514
1580421640.0011,-0.894789044022279,-0.0979018844892039,0.519295033188374
1580421640.0051,-0.888929579613947,-0.0832532234683754,0.51880674448768
1580421640.00909,-0.885999847409781,-0.067139696345464,0.521736476691846
1580421640.01308,-0.881605249103533,-0.0490730144197755,0.528572518501566
1580421640.01708,-0.881116960402839,-0.027588311589227,0.523689631494623
1580421640.02107,-0.88697642481117,-0.00805676356145568,0.531502250705731
1580421640.02506,-0.888441290913253,0.0109864957656214,0.53247882810712
1580421640.02906,-0.891859311818113,0.0231937132829785,0.549080643930726
1580421640.03305,-0.897718776226444,0.0266117341878385,0.566170748455026
1580421640.03705,-0.902601663233387,0.0305180437933927,0.581795986877243
1580421640.04104,-0.910414282444496,0.0222171358815899,0.608163576714734
1580421640.04503,-0.911879148546578,0.0114747844663157,0.622323949034868
1580421640.04902,-0.914808880750744,-0.0046387426565957,0.628671702143894
1580421640.05302,-0.918226901655604,-0.0222171358815899,0.627695124742505
1580421640.05704,-0.927016098268101,-0.044678416113527,0.632578011749448
1580421640.06103,-0.932875562676433,-0.0563973449301898,0.622323949034868
1580421640.06502,-0.946547646295873,-0.0710460059510183,0.627695124742505
1580421640.06902,-0.948989089799344,-0.0861829556725411,0.622812237735562
1580421640.07301,-0.944106202792401,-0.102784771496147,0.605722133211263
1580421640.077,-0.930434119172961,-0.116945143816281,0.588143739986268
1580421640.081,-0.908461127641718,-0.130128938735027,0.574959945067523
1580421640.08499,-0.895765621423667,-0.136964980544747,0.562264438849471
1580421640.08898,-0.88355840390631,-0.138429846646829,0.567635614557108
1580421640.09298,-0.885511558709087,-0.146730754558632,0.578377965972383
1580421640.09697,-0.89381246662089,-0.154055085069047,0.58716716258488
1580421640.10097,-0.898695353627833,-0.168215457389181,0.606698710612651
1580421640.10496,-0.901625085831999,-0.183840695811398,0.633066300450142
1580421640.10895,-0.889906157015336,-0.222415503166246,0.65552758068208
1580421640.11295,-0.872327763790341,-0.267826352330816,0.670176241702908
1580421640.11694,-0.867933165484093,-0.302006561379416,0.659433890287634
1580421640.12093,-0.881605249103533,-0.332768749523156,0.632089723048754
1580421640.12493,-0.919203479056993,-0.359624628061342,0.568123903257803
1580421640.12892,-0.945571068894484,-0.397711146715496,0.467536430914777
1580421640.13291,-0.937758449683376,-0.453864347295339,0.323002975509269
1580421640.1369,-0.896742198825056,-0.517341878385595,0.175051499198901
1580421640.14089,-0.844495307850767,-0.559822995345998,0.0397955291065841
1580421640.14489,-0.809826810101473,-0.566659037155718,-0.0510261692225527
1580421640.14888,-0.800061036087587,-0.52808422980087,-0.11108567940795
1580421640.15288,-0.806897077897307,-0.448493171587701,-0.141847867551689
1580421640.15687,-0.813244831006333,-0.345464255741208,-0.173098344396124
1580421640.16086,-0.824475471122302,-0.228763256275272,-0.161379415579461
1580421640.16486,-0.875257495994507,-0.109620813305867,-0.0983901731898982
1580421640.16885,-0.959731441214618,0.0187991149767299,0.034424353398947
1580421640.17284,-1.09840543221179,0.142336156252384,0.234622720683603
1580421640.17684,-1.26295872434577,0.257572289616235,0.485603112840465
1580421640.18083,-1.43678950179294,0.357183184557869,0.721446555275808
1580421640.18482,-1.567650873579,0.408941786831463,0.825940337224385
1580421640.18882,-1.62087434195468,0.3972228580148,0.755138475623713
1580421640.19281,-1.57790493629358,0.292729076066223,0.545174334325171
1580421640.1968,-1.46413366903182,0.155519951171129,0.298588540474555
1580421640.2008,-1.33962005035477,0.0720225833524069,0.102784771496147
1580421640.20479,-1.24098573281453,0.0646982528419926,-0.0363775082017241
1580421640.20878,-1.16334782940413,0.0695811398489354,-0.136476691844052
1580421640.21278,-1.08570992599374,0.0612802319371326,-0.218509193560692
1580421640.21677,-1.00660715648127,0.0539559014267184,-0.268314641031511
1580421640.22076,-0.929945830472267,0.0700694285496297,-0.288334477759976
1580421640.22475,-0.865980010681316,0.10766765850309,-0.268314641031511
1580421640.22875,-0.819592584115359,0.154543373769741,-0.244876783398183
1580421640.23274,-0.786877241168842,0.190676737621118,-0.232181277180132
1580421640.23673,-0.764415960936905,0.196536202029449,-0.258060578316931
1580421640.24073,-0.730724040588997,0.157473105973907,-0.317143511100939
1580421640.24472,-0.69117265583276,0.0910658426794839,-0.384039063096056
1580421640.24871,-0.665781643396658,0.0124513618677042,-0.42212558175021
1580421640.25271,-0.659433890287632,-0.0432135500114441,-0.415777828641184
1580421640.2567,-0.677988860914015,-0.0607919432364383,-0.371343556878005
1580421640.26069,-0.726817730983443,-0.048096437018387,-0.297611963073168
1580421640.26469,-0.801037613488976,-0.00659189745937283,-0.194094758525978
1580421640.26868,-0.898207064927139,0.0524910353246355,-0.0935072861829553
1580421640.27268,-0.999282825970855,0.126710917830167,-0.0202639810788128
1580421640.27667,-1.09596398870832,0.197024490730143,0.000732433051041426
1580421640.28066,-1.16823071641108,0.234134431982909,-0.01196307316701
1580421640.28466,-1.2004577706569,0.225345235370412,-0.0466315709163041
1580421640.28865,-1.20631723506523,0.180910963607232,-0.0656748302433812
1580421640.29264,-1.19948119325551,0.131593804837109,-0.0646982528419926
1580421640.29666,-1.17653162432288,0.0925307087815668,-0.0568856336308841
1580421640.30065,-1.13893339436942,0.067139696345464,-0.0339360646982527
1580421640.30465,-1.09694056610971,0.0534676127260241,-0.0295414663920042
1580421640.30864,-1.06129549095903,0.0520027466239412,-0.0251468680857556
1580421640.31263,-1.03053330281529,0.0617685206378269,-0.0202639810788128
1580421640.31663,-1.00660715648127,0.0788586251621268,-0.0178225375753414
1580421640.32062,-0.992446784161135,0.107179369802395,-0.0183108262760356
1580421640.32462,-0.980727855344472,0.134523537041275,-0.0319829098954756
1580421640.32861,-0.96559090562295,0.163332570382238,-0.0441901274128327
1580421640.3326,-0.957778286411841,0.184817273212786,-0.0617685206378269
1580421640.3366,-0.944594491493095,0.188723582818341,-0.073975738155184
1580421640.34059,-0.932387273975738,0.198001068131532,-0.0793469138628211
1580421640.34458,-0.92799267566949,0.198001068131532,-0.0764171816586554
1580421640.34858,-0.92799267566949,0.192141603723201,-0.0725108720531011
1580421640.35257,-0.928969253070878,0.184817273212786,-0.0651865415426869
1580421640.35656,-0.928480964370184,0.176028076600289,-0.0573739223315783
1580421640.36056,-0.932387273975738,0.162844281681544,-0.0520027466239412
1580421640.36455,-0.94166475928893,0.150148775463492,-0.0539559014267184
1580421640.36854,-0.956801709010453,0.143801022354467,-0.0617685206378269
1580421640.37254,-0.978774700541695,0.135011825741969,-0.070557717250324
1580421640.37653,-1.00318913557641,0.124269474326695,-0.070557717250324
1580421640.38052,-1.01686121919585,0.114991989013504,-0.0725108720531011
1580421640.38451,-1.03346303501946,0.108155947203784,-0.0715342946517126
1580421640.38851,-1.03639276722362,0.108644235904478,-0.073975738155184
1580421640.3925,-1.03248645761807,0.108155947203784,-0.0715342946517126
1580421640.39649,-1.02467383840696,0.108155947203784,-0.0710460059510183
1580421640.40049,-1.01197833218891,0.111573968108644,-0.0852063782711525
1580421640.40448,-0.99977111467155,0.108644235904478,-0.103273060196841
1580421640.40847,-0.983169298847944,0.105226214999618,-0.113038834210727
1580421640.41247,-0.97242694743267,0.111573968108644,-0.132082093537804
1580421640.41646,-0.960708018616007,0.114991989013504,-0.140871290150301
1580421640.42045,-0.947035934996567,0.116456855115587,-0.149660486762798
1580421640.42445,-0.935805294880598,0.115968566414892,-0.160402838178072
1580421640.42844,-0.929945830472267,0.117433432516975,-0.167727168688486
1580421640.43244,-0.928480964370184,0.112550545510032,-0.170168612191958
1580421640.43643,-0.928969253070878,0.104737926298924,-0.170168612191958
1580421640.44042,-0.933363851377127,0.102296482795452,-0.158449683375295
1580421640.44441,-0.939223315785458,0.0993667505912867,-0.152590218966964
1580421640.44841,-0.942641336690318,0.101319905394064,-0.135500114442664
1580421640.4524,-0.955825131609064,0.100343327992675,-0.133058670939192
1580421640.45642,-0.960708018616007,0.099855039291981,-0.130617227435721
1580421640.46041,-0.961196307316701,0.0925307087815668,-0.126710917830167
1580421640.46441,-0.978774700541695,0.0866712443732354,-0.129152361333638
1580421640.4684,-0.971450370031281,0.080811779964904,-0.123292896925307
1580421640.47239,-0.96217288471809,0.0700694285496297,-0.11450370031281
1580421640.47639,-0.956313420309758,0.0666514076447697,-0.110109102006561
1580421640.48038,-0.952895399404898,0.0681162737468526,-0.106202792401007
1580421640.48438,-0.940199893186847,0.0622568093385212,-0.105226214999618
1580421640.48837,-0.922133211261158,0.0554207675288012,-0.108644235904478
1580421640.49236,-0.92115663385977,0.0456549935149155,-0.116456855115587
1580421640.49636,-0.922621499961853,0.0422369726100555,-0.113038834210727
1580421640.50035,-0.927504386968796,0.067139696345464,-0.110109102006561
1580421640.50434,-0.991470206759747,0.0847180895704582,-0.119874876020447
1580421640.50834,-0.961196307316701,0.0271000228885327,-0.115968566414892
1580421640.51233,-0.941176470588236,0.027588311589227,-0.112062256809338
1580421640.51632,-0.920180056458381,0.0358892195010299,-0.113038834210727
1580421640.52032,-0.932875562676433,0.067139696345464,-0.12133974212253
1580421640.52431,-0.944594491493095,0.0832532234683754,-0.114015411612115
1580421640.5283,-0.950942244602121,0.112062256809338,-0.114991989013504
1580421640.5323,-0.968032349126421,0.148195620660715,-0.11108567940795
1580421640.53628,-0.987075608453498,0.179446097505149,-0.107179369802395
1580421640.54028,-1.00660715648127,0.213626306553749,-0.116456855115587
1580421640.54427,-1.02613870450904,0.242923628595406,-0.120851453421835
1580421640.54827,-1.03492790112154,0.261478599221789,-0.146730754558632
1580421640.55226,-1.03346303501946,0.266849774929426,-0.163332570382238
1580421640.55625,-1.0300450141146,0.259525444419012,-0.181399252307926
1580421640.56025,-1.02613870450904,0.241458762493323,-0.183840695811398
1580421640.56424,-1.02027924010071,0.214114595254443,-0.179446097505149
1580421640.56823,-1.02369726100557,0.178469520103761,-0.168215457389181
1580421640.57223,-1.03248645761807,0.138429846646829,-0.149172198062104
1580421640.57622,-1.03736934462501,0.0886243991760125,-0.122804608224612
1580421640.58021,-1.04420538643473,0.0363775082017241,-0.0915541313801782
1580421640.58421,-1.05152971694514,-0.01196307316701,-0.0520027466239412
1580421640.5882,-1.05592431525139,-0.0520027466239412,-0.0075684748607614
1580421640.59219,-1.05690089265278,-0.0813000686655982,0.0305180437933927
1580421640.59619,-1.06080720225834,-0.108644235904478,0.0520027466239412
1580421640.60018,-1.0642252231632,-0.125246051728084,0.0700694285496297
1580421640.60417,-1.07350270847639,-0.136476691844052,0.0910658426794839
1580421640.60817,-1.08522163729305,-0.140383001449607,0.103273060196841
1580421640.61216,-1.10328831921874,-0.135011825741969,0.108155947203784
1580421640.61615,-1.12037842374304,-0.126710917830167,0.115480277714198
1580421640.62014,-1.13990997177081,-0.117433432516975,0.130617227435721
1580421640.62414,-1.15407034409094,-0.110597390707255,0.149172198062104
1580421640.62813,-1.1750667582208,-0.099855039291981,0.165774013885709
1580421640.63212,-1.20387579156176,-0.0866712443732354,0.178469520103761
1580421640.63612,-1.2429388876173,-0.0695811398489354,0.190676737621118
1580421640.64011,-1.27516594186313,-0.0598153658350498,0.205813687342641
1580421640.6441,-1.30446326390478,-0.0471198596169984,0.218509193560692
1580421640.6481,-1.320088502327,-0.0422369726100555,0.225345235370412
1580421640.65209,-1.33131914244297,-0.0383306630045013,0.220950637064163
1580421640.65609,-1.33034256504158,-0.044678416113527,0.208255130846112
1580421640.66008,-1.32155336842908,-0.0593270771343555,0.190676737621118
1580421640.66407,-1.3029983978027,-0.0720225833524069,0.177004654001678
1580421640.66806,-1.28688487067979,-0.0852063782711525,0.156984817273212
1580421640.67206,-1.27321278706035,-0.0925307087815668,0.137453269245441
1580421640.67605,-1.27174792095827,-0.0910658426794839,0.115480277714198
1580421640.68005,-1.27663080796521,-0.077393759060044,0.105226214999618
1580421640.68404,-1.2863965819791,-0.0578622110322726,0.0832532234683754
1580421640.68803,-1.2942092011902,-0.0354009308003356,0.0632333867399097
1580421640.69203,-1.30397497520409,-0.0075684748607614,0.0432135500114441
1580421640.69604,-1.31618219272145,0.0192874036774242,0.0319829098954756
1580421640.70004,-1.33376058594644,0.0432135500114441,0.0295414663920042
1580421640.70403,-1.35573357747768,0.0607919432364383,0.0290531776913099
1580421640.70802,-1.37380025940337,0.0666514076447697,0.0202639810788128
1580421640.71202,-1.3889372091249,0.0622568093385212,0.00561532005798426
1580421640.71601,-1.39577325093462,0.0515144579232469,-0.00512703135728998
1580421640.72001,-1.40358587014572,0.0461432822156098,-0.00952162966353853
1580421640.724,-1.41237506675822,0.0397955291065841,-0.000732433051041426
1580421640.72799,-1.42897688258183,0.0490730144197755,0.0222171358815899
1580421640.73199,-1.44655527580682,0.0632333867399097,0.0593270771343555
1580421640.73598,-1.45534447241932,0.0788586251621268,0.116456855115587
1580421640.73997,-1.45387960631724,0.0852063782711525,0.189700160219729
1580421640.74397,-1.45485618371862,0.0861829556725411,0.256595712214846
1580421640.74796,-1.45339131761654,0.0686045624475469,0.309330891889829
1580421640.75195,-1.44313725490196,0.0402838178072784,0.343999389639123
1580421640.75595,-1.41774624246586,-0.0129396505683985,0.35620660715648
1580421640.75994,-1.37868314641032,-0.0915541313801782,0.356694895857174
1580421640.76393,-1.33473716334783,-0.180422674906538,0.364019226367589
1580421640.76793,-1.29616235599298,-0.262943465323874,0.362066071564811
1580421640.77192,-1.27028305485618,-0.323979552910659,0.356694895857174
1580421640.77591,-1.24782177462425,-0.358159761959259,0.346929121843289
1580421640.7799,-1.22926680399786,-0.373296711680782,0.338139925230792
1580421640.7839,-1.21315327687495,-0.377203021286336,0.319584954604409
1580421640.78789,-1.21364156557565,-0.377203021286336,0.291752498664835
1580421640.79188,-1.23024338139925,-0.362554360265507,0.274662394140535
1580421640.79588,-1.26100556954299,-0.337163347829405,0.289311055161363
1580421640.79987,-1.28542000457771,-0.292729076066225,0.284916456855115
1580421640.80386,-1.30495155260548,-0.23315785458152,0.248783093003738
1580421640.80786,-1.33913176165408,-0.156984817273212,0.165774013885709
1580421640.81185,-1.38747234302281,-0.0627450980392155,0.0363775082017241
1580421640.81584,-1.43776607919432,-0.00170901045242999,-0.115968566414892
1580421640.81984,-1.45973907072557,0.0075684748607614,-0.274662394140536
1580421640.82383,-1.45339131761654,-0.0339360646982527,-0.416754406042573
1580421640.82782,-1.40993362325475,-0.0988784618905925,-0.520759899290455
1580421640.83182,-1.34938582436866,-0.143801022354467,-0.610116731517509
1580421640.83581,-1.29372091248951,-0.140871290150301,-0.694102388036926
1580421640.8398,-1.26735332265202,-0.0827649347676811,-0.772716868848708
1580421640.8438,-1.27418936446174,0.0334477759975584,-0.840100709544519
1580421640.84779,-1.31911192492561,0.174074921797512,-0.840100709544519
1580421640.85179,-1.37038223849851,0.31519035629816,-0.802502479591059
1580421640.85577,-1.40212100404364,0.448004882887005,-0.761486228732739
1580421640.85977,-1.41676966506447,0.564705882352943,-0.734142061493857
1580421640.86376,-1.41969939726864,0.657480735484857,-0.734142061493857
1580421640.86775,-1.40260929274434,0.705821316853591,-0.748790722514686
1580421640.87175,-1.39528496223392,0.677500572213322,-0.74244296940566
1580421640.87574,-1.39626153963531,0.574959945067523,-0.692637521934843
1580421640.87973,-1.42604715037766,0.410406652933546,-0.584725719081407
1580421640.88373,-1.49098954757,0.235111009384298,-0.435309376668956
1580421640.88772,-1.58278782330053,0.0813000686655982,-0.285404745555811
1580421640.89171,-1.67507438773175,-0.0261234454871442,-0.174563210498206
1580421640.89571,-1.74392309452964,-0.0817883573662925,-0.117433432516975
1580421640.8997,-1.77517357137408,-0.119386587319752,-0.102784771496147
1580421640.9037,-1.76882581826505,-0.173586633096818,-0.130128938735027
1580421640.90769,-1.72341496910048,-0.241458762493323,-0.161867704280155
1580421640.91168,-1.65261310749981,-0.309819180590525,-0.187747005416952
1580421640.91568,-1.55349050125887,-0.341557946135653,-0.206301976043335
1580421640.91967,-1.45632104982071,-0.343999389639125,-0.207278553444723
1580421640.92366,-1.37868314641032,-0.32642099641413,-0.216556038757915
1580421640.92766,-1.3371786068513,-0.291752498664836,-0.232669565880826
1580421640.93165,-1.30202182040131,-0.263920042725262,-0.247806515602349
1580421640.93567,-1.26588845654994,-0.239505607690546,-0.266361486228734
1580421640.93966,-1.23610284580758,-0.229251544975966,-0.282963302052339
1580421640.94366,-1.2175478751812,-0.223392080567635,-0.296635385671779
1580421640.94765,-1.19411001754787,-0.221927214465552,-0.307377737087053
1580421640.95164,-1.17067215991455,-0.224856946669718,-0.310795757991913
1580421640.95564,-1.14625772487983,-0.218509193560692,-0.318120088502328
1580421640.95963,-1.11451895933471,-0.205325398641946,-0.322514686808576
1580421640.96362,-1.08619821469444,-0.188723582818341,-0.322026398107882
1580421640.96762,-1.05641260395209,-0.163332570382238,-0.317143511100939
1580421640.97161,-1.02906843671321,-0.136476691844052,-0.299076829175251
1580421640.9756,-0.999282825970855,-0.096437018387121,-0.278568703746091
1580421640.9796,-0.97584496833753,-0.0559090562294955,-0.260013733119708
1580421640.98359,-0.966079194323644,-0.0109864957656214,-0.246341649500266
1580421640.98758,-0.932875562676433,0.0300297550926985,-0.228274967574578
1580421640.99158,-0.89723048752575,0.0681162737468526,-0.218997482261386
1580421640.99557,-0.864515144579233,0.100343327992675,-0.220950637064163
1580421640.99956,-0.825940337224385,0.115968566414892,-0.228763256275272
1580421641.00356,-0.789318684672313,0.12133974212253,-0.233646143282215
1580421641.00755,-0.74586099031052,0.111573968108644,-0.243900205996795
1580421641.01154,-0.701915007248035,0.099855039291981,-0.252201113908599
1580421641.01553,-0.662363622491798,0.0744640268558783,-0.267826352330816
1580421641.01953,-0.618417639429312,0.0485847257190812,-0.293705653467613
1580421641.02352,-0.579354543373769,0.024170290684367,-0.313725490196079
1580421641.02751,-0.54517433432517,0.00512703135728998,-0.341557946135653
1580421641.03151,-0.509040970473793,-0.00952162966353853,-0.360112916762036
1580421641.0355,-0.478278782330053,-0.0173342488746471,-0.376714732585642
1580421641.03949,-0.450446326390479,-0.0266117341878385,-0.395269703212024
1580421641.04349,-0.417730983443962,-0.0256351567864499,-0.421149004348822
1580421641.04748,-0.390875104905776,-0.0280766002899213,-0.429938200961319
1580421641.05147,-0.36401922636759,-0.024170290684367,-0.430914778362707
1580421641.05547,-0.341557946135653,-0.0178225375753414,-0.442145418478676
1580421641.05946,-0.323491264209965,-0.00659189745937283,-0.44605172808423
1580421641.06345,-0.303959716182193,0.00659189745937283,-0.448004882887007
1580421641.06745,-0.287357900358588,0.0173342488746471,-0.450446326390479
1580421641.07144,-0.278080415045396,0.024170290684367,-0.443610284580759
1580421641.07544,-0.273685816739148,0.0187991149767299,-0.424567025253682
1580421641.07943,-0.273197528038454,0.0202639810788128,-0.403570611123827
1580421641.08342,-0.261966887922485,0.000244144350347142,-0.376226443884947
1580421641.08742,-0.256595712214848,-0.0334477759975584,-0.348882276646068
1580421641.09141,-0.257572289616236,-0.0734874494544897,-0.317631799801633
1580421641.09543,-0.262455176623179,-0.122804608224612,-0.283451590753033
1580421641.09942,-0.253177691309988,-0.171633478294041,-0.243900205996795
1580421641.10342,-0.245853360799572,-0.228274967574578,-0.216556038757915
1580421641.10741,-0.2434119172961,-0.268314641031511,-0.189211871519035
1580421641.1114,-0.239017318989852,-0.300541695277333,-0.146730754558632
1580421641.1154,-0.237064164187075,-0.311284046692608,-0.0930189974822611
1580421641.11939,-0.248294804303043,-0.300053406576639,-0.0329594872968642
1580421641.12338,-0.275638971541925,-0.267338063630122,0.0363775082017241
1580421641.12738,-0.323979552910659,-0.219974059662775,0.117433432516975
1580421641.13137,-0.393316548409247,-0.175051499198901,0.186770428015564
1580421641.13536,-0.476325627527276,-0.135988403143358,0.252689402609292
1580421641.13936,-0.575448233768215,-0.0905775539787896,0.321538109407186
1580421641.14335,-0.67750057221332,-0.0510261692225527,0.398687724116883
1580421641.14734,-0.785412375066759,-0.0104982070649271,0.490974288548102
1580421641.15134,-0.888441290913253,0.0305180437933927,0.60083924620432
1580421641.15533,-1.00318913557641,0.0715342946517126,0.727306019684139
1580421641.15932,-1.13307392996109,0.112062256809338,0.857679102769513
1580421641.16332,-1.25954070344091,0.131593804837109,0.981704432745861
1580421641.16731,-1.35963988708324,0.109620813305867,1.09059281300069
1580421641.1713,-1.42018768596933,0.027588311589227,1.16285954070344
1580421641.17529,-1.43825436789502,-0.106691081101701,1.20485236896315
1580421641.17929,-1.45778591592279,-0.224368657969023,1.21803616388189
1580421641.18328,-1.50905622949569,-0.275638971541925,1.23366140230411
1580421641.18727,-1.58278782330053,-0.268314641031511,1.21120012207217
1580421641.19127,-1.64235904478523,-0.231204699778743,1.14869916838331
1580421641.19526,-1.64040588998245,-0.196047913328755,1.03492790112154
1580421641.19925,-1.57009231708247,-0.178469520103761,0.89381246662089
1580421641.20325,-1.44948500801099,-0.179446097505149,0.744884412909133
1580421641.20724,-1.30543984130617,-0.194094758525978,0.590096894789045
1580421641.21123,-1.16285954070344,-0.216556038757915,0.45191119249256
1580421641.21523,-1.05055313954376,-0.248294804303043,0.347417410543983
1580421641.21922,-0.984634164950027,-0.280521858548868,0.318120088502326
1580421641.22321,-0.954848554207675,-0.312260624093996,0.348393987945371
1580421641.22721,-0.94508278019379,-0.331792172121768,0.405035477225908
1580421641.2312,-0.948012512397955,-0.339604791332876,0.456794079499502
1580421641.23519,-0.933363851377127,-0.324467841611353,0.491950865949491
1580421641.23919,-0.905531395437553,-0.293705653467613,0.557381551842528
1580421641.24318,-0.901625085831999,-0.243900205996795,0.671152819104297
1580421641.24718,-0.918226901655604,-0.179934386205844,0.838147554741742
1580421641.25117,-0.92799267566949,-0.102784771496147,0.978286411841001
1580421641.25516,-0.927504386968796,-0.0212405584802013,1.01197833218891
1580421641.25915,-0.894789044022279,0.044678416113527,0.958266575112535
1580421641.26314,-0.882581826504921,0.11108567940795,0.834729533836882
1580421641.26714,-0.949477378500038,0.221927214465552,0.630624856946671
1580421641.27113,-1.09645227740902,0.37329671168078,0.290287632562752
1580421641.27513,-1.18776226443885,0.474860761425191,-0.11108567940795
1580421641.27912,-1.19508659494926,0.432379644464788,-0.477302204928664
1580421641.28311,-1.17653162432288,0.302006561379415,-0.711192492561226
1580421641.2871,-1.14772259098192,0.157961394674601,-0.760021362630656
1580421641.2911,-1.12770275425345,0.0290531776913099,-0.640390630960555
1580421641.29509,-1.12623788815137,-0.0715342946517126,-0.423590447852293
1580421641.29909,-1.12770275425345,-0.175051499198901,-0.175539787899595
1580421641.30308,-1.14430457007706,-0.292240787365531,0.0686045624475469
1580421641.30707,-1.20387579156176,-0.36060120546273,0.265873197528038
1580421641.31107,-1.30885786221103,-0.222415503166246,0.373785000381474
1580421641.31506,-1.45290302891585,0.161379415579461,0.377691309987028
1580421641.31905,-1.60622568093385,0.507087815671017,0.318120088502326
1580421641.32305,-1.69704737926299,0.608651865415428,0.201419089036392
1580421641.32704,-1.69509422446021,0.545174334325171,0.0783703364614325
1580421641.33103,-1.61501487754635,0.387945372701608,-0.034424353398947
1580421641.33508,-1.47096971084154,0.188235294117646,-0.167727168688486
1580421641.33908,-1.27614251926452,-0.0144045166704814,-0.310795757991913
1580421641.34307,-1.0471351186389,-0.168215457389181,-0.42554360265507
1580421641.34706,-0.832776379034105,-0.237552452887769,-0.492439154650187
1580421641.35106,-0.678477149614709,-0.231692988479438,-0.52124818799115
1580421641.35505,-0.590096894789044,-0.176028076600289,-0.512458991378653
1580421641.35904,-0.537850003814755,-0.127199206530861,-0.48706797894255
1580421641.36304,-0.516365300984207,-0.103761348897535,-0.460700389105059
1580421641.36703,-0.519783321889067,-0.104737926298924,-0.424078736552987
1580421641.37102,-0.530037384603647,-0.111573968108644,-0.429449912260624
1580421641.37502,-0.536385137712672,-0.113038834210727,-0.489997711146716
1580421641.37901,-0.52466620889601,-0.11792172121767,-0.594491493095292
1580421641.383,-0.505622949568933,-0.134523537041275,-0.677988860914015
1580421641.387,-0.518806744487678,-0.145265888456549,-0.671152819104295
1580421641.39099,-0.594491493095292,-0.108644235904478,-0.567147325856412
1580421641.39498,-0.741466392004272,0.00268558785381856,-0.42896162355993
1580421641.39898,-0.951430533302815,0.185305561913481,-0.312260624093996
1580421641.40297,-1.20631723506523,0.433356221866177,-0.242923628595406
1580421641.40697,-1.43678950179294,0.706309605554285,-0.238529030289158
1580421641.41096,-1.57106889448386,0.905531395437553,-0.277592126344702
1580421641.41495,-1.57497520408942,0.923598077363241,-0.334721904325933
1580421641.41894,-1.48073548485542,0.761974517433433,-0.347417410543985
1580421641.42293,-1.37331197070268,0.542244602121006,-0.291752498664836
1580421641.42693,-1.28883802548257,0.36987869077592,-0.229739833676661
1580421641.43092,-1.23659113450828,0.29126420996414,-0.198001068131532
1580421641.43491,-1.18727397573815,0.264896620126649,-0.197024490730143
1580421641.43891,-1.13551537346456,0.247318226901655,-0.218509193560692
1580421641.4429,-1.07447928587777,0.25366598001068,-0.239017318989852
1580421641.44689,-1.0129549095903,0.280033569848172,-0.2434119172961
1580421641.45089,-0.971450370031281,0.317143511100937,-0.231204699778743
1580421641.45488,-0.93482871747921,0.338628213931486,-0.215579461356526
1580421641.45888,-0.901136797131304,0.331303883421072,-0.206301976043335
1580421641.46287,-0.869398031586176,0.288334477759975,-0.202395666437781
1580421641.46686,-0.843030441748684,0.211673151750972,-0.205325398641946
1580421641.47086,-0.820569161516747,0.122804608224612,-0.210208285648889
1580421641.47485,-0.815686274509805,0.0256351567864499,-0.209719996948195
1580421641.47884,-0.82545204852369,-0.0490730144197755,-0.215091172655832
1580421641.48284,-0.84596017395285,-0.111573968108644,-0.204348821240558
1580421641.48683,-0.874769207293813,-0.147219043259327,-0.186770428015564
1580421641.49082,-0.908949416342413,-0.161867704280155,-0.164797436484321
1580421641.49484,-0.94166475928893,-0.150148775463492,-0.141359578850995
1580421641.49884,-0.97584496833753,-0.10766765850309,-0.125246051728084
1580421641.50283,-1.0036774242771,-0.0573739223315783,-0.102296482795452
1580421641.50682,-1.01930266269932,-0.0100099183642328,-0.0939955748836496
1580421641.51082,-1.02809185931182,0.0319829098954756,-0.0817883573662925
1580421641.51481,-1.02613870450904,0.0646982528419926,-0.0783703364614325
1580421641.5188,-1.00465400167849,0.0783703364614325,-0.077393759060044
1580421641.5228,-0.972915236133364,0.0876478217746239,-0.0793469138628211
1580421641.52679,-0.973403524834058,0.0798352025635154,-0.0866712443732354
1580421641.53078,-0.89723048752575,0.073975738155184,-0.0803234912642097
1580421641.53478,-0.817151140611887,0.126710917830167,-0.0749523155565726
1580421641.53877,-1.06764324406805,0.213138017853055,-0.135011825741969
1580421641.54276,-0.953871976806287,0.000732433051041426,-0.101319905394064
1580421641.54676,-0.903578240634776,0.0383306630045013,-0.0827649347676811
1580421641.55075,-0.871351186388953,0.0192874036774242,-0.101808194094758
1580421641.55474,-0.88355840390631,0.0222171358815899,-0.101808194094758
1580421641.55874,-0.875257495994507,0.0256351567864499,-0.0905775539787896
1580421641.56273,-0.908461127641718,0.067139696345464,-0.0861829556725411
1580421641.56673,-0.896253910124361,0.0598153658350498,-0.0646982528419926
1580421641.57072,-0.911879148546578,0.0886243991760125,-0.0520027466239412
1580421641.57471,-0.921644922560464,0.0729991607537954,-0.0407721065079727
1580421641.5787,-0.93482871747921,0.0788586251621268,-0.0319829098954756
1580421641.58269,-0.94508278019379,0.0847180895704582,-0.0280766002899213
1580421641.58669,-0.95533684290837,0.0944838635843439,-0.0207522697795071
1580421641.59068,-0.953383688105593,0.10766765850309,-0.0207522697795071
1580421641.59467,-0.95191882200351,0.125734340428778,-0.0280766002899213
1580421641.59867,-0.943129625391013,0.146730754558632,-0.0368657969024184
1580421641.60266,-0.940199893186847,0.172610055695429,-0.0451667048142212
1580421641.60665,-0.932387273975738,0.196047913328755,-0.0612802319371326
1580421641.61065,-0.93141069657435,0.221927214465552,-0.073975738155184
1580421641.61464,-0.930434119172961,0.238529030289158,-0.0988784618905925
1580421641.61863,-0.93824673838407,0.24682993820096,-0.122804608224612
1580421641.62263,-0.947035934996567,0.249759670405126,-0.138918135347524
1580421641.62662,-0.960219729915313,0.249271381704432,-0.165774013885709
1580421641.63062,-0.96900892652781,0.242435339894712,-0.190188448920424
1580421641.63461,-0.976821545738918,0.230716411078049,-0.214114595254443
1580421641.6386,-0.984634164950027,0.216556038757915,-0.218509193560692
1580421641.6426,-0.99635309376669,0.201907377737086,-0.203860532539863
1580421641.64659,-1.00856031128405,0.189211871519035,-0.176028076600289
1580421641.65058,-1.0300450141146,0.174074921797512,-0.145754177157244
1580421641.65457,-1.04518196383612,0.148683909361409,-0.12475776302739
1580421641.65857,-1.05592431525139,0.11792172121767,-0.0983901731898982
1580421641.66256,-1.06715495536736,0.0788586251621268,-0.0715342946517126
1580421641.66655,-1.08033875028611,0.0383306630045013,-0.0324711985961699
1580421641.67054,-1.08863965819791,-0.00317387655451284,0.0173342488746471
1580421641.67454,-1.09449912260624,-0.0461432822156098,0.0861829556725411
1580421641.67853,-1.10865949492637,-0.0813000686655982,0.175539787899595
1580421641.68253,-1.12574959945067,-0.107179369802395,0.258060578316929
1580421641.68652,-1.15162890058747,-0.129152361333638,0.317143511100937
1580421641.69051,-1.17848477912566,-0.139894712748912,0.358159761959257
1580421641.69451,-1.20680552376593,-0.150637064164187,0.387945372701608
1580421641.6985,-1.22487220569161,-0.152101930266269,0.402594033722437
1580421641.70249,-1.24147402151522,-0.141847867551689,0.408941786831463
1580421641.70649,-1.25416952773327,-0.12475776302739,0.396246280613411
1580421641.71048,-1.26393530174716,-0.110597390707255,0.362554360265506
1580421641.71447,-1.27516594186313,-0.103761348897535,0.292729076066223
1580421641.71847,-1.2863965819791,-0.105226214999618,0.211673151750972
1580421641.72246,-1.28834973678187,-0.106691081101701,0.132570382238498
1580421641.72645,-1.28444342717632,-0.11108567940795,0.0700694285496297
1580421641.73045,-1.28346684977493,-0.10766765850309,0.0349126420996413
1580421641.73447,-1.28493171587701,-0.0925307087815668,0.0183108262760356
1580421641.73846,-1.28932631418326,-0.0729991607537954,0.0163576714732585
1580421641.74245,-1.29811551079576,-0.0476081483176927,0.0192874036774242
1580421641.74645,-1.30397497520409,-0.0173342488746471,0.0358892195010299
1580421641.75044,-1.31325246051728,0.0134279392690928,0.0524910353246355
1580421641.75443,-1.32350652323186,0.0383306630045013,0.0744640268558783
1580421641.75843,-1.32985427634089,0.0490730144197755,0.099855039291981
1580421641.76242,-1.33376058594644,0.0490730144197755,0.120363164721141
1580421641.76641,-1.33669031815061,0.0397955291065841,0.143312733653772
1580421641.77041,-1.34254978255894,0.0285648889906156,0.167727168688486
1580421641.7744,-1.34450293736172,0.0192874036774242,0.187258716716258
1580421641.77839,-1.35280384527352,0.00854505226214997,0.219974059662775
1580421641.78239,-1.36012817578393,-0.00415045395590141,0.241947051194018
1580421641.78638,-1.36598764019226,-0.0173342488746471,0.254642557412069
1580421641.79037,-1.3796597238117,-0.0432135500114441,0.260990310521095
1580421641.79437,-1.40212100404364,-0.0559090562294955,0.275638971541923
1580421641.79836,-1.4309300373846,-0.0588387884336612,0.30835431448844
1580421641.80236,-1.46852826733806,-0.044678416113527,0.348882276646066
1580421641.80635,-1.50905622949569,-0.0178225375753414,0.416754406042571
1580421641.81034,-1.53786526283665,0.00561532005798426,0.468513008316165
1580421641.81433,-1.55202563515679,0.0266117341878385,0.510017547875183
1580421641.81832,-1.54177157244221,0.0319829098954756,0.51197070267796
1580421641.82232,-1.51735713740749,0.0168459601739528,0.515877012283514
1580421641.82631,-1.48513008316167,-0.0153810940718699,0.519783321889069
1580421641.8303,-1.44557869840543,-0.070557717250324,0.517830167086291
1580421641.8343,-1.40260929274434,-0.136476691844052,0.485114824139771
1580421641.83829,-1.36501106279088,-0.194094758525978,0.433356221866177
1580421641.84228,-1.31471732661936,-0.240482185091935,0.392828259708551
1580421641.84628,-1.25270466163119,-0.292240787365531,0.337651636530097
1580421641.85027,-1.20192263675898,-0.334233615625239,0.293705653467612
1580421641.85427,-1.19313344014649,-0.354741741054399,0.283451590753032
1580421641.85826,-1.22340733958953,-0.36401922636759,0.270267795834286
1580421641.86225,-1.25905241474022,-0.381597619592585,0.220462348363469
1580421641.86625,-1.28932631418326,-0.395269703212024,0.114991989013504
1580421641.87024,-1.32448310063325,-0.376226443884947,-0.00317387655451284
1580421641.87423,-1.3718471046006,-0.31958495460441,-0.110597390707255
1580421641.87823,-1.43923094529641,-0.229251544975966,-0.237064164187075
1580421641.88222,-1.49782558937972,-0.129640650034332,-0.381597619592585
1580421641.88621,-1.53249408712901,-0.0314946211947813,-0.547127489127947
1580421641.89021,-1.53688868543526,0.0642099641412983,-0.695078965438315
1580421641.89419,-1.53005264362554,0.158449683375295,-0.808850232700085
1580421641.89819,-1.51540398260471,0.252689402609292,-0.91773861295491
1580421641.90218,-1.50759136339361,0.3630426489662,-1.03443961242084
1580421641.90618,-1.508567940795,0.495368886854351,-1.13063248645762
1580421641.91017,-1.50612649729152,0.642343785763334,-1.16969558251316
1580421641.91416,-1.50417334248875,0.77076371404593,-1.12184328984512
1580421641.91816,-1.50075532158389,0.854261081864653,-0.983169298847944
1580421641.92215,-1.50075532158389,0.865491721980622,-0.816662851911193
1580421641.92614,-1.49831387808042,0.778088044556345,-0.669687953002212
1580421641.93014,-1.5080796520943,0.60767528801404,-0.557869840543221
1580421641.93413,-1.5339589532311,0.409918364232851,-0.482673380636301
1580421641.93812,-1.57692835889219,0.218509193560692,-0.43237964446479
1580421641.94212,-1.63698786907759,0.0441901274128327,-0.391851682307164
1580421641.94611,-1.69118791485466,-0.108155947203784,-0.356206607156482
1580421641.9501,-1.71364919508659,-0.231204699778743,-0.324956130312048
1580421641.9541,-1.70778973067826,-0.321049820706493,-0.285893034256505
1580421641.95809,-1.69558251316091,-0.375738155184253,-0.232181277180132
1580421641.96209,-1.67605096513313,-0.41528953994049,-0.178957808804455
1580421641.96608,-1.63991760128176,-0.429938200961319,-0.134523537041275
1580421641.97007,-1.59694819562066,-0.431403067063401,-0.099855039291981
1580421641.97409,-1.55349050125887,-0.416754406042573,-0.0783703364614325
1580421641.97808,-1.51052109559777,-0.384039063096056,-0.0837415121690697
1580421641.98208,-1.47682917524987,-0.34009308003357,-0.106202792401007
1580421641.98607,-1.45143816281376,-0.284916456855116,-0.140383001449607
1580421641.99006,-1.43385976958877,-0.236087586785686,-0.174563210498206
1580421641.99406,-1.40993362325475,-0.192141603723201,-0.210696574349583
1580421641.99805,-1.38551918822004,-0.156008239871824,-0.237552452887769
1580421642.00204,-1.35182726787213,-0.130617227435721,-0.271732661936371
1580421642.00604,-1.31422903791867,-0.11108567940795,-0.296635385671779
1580421642.01003,-1.27174792095827,-0.102784771496147,-0.319096665903716
1580421642.01402,-1.22389562829023,-0.0993667505912867,-0.339116502632182
1580421642.01802,-1.17848477912566,-0.10424963759823,-0.355230029755093
1580421642.02201,-1.14674601358053,-0.116456855115587,-0.356206607156482
1580421642.02601,-1.10328831921874,-0.119874876020447,-0.358159761959259
1580421642.03,-1.072526131075,-0.12475776302739,-0.358648050659953
1580421642.03399,-1.04469367513542,-0.120363164721141,-0.346440833142596
1580421642.03799,-1.01539635309377,-0.105714503700312,-0.339116502632182
1580421642.04198,-0.984145876249332,-0.0886243991760125,-0.328862439917602
1580421642.04597,-0.95191882200351,-0.0700694285496297,-0.315678644998856
1580421642.04997,-0.909925993743801,-0.0520027466239412,-0.305424582284276
1580421642.05395,-0.868909742885482,-0.0231937132829785,-0.293705653467613
1580421642.05795,-0.82203402761883,-0.00903334096284425,-0.286381322957199
1580421642.06194,-0.775646601052873,0.0104982070649271,-0.285404745555811
1580421642.06593,-0.725841153582055,0.0246585793850613,-0.283939879453728
1580421642.06993,-0.679942015716792,0.0407721065079727,-0.285893034256505
1580421642.07392,-0.634531166552224,0.0505378805218584,-0.291264209964142
1580421642.07792,-0.587655451285572,0.0559090562294955,-0.303471427481499
1580421642.08191,-0.54517433432517,0.0573739223315783,-0.316655222400245
1580421642.0859,-0.505134660868238,0.0510261692225527,-0.33325703822385
1580421642.0899,-0.469001297016861,0.0383306630045013,-0.35034714274815
1580421642.09389,-0.430426489662013,0.0236820019836728,-0.378179598687725
1580421642.09788,-0.394293125810636,0.00415045395590141,-0.410894941634242
1580421642.10188,-0.359136339360647,-0.0202639810788128,-0.443121995880064
1580421642.10587,-0.321538109407188,-0.0373540856031127,-0.467536430914778
1580421642.10986,-0.289311055161365,-0.0529793240253298,-0.486091401541161
1580421642.11386,-0.254642557412071,-0.0681162737468526,-0.508552681773098
1580421642.11785,-0.218020904859998,-0.0847180895704582,-0.519783321889067
1580421642.12184,-0.193118181124589,-0.0988784618905925,-0.53150225070573
1580421642.12584,-0.170168612191958,-0.106202792401007,-0.542244602121004
1580421642.12983,-0.153078507667658,-0.108644235904478,-0.554940108339055
1580421642.13385,-0.144777599755855,-0.106691081101701,-0.561287861448081
1580421642.13784,-0.138918135347524,-0.0944838635843439,-0.55542839703975
1580421642.14184,-0.135500114442664,-0.0725108720531011,-0.553963530937667
1580421642.14583,-0.133546959639887,-0.0427252613107498,-0.548104066529335
1580421642.14982,-0.132082093537804,-0.00659189745937283,-0.557381551842527
1580421642.15382,-0.134523537041275,0.0373540856031127,-0.566659037155718
1580421642.15781,-0.137453269245441,0.0832532234683754,-0.561776150148775
1580421642.1618,-0.142824444953078,0.116456855115587,-0.541268024719615
1580421642.1658,-0.160402838178072,0.118410009918364,-0.497810330357824
1580421642.16979,-0.183840695811398,0.0954604409857325,-0.433844510566873
1580421642.17378,-0.215579461356526,0.0529793240253298,-0.34009308003357
1580421642.17778,-0.256595712214848,0.0231937132829785,-0.212161440451666
1580421642.18177,-0.320073243305105,0.00805676356145568,-0.0769054703593497
1580421642.18577,-0.413336385137713,0.00415045395590141,0.0622568093385212
1580421642.18976,-0.536873426413367,0.0109864957656214,0.192629892423895
1580421642.19375,-0.668711375600823,0.0261234454871442,0.312748912794689
1580421642.19775,-0.797131303883422,0.024170290684367,0.418219272144654
1580421642.20174,-0.915785458152133,0.00659189745937283,0.511482413977266
1580421642.20573,-1.00611886778058,-0.0314946211947813,0.602304112306403
1580421642.20973,-1.06666666666667,-0.0974135957885096,0.688731212329291
1580421642.21371,-1.11061264972915,-0.174074921797512,0.764904249637599
1580421642.21771,-1.13795681696803,-0.255130846112765,0.855725947966736
1580421642.2217,-1.16920729381247,-0.315190356298162,0.960219729915313
1580421642.22569,-1.23659113450828,-0.351323720149539,1.09645227740902
1580421642.22969,-1.3205767910277,-0.364507515068285,1.243427176318
1580421642.23368,-1.40505073624781,-0.388433661402305,1.42653543907835
1580421642.23767,-1.46999313344015,-0.423590447852293,1.62331578545815
1580421642.24167,-1.50661478599222,-0.463630121309224,1.77468528267338
1580421642.24566,-1.53493553063249,-0.460700389105059,1.85281147478447
1580421642.24966,-1.55397878995956,-0.395269703212024,1.7898222323949
1580421642.25365,-1.5593499656672,-0.293217364766919,1.58083466849775
1580421642.25764,-1.53298237582971,-0.146730754558632,1.28639658197909
1580421642.26164,-1.46218051422904,0.0251468680857556,0.959243152513924
1580421642.26563,-1.35085069047074,0.166750591287098,0.637460898756391
1580421642.26962,-1.19899290455482,0.223880369268329,0.361577782864117
1580421642.27362,-1.05690089265278,0.172121766994735,0.152101930266269
1580421642.27761,-0.952407110704204,0.0856946669718468,0.031006332494087
1580421642.2816,-0.884046692607004,-0.0217288471808956,-0.00952162966353853
1580421642.2856,-0.874280918593119,-0.10766765850309,0.0124513618677042
1580421642.28959,-0.915785458152133,-0.149660486762798,0.103761348897535
1580421642.29358,-0.970473792629893,-0.150148775463492,0.219485770962081
1580421642.29757,-1.01393148699168,-0.12133974212253,0.329839017318989
1580421642.30157,-1.03395132372015,-0.0949721522850382,0.423102159151597
1580421642.30556,-1.04029907682918,-0.0754406042572668,0.493904020752268
1580421642.30955,-1.02223239490349,-0.0529793240253298,0.549080643930726
1580421642.31355,-0.985610742351415,-0.0358892195010299,0.552498664835586
1580421642.31754,-0.942153047989624,-0.0197756923781185,0.55298695353628
1580421642.32153,-0.930434119172961,0.00805676356145568,0.690196078431374
1580421642.32553,-0.989028763256275,0.0349126420996413,0.913832303349356
1580421642.32952,-1.06569008926528,0.0622568093385212,1.07447928587777
1580421642.33351,-1.09742885481041,0.0856946669718468,1.11989013504234
1580421642.33751,-1.10035858701457,0.096437018387121,1.05104142824445
1580421642.3415,-1.0891279468986,0.102784771496147,0.869398031586176
1580421642.34549,-1.04322880903334,0.130128938735027,0.588632028686963
1580421642.34949,-0.975356679636835,0.163820859082932,0.237064164187075
1580421642.35348,-0.913344014648661,0.180422674906538,-0.133058670939192
1580421642.35748,-0.897718776226444,0.174074921797512,-0.445075150682841
1580421642.36147,-0.94166475928893,0.190188448920424,-0.634531166552224
1580421642.36546,-1.0041657129778,0.2605020218204,-0.666269932097352
1580421642.36945,-1.04176394293126,0.36646066987106,-0.603768978408484
1580421642.37347,-1.072526131075,0.451422903791865,-0.531013962005035
1580421642.37747,-1.08522163729305,0.423102159151597,-0.462653543907836
1580421642.38146,-1.09987029831388,0.168703746089875,-0.372320134279393
1580421642.38545,-1.18092622262913,-0.269291218432899,-0.213138017853055
1580421642.38945,-1.28834973678187,-0.616464484626535,0.0319829098954756
1580421642.39344,-1.36354619668879,-0.623300526436255,0.31860837720302
1580421642.39743,-1.46169222552834,-0.41528953994049,0.534920271610591
1580421642.40143,-1.59255359731441,-0.177492942702372,0.5769130998703
1580421642.40542,-1.68239871824216,-0.0358892195010299,0.430914778362705
1580421642.40942,-1.64968337529564,-0.0622568093385212,0.155519951171129
1580421642.41341,-1.50759136339361,-0.226810101472495,-0.0983901731898982
1580421642.4174,-1.3034866865034,-0.40503547722591,-0.252689402609294
1580421642.4214,-1.07399099717708,-0.496345464255741,-0.34351110093843
1580421642.42539,-0.857190814068819,-0.492927443350881,-0.384039063096056
1580421642.42938,-0.696543831540398,-0.418219272144656,-0.396734569314107
1580421642.43338,-0.582772564278629,-0.298100251773862,-0.388433661402305
1580421642.43737,-0.53833829251545,-0.169680323491264,-0.364995803768979
1580421642.44136,-0.543221179522392,-0.044678416113527,-0.347905699244679
1580421642.44536,-0.576913099870298,0.0666514076447697,-0.361577782864119
1580421642.44935,-0.614999618524452,0.174074921797512,-0.441657129777981
1580421642.45334,-0.637460898756389,0.275638971541923,-0.592538338292515
1580421642.45733,-0.642832074464026,0.361089494163423,-0.750743877317465
1580421642.46132,-0.650644693675135,0.421637293049514,-0.82545204852369
1580421642.46532,-0.686778057526512,0.470954451819637,-0.789806973373008
1580421642.46931,-0.775158312352179,0.54615091172656,-0.690196078431372
1580421642.47331,-0.895277332722973,0.661875333791105,-0.56226443884947
1580421642.4773,-1.04615854123751,0.819104295414665,-0.445563439383536
1580421642.48129,-1.19362172884718,0.981704432745861,-0.379156176089113
1580421642.48529,-1.2863965819791,1.06813153276875,-0.354741741054399
1580421642.48928,-1.337666895552,1.00172426947433,-0.361089494163425
1580421642.49327,-1.33376058594644,0.799084458686199,-0.352300297550928
1580421642.49727,-1.32692454413672,0.570565346761274,-0.317631799801633
1580421642.50126,-1.32545967803464,0.403082322423131,-0.277103837644008
1580421642.50525,-1.32643625543603,0.300053406576637,-0.240970473792629
1580421642.50925,-1.31520561532006,0.223392080567635,-0.222415503166246
1580421642.51324,-1.27125963225757,0.149660486762798,-0.218997482261386
1580421642.51723,-1.21657129777981,0.0900892652780954,-0.218509193560692
1580421642.52123,-1.15602349889372,0.0563973449301898,-0.197512779430838
1580421642.52522,-1.09645227740902,0.0515144579232469,-0.165285725185015
1580421642.52921,-1.04811169604028,0.0471198596169984,-0.141847867551689
1580421642.5332,-1.00074769207294,0.0261234454871442,-0.135011825741969
1580421642.5372,-0.957289997711147,-0.0075684748607614,-0.133546959639887
1580421642.54119,-0.909437705043107,-0.0554207675288012,-0.152101930266269
1580421642.54518,-0.874769207293813,-0.106202792401007,-0.171145189593346
1580421642.54918,-0.845471885252156,-0.148683909361409,-0.177004654001678
1580421642.55317,-0.836682688639659,-0.172121766994735,-0.166750591287098
1580421642.55716,-0.844983596551462,-0.180422674906538,-0.150148775463492
1580421642.56116,-0.868421454184787,-0.173098344396124,-0.131105516136415
1580421642.56515,-0.893324177920196,-0.156496528572518,-0.118898298619058
1580421642.56914,-0.923598077363241,-0.135500114442664,-0.112062256809338
1580421642.57314,-0.947035934996567,-0.10083161669337,-0.112062256809338
1580421642.57713,-0.980239566643778,-0.0852063782711525,-0.122804608224612
1580421642.58113,-1.00953688868544,-0.0476081483176927,-0.115968566414892
1580421642.58512,-1.03688105592432,-0.0046387426565957,-0.115968566414892
1580421642.58911,-1.02809185931182,0.0354009308003356,-0.113038834210727
1580421642.5931,-1.02565041580835,0.0886243991760125,-0.113527122911421
1580421642.5971,-1.01930266269932,0.149660486762798,-0.115968566414892
1580421642.60109,-0.994888227664607,0.195071335927366,-0.113527122911421
1580421642.60509,-0.93141069657435,0.226810101472495,-0.112062256809338
1580421642.60908,-0.956801709010453,0.26733806363012,-0.126710917830167
1580421642.6131,-0.824475471122302,0.189700160219729,-0.122316319523918
1580421642.61709,-0.821057450217442,0.450934615091171,-0.126710917830167
1580421642.62108,-1.10572976272221,0.297611963073166,-0.228274967574578
1580421642.62508,-0.982192721446555,0.11108567940795,-0.163820859082932
1580421642.62907,-0.912367437247273,0.117433432516975,-0.156984817273212
1580421642.63306,-0.881605249103533,0.0856946669718468,-0.171145189593346
1580421642.63706,-0.905531395437553,0.0881361104753182,-0.167238879987792
1580421642.64105,-0.906996261539636,0.0852063782711525,-0.160891126878766
1580421642.64505,-0.917250324254216,0.0827649347676811,-0.153566796368352
1580421642.64904,-0.920180056458381,0.0764171816586554,-0.157473105973907
1580421642.65303,-0.930922407873656,0.0817883573662925,-0.146730754558632
1580421642.65703,-0.928969253070878,0.0891126878767068,-0.138918135347524
1580421642.66102,-0.92799267566949,0.0930189974822611,-0.122316319523918
1580421642.66501,-0.922133211261158,0.0910658426794839,-0.108644235904478
1580421642.66901,-0.91432059205005,0.0822766460669868,-0.0881361104753182
1580421642.673,-0.909925993743801,0.0700694285496297,-0.0666514076447697
1580421642.67699,-0.906996261539636,0.0588387884336612,-0.0529793240253298
1580421642.68099,-0.902113374532693,0.0539559014267184,-0.048096437018387
1580421642.68498,-0.896253910124361,0.0495613031204698,-0.048096437018387
1580421642.68897,-0.894789044022279,0.0544441901274126,-0.0607919432364383
1580421642.69296,-0.901625085831999,0.0588387884336612,-0.0798352025635154
1580421642.69696,-0.920180056458381,0.070557717250324,-0.102784771496147
1580421642.70095,-0.937758449683376,0.0900892652780954,-0.128664072632944
1580421642.70494,-0.955825131609064,0.106691081101701,-0.162844281681544
1580421642.70894,-0.968032349126421,0.120363164721141,-0.188723582818341
1580421642.71293,-0.968032349126421,0.125734340428778,-0.202883955138475
1580421642.71692,-0.97242694743267,0.123292896925307,-0.197512779430838
1580421642.72092,-0.982192721446555,0.107179369802395,-0.175051499198901
1580421642.72491,-1.00221255817502,0.0837415121690697,-0.139894712748912
1580421642.7289,-1.02516212710765,0.0520027466239412,-0.0920424200808725
1580421642.7329,-1.04322880903334,0.0163576714732585,-0.0290531776913099
1580421642.73689,-1.05690089265278,-0.0295414663920042,0.0373540856031127
1580421642.74088,-1.07057297627222,-0.0715342946517126,0.109620813305867
1580421642.74488,-1.08570992599374,-0.107179369802395,0.163332570382238
1580421642.74887,-1.09498741130693,-0.135011825741969,0.218020904859998
1580421642.75286,-1.11158922713054,-0.153566796368352,0.257572289616235
1580421642.75686,-1.11549553673609,-0.160891126878766,0.302983138780803
1580421642.76085,-1.12233157854581,-0.150637064164187,0.319096665903714
1580421642.76484,-1.13356221866178,-0.133546959639887,0.344487678339817
1580421642.76884,-1.14674601358053,-0.113038834210727,0.357183184557869
1580421642.77286,-1.16676585030899,-0.0969253070878153,0.359136339360646
1580421642.77685,-1.18727397573815,-0.0793469138628211,0.3630426489662
1580421642.78084,-1.20827038986801,-0.0510261692225527,0.35278858625162
1580421642.78484,-1.22829022659647,-0.024170290684367,0.33569848172732
1580421642.78883,-1.2517280842298,-0.00268558785381856,0.313237201495383
1580421642.79282,-1.27125963225757,0.01196307316701,0.289799343862057
1580421642.79682,-1.29030289158465,0.0158693827725642,0.260990310521095
1580421642.80081,-1.30641641870756,0.00952162966353853,0.218997482261386
1580421642.80481,-1.31520561532006,0.00512703135728998,0.177981231403066
1580421642.8088,-1.31862363622492,0.0134279392690928,0.156496528572518
1580421642.81279,-1.31569390402075,0.0334477759975584,0.159914549477378
1580421642.81679,-1.30934615091173,0.0632333867399097,0.172610055695429
1580421642.82078,-1.30543984130617,0.0949721522850382,0.192141603723201
1580421642.82477,-1.30055695429923,0.115480277714198,0.208743419546806
1580421642.82877,-1.29958037689784,0.124269474326695,0.208255130846112
1580421642.83276,-1.29762722209506,0.119386587319752,0.206790264744029
1580421642.83675,-1.30104524299992,0.107179369802395,0.207278553444723
1580421642.84075,-1.30592813000687,0.0896009765774011,0.206790264744029
1580421642.84474,-1.31618219272145,0.067139696345464,0.206790264744029
1580421642.84873,-1.3283894102388,0.0422369726100555,0.204348821240558
1580421642.85272,-1.34694438086519,0.0207522697795071,0.193118181124589
1580421642.85671,-1.36110475318532,0.00610360875867855,0.178469520103761
1580421642.86071,-1.37526512550546,0.0104982070649271,0.153566796368352
1580421642.8647,-1.40798046845197,0.0271000228885327,0.150637064164187
1580421642.8687,-1.44362554360266,0.0632333867399097,0.168703746089875
1580421642.87269,-1.49343099107347,0.114015411612115,0.220462348363469
1580421642.87668,-1.5334706645304,0.163820859082932,0.278568703746089
1580421642.88068,-1.55202563515679,0.200442511635003,0.334233615625237
1580421642.88467,-1.55886167696651,0.212649729152361,0.364507515068283
1580421642.88866,-1.55593194476234,0.196536202029449,0.36987869077592
1580421642.89266,-1.53493553063249,0.145265888456549,0.348393987945371
1580421642.89665,-1.50417334248875,0.0803234912642097,0.306401159685663
1580421642.90064,-1.46657511253529,0.0192874036774242,0.230228122377355
1580421642.90464,-1.42946517128252,-0.0217288471808956,0.168215457389181
1580421642.90863,-1.40505073624781,-0.060303654535744,0.153078507667658
1580421642.91262,-1.38258945601587,-0.099855039291981,0.153566796368352
1580421642.91662,-1.35719844357977,-0.157961394674601,0.147707331960021
1580421642.92061,-1.32741283283742,-0.225345235370412,0.117433432516975
1580421642.9246,-1.30543984130617,-0.296147096971085,0.0764171816586554
1580421642.9286,-1.29225604638743,-0.345464255741208,0.041260395208667
1580421642.93259,-1.28834973678187,-0.373296711680782,-0.00366216525520713
1580421642.93658,-1.30495155260548,-0.377203021286336,-0.0725108720531011
1580421642.94057,-1.34157320515755,-0.364995803768979,-0.142336156252384
1580421642.94457,-1.39577325093462,-0.345952544441902,-0.218020904859998
1580421642.94856,-1.4572976272221,-0.312748912794691,-0.285893034256505
1580421642.95255,-1.48952468146792,-0.280033569848174,-0.34692912184329
1580421642.95655,-1.50563820859083,-0.233646143282215,-0.417242694743267
1580421642.96054,-1.50905622949569,-0.165285725185015,-0.505134660868238
1580421642.96453,-1.4997787441825,-0.0783703364614325,-0.610605020218204
1580421642.96853,-1.49587243457694,0.0173342488746471,-0.711192492561226
1580421642.97252,-1.50612649729152,0.117433432516975,-0.79127183947509
1580421642.97651,-1.52712291142138,0.201419089036392,-0.864515144579233
1580421642.98051,-1.55788509956512,0.272709239337757,-0.928969253070878
1580421642.9845,-1.57839322499428,0.331792172121766,-0.980239566643778
1580421642.98849,-1.56862745098039,0.375249866483557,-1.00856031128405
1580421642.99249,-1.53298237582971,0.381109330891888,-1.01686121919585
1580421642.99648,-1.49245441367208,0.348393987945371,-0.985610742351415
1580421643.00048,-1.47145799954223,0.291752498664835,-0.92457465476463
1580421643.00447,-1.47243457694362,0.208743419546806,-0.826428625925079
1580421643.00846,-1.50612649729152,0.115480277714198,-0.707286182955672
1580421643.01248,-1.56569771877623,0.0134279392690928,-0.579842832074464
1580421643.01647,-1.61745632104982,-0.0827649347676811,-0.466071564812696
1580421643.02047,-1.6448004882887,-0.145754177157244,-0.384039063096056
1580421643.02446,-1.65700770580606,-0.161379415579461,-0.324956130312048
1580421643.02846,-1.66384374761578,-0.154543373769741,-0.278568703746091
1580421643.03245,-1.65944914930953,-0.126222629129472,-0.239505607690546
1580421643.03644,-1.63991760128176,-0.104737926298924,-0.207278553444723
1580421643.04044,-1.61257343404288,-0.0832532234683754,-0.174074921797512
1580421643.04443,-1.58132295719844,-0.0651865415426869,-0.156008239871824
1580421643.04842,-1.54763103685054,-0.0544441901274126,-0.151125352864881
1580421643.05242,-1.5168688487068,-0.0524910353246355,-0.149660486762798
1580421643.05641,-1.48805981536584,-0.0573739223315783,-0.156984817273212
1580421643.0604,-1.45387960631724,-0.0666514076447697,-0.167727168688486
1580421643.0644,-1.42214084077211,-0.0852063782711525,-0.182375829709315
1580421643.06839,-1.38796063172351,-0.112550545510032,-0.208255130846112
1580421643.07238,-1.35573357747768,-0.134035248340581,-0.234134431982909
1580421643.07638,-1.31276417181659,-0.145265888456549,-0.262943465323874
1580421643.08037,-1.27809567406729,-0.159426260776684,-0.293705653467613
1580421643.08436,-1.23805600061036,-0.164797436484321,-0.307866025787748
1580421643.08836,-1.19362172884718,-0.172610055695429,-0.318608377203022
1580421643.09235,-1.14625772487983,-0.170656900892652,-0.32300297550927
1580421643.09634,-1.09938200961318,-0.169680323491264,-0.317143511100939
1580421643.10033,-1.06324864576181,-0.164797436484321,-0.309819180590525
1580421643.10433,-1.02223239490349,-0.156984817273212,-0.299076829175251
1580421643.10832,-0.986587319752804,-0.144777599755855,-0.288334477759976
1580421643.11231,-0.954360265506981,-0.132082093537804,-0.277103837644008
1580421643.11631,-0.911390859845884,-0.117433432516975,-0.268802929732205
1580421643.1203,-0.866956588082704,-0.0979018844892039,-0.259525444419014
1580421643.12429,-0.829358358129245,-0.0856946669718468,-0.255130846112765
1580421643.12829,-0.797131303883422,-0.0686045624475469,-0.254154268711376
1580421643.13228,-0.753185320820936,-0.0573739223315783,-0.251712825207905
1580421643.13627,-0.720958266575112,-0.0451667048142212,-0.252689402609294
1580421643.14027,-0.685313191424429,-0.0388189517051956,-0.258060578316931
1580421643.14426,-0.646738384069581,-0.0319829098954756,-0.265384908827345
1580421643.14825,-0.613046463721675,-0.0280766002899213,-0.274662394140536
1580421643.15225,-0.578377965972381,-0.0236820019836728,-0.289311055161365
1580421643.15624,-0.546150911726558,-0.0183108262760356,-0.302006561379416
1580421643.16024,-0.510017547875181,-0.0158693827725642,-0.312260624093996
1580421643.16423,-0.46655985351339,-0.0163576714732585,-0.328374151216908
1580421643.16822,-0.42896162355993,-0.0183108262760356,-0.34009308003357
1580421643.17221,-0.385992217898833,-0.0187991149767299,-0.356206607156482
1580421643.1762,-0.343999389639125,-0.0231937132829785,-0.37769130998703
1580421643.1802,-0.308842603189136,-0.0231937132829785,-0.395757991912719
1580421643.18419,-0.274662394140536,-0.0192874036774242,-0.416266117341879
1580421643.18818,-0.23315785458152,-0.0158693827725642,-0.438727397573816
1580421643.19218,-0.199954222934309,-0.0148928053711757,-0.46655985351339
1580421643.19617,-0.169192034790569,-0.00903334096284425,-0.494392309452964
1580421643.20017,-0.141847867551689,-0.00561532005798426,-0.523201342793927
1580421643.20416,-0.120851453421835,-0.00122072175173571,-0.556893263141832
1580421643.20815,-0.107179369802395,0.0129396505683985,-0.581307698176547
1580421643.21214,-0.0983901731898982,0.0314946211947813,-0.602792401007095
1580421643.21614,-0.0983901731898982,0.0593270771343555,-0.627695124742504
1580421643.22013,-0.0979018844892039,0.0910658426794839,-0.654551003280689
1580421643.22413,-0.100343327992675,0.121828030823224,-0.683360036621652
1580421643.22812,-0.104737926298924,0.159914549477378,-0.71509880216678
1580421643.23211,-0.106691081101701,0.199954222934309,-0.743907835507743
1580421643.23611,-0.109620813305867,0.229739833676661,-0.772716868848708
1580421643.2401,-0.115968566414892,0.242435339894712,-0.794201571679256
1580421643.24409,-0.12475776302739,0.236087586785686,-0.780041199359122
1580421643.24809,-0.136964980544747,0.202883955138475,-0.726817730983443
1580421643.2521,-0.164797436484321,0.168703746089875,-0.639414053559166
1580421643.2561,-0.200930800335698,0.152101930266269,-0.497810330357824
1580421643.26009,-0.269779507133594,0.155031662470435,-0.326909285114825
1580421643.26409,-0.35718318455787,0.179934386205844,-0.135500114442664
1580421643.26808,-0.460700389105059,0.212161440451666,0.0563973449301898
1580421643.27207,-0.593026626993209,0.238040741588463,0.232669565880826
1580421643.27607,-0.736583504997329,0.249759670405126,0.395269703212023
1580421643.28006,-0.879652094300756,0.237064164187075,0.531990539406426
1580421643.28405,-1.00563057907988,0.189700160219729,0.636484321355002
1580421643.28805,-1.10084687571527,0.108644235904478,0.710704203860534
1580421643.29204,-1.15651178759441,-0.0129396505683985,0.77418173495079
1580421643.29603,-1.18922713054093,-0.189211871519035,0.829846646829939
1580421643.30003,-1.25465781643397,-0.37427328908217,0.888441290913253
1580421643.30402,-1.36208133058671,-0.532478828107118,0.950942244602121
1580421643.30801,-1.50026703288319,-0.627206836041809,1.00318913557641
1580421643.31201,-1.60573739223316,-0.613534752422369,1.0642252231632
1580421643.316,-1.70339513237201,-0.47681391622797,1.31667048142214
1580421643.31999,-1.81423666742962,-0.327397573815519,1.79324025329976
1580421643.32399,-1.88650339513237,-0.238529030289158,2.19607843137255
1580421643.32798,-1.86550698100252,-0.200442511635003,2.27957579919127
1580421643.33197,-1.76736095216297,-0.215091172655832,2.05935759517815
1580421643.33596,-1.61306172274357,-0.254642557412071,1.7390402075227
1580421643.33996,-1.44313725490196,-0.265873197528039,1.40944533455405
1580421643.34395,-1.24977492942702,-0.265384908827345,1.07350270847639
1580421643.34794,-1.08473334859235,-0.286381322957199,0.772228580148013
1580421643.35194,-0.950453955901427,-0.339604791332876,0.536385137712674
1580421643.35593,-0.864026855878539,-0.419195849546044,0.372808422980086
1580421643.35992,-0.824963759822996,-0.49048599984741,0.282963302052337
1580421643.36392,-0.831799801632716,-0.550057221332112,0.25024795910582
1580421643.36791,-0.897718776226444,-0.582772564278629,0.246341649500266
1580421643.3719,-1.01344319829099,-0.566659037155718,0.3117723353933
1580421643.3759,-1.16090638590066,-0.514900434882124,0.420172426947431
1580421643.37989,-1.32106507972839,-0.453864347295339,0.509040970473794
1580421643.38388,-1.42848859388113,-0.406012054627299,0.537850003814757
1580421643.38788,-1.49050125886931,-0.38110933089189,0.502204928664074
1580421643.39187,-1.52321660181582,-0.37085526817731,0.419195849546043
1580421643.39587,-1.5422598611429,-0.36743724727245,0.34253452353704
1580421643.39986,-1.56520943007553,-0.327885862516213,0.307377737087052
1580421643.40385,-1.61257343404288,-0.256107423514154,0.388433661402303
1580421643.40785,-1.63161669336995,-0.169192034790569,0.605233844510568
1580421643.41186,-1.62233920805676,-0.0778820477607383,0.859143968871596
1580421643.41586,-1.51052109559777,-0.0148928053711757,1.05299458304723
1580421643.41985,-1.2771190966659,-0.0251468680857556,1.15651178759441
1580421643.42384,-1.02418554970626,-0.0686045624475469,1.09108110170138
1580421643.42784,-0.884534981307699,-0.0871595330739297,0.643320363164722
1580421643.43183,-0.741954680704966,-0.0891126878767068,-0.0173342488746471
1580421643.43583,-0.638925764858472,-0.0749523155565726,-0.583749141680018
1580421643.43982,-0.614511329823758,-0.0305180437933927,-0.888441290913253
1580421643.44381,-0.641855497062638,0.0100099183642328,-0.91090257114519
1580421643.44781,-0.666269932097352,0.0217288471808956,-0.798596169985505
1580421643.4518,-0.651132982375829,0.0456549935149155,-0.663340199893186
1580421643.45579,-0.623300526436255,0.0490730144197755,-0.51783016708629
1580421643.45979,-0.634531166552224,0.0173342488746471,-0.398687724116884
1580421643.46378,-0.731212329289692,-0.0534676127260241,-0.268802929732205
1580421643.46777,-0.882093537804227,-0.060303654535744,-0.124269474326695
1580421643.47177,-1.06178377965972,0.0842298008697639,0.0168459601739528
1580421643.47576,-1.26393530174716,0.372320134279391,0.0827649347676811
1580421643.47975,-1.43044174868391,0.640878919661251,-0.0305180437933927
1580421643.48375,-1.44899671931029,0.705333028152896,-0.328862439917602
1580421643.48774,-1.33864347295338,0.561287861448083,-0.604257267109178
1580421643.49173,-1.18971541924163,0.334721904325932,-0.726817730983443
1580421643.49572,-1.05494773785,0.171145189593346,-0.716563668268863
1580421643.49972,-0.95533684290837,0.153078507667658,-0.623300526436255
1580421643.50371,-0.906996261539636,0.249759670405126,-0.542732890821698
1580421643.5077,-0.881605249103533,0.379156176089111,-0.509040970473793
1580421643.5117,-0.885511558709087,0.478278782330051,-0.52466620889601
1580421643.51569,-0.894300755321584,0.525154497596706,-0.560799572747387
1580421643.51968,-0.901136797131304,0.519783321889069,-0.610605020218204
1580421643.52368,-0.889417868314641,0.478278782330051,-0.655527580682078
1580421643.52767,-0.859143968871596,0.409430075532157,-0.672617685206378
1580421643.53166,-0.828381780727856,0.341069657434957,-0.640390630960555
1580421643.53566,-0.813733119707027,0.303471427481497,-0.566170748455024
1580421643.53965,-0.817151140611887,0.306889448386357,-0.494880598153658
1580421643.54364,-0.835217822537576,0.345464255741206,-0.460700389105059
1580421643.54764,-0.877210650797284,0.398687724116883,-0.453376058594644
1580421643.55163,-0.947035934996567,0.438727397573814,-0.44605172808423
1580421643.55563,-1.03932249942779,0.457282368200197,-0.416754406042573
1580421643.55962,-1.1403982604715,0.450446326390477,-0.37769130998703
1580421643.56361,-1.2263370717937,0.432379644464788,-0.331303883421073
1580421643.56761,-1.28542000457771,0.392828259708551,-0.294682230869002
1580421643.57159,-1.31764705882353,0.339604791332874,-0.248783093003738
1580421643.57559,-1.32692454413672,0.26392004272526,-0.213138017853055
1580421643.57958,-1.31374074921798,0.178469520103761,-0.186770428015564
1580421643.58357,-1.28200198367285,0.0905775539787896,-0.168703746089875
1580421643.58757,-1.22780193789578,0.00952162966353853,-0.161867704280155
1580421643.59156,-1.16090638590066,-0.044678416113527,-0.151125352864881
1580421643.59555,-1.09694056610971,-0.0817883573662925,-0.139406424048218
1580421643.59955,-1.03590447852293,-0.108644235904478,-0.12475776302739
1580421643.60354,-0.980239566643778,-0.133546959639887,-0.119874876020447
1580421643.60753,-0.935805294880598,-0.156496528572518,-0.116945143816281
1580421643.61153,-0.902113374532693,-0.179446097505149,-0.129640650034332
1580421643.61552,-0.875257495994507,-0.195559624628061,-0.140383001449607
1580421643.61952,-0.864515144579233,-0.196536202029449,-0.151125352864881
1580421643.62351,-0.857190814068819,-0.190676737621118,-0.153566796368352
1580421643.6275,-0.86305027847715,-0.171145189593346,-0.147219043259327
1580421643.6315,-0.87672236209659,-0.149172198062104,-0.134523537041275
1580421643.63549,-0.885511558709087,-0.119386587319752,-0.115480277714198
1580421643.63948,-0.930434119172961,-0.0925307087815668,-0.103761348897535
1580421643.64348,-0.954848554207675,-0.0520027466239412,-0.0910658426794839
1580421643.64747,-0.971450370031281,-0.0222171358815899,-0.077393759060044
1580421643.65155,-0.983657587548638,0.00952162966353853,-0.0778820477607383
1580421643.65554,-0.995864805065995,0.0427252613107498,-0.0749523155565726
1580421643.65954,-0.981216144045167,0.0642099641412983,-0.0681162737468526
1580421643.66353,-0.96559090562295,0.112062256809338,-0.0612802319371326
1580421643.66753,-0.983169298847944,0.159426260776684,-0.0651865415426869
1580421643.67152,-0.734142061493857,0.0349126420996413,-0.0305180437933927
1580421643.67551,-1.05397116044862,0.510505836575877,-0.0695811398489354
1580421643.67951,-1.12428473334859,0.197512779430838,-0.101319905394064
1580421643.6835,-0.970962081330587,0.116456855115587,-0.0202639810788128
1580421643.6875,-0.929945830472267,0.157473105973907,-0.0368657969024184
1580421643.69149,-0.909925993743801,0.125734340428778,-0.0524910353246355
1580421643.69548,-0.91773861295491,0.120851453421835,-0.0607919432364383
1580421643.69948,-0.956801709010453,0.132570382238498,-0.073975738155184
1580421643.70347,-0.951430533302815,0.117433432516975,-0.0690928511482412
1580421643.70747,-0.94166475928893,0.116945143816281,-0.0646982528419926
1580421643.71146,-0.924086366063936,0.109132524605172,-0.0642099641412983
1580421643.71545,-0.903578240634776,0.0983901731898982,-0.0632333867399097
1580421643.71945,-0.885999847409781,0.0959487296864268,-0.0686045624475469
1580421643.72344,-0.879652094300756,0.0930189974822611,-0.0729991607537954
1580421643.72744,-0.872327763790341,0.0979018844892039,-0.0744640268558783
1580421643.73135,-0.868421454184787,0.10083161669337,-0.0734874494544897
1580421643.73535,-0.86646829938201,0.112062256809338,-0.0700694285496297
1580421643.73934,-0.862561989776456,0.112062256809338,-0.073975738155184
1580421643.74333,-0.857190814068819,0.110109102006561,-0.0832532234683754
1580421643.74733,-0.850843060959793,0.0993667505912867,-0.115480277714198
1580421643.75132,-0.850354772259099,0.0861829556725411,-0.157473105973907
1580421643.75531,-0.850843060959793,0.0646982528419926,-0.200442511635003
1580421643.75931,-0.846936751354239,0.0388189517051956,-0.244388494697489
1580421643.7633,-0.844983596551462,0.0100099183642328,-0.273197528038454
1580421643.76729,-0.844007019150073,-0.0134279392690928,-0.282475013351645
1580421643.77129,-0.844495307850767,-0.031006332494087,-0.280521858548868
1580421643.77528,-0.844495307850767,-0.0363775082017241,-0.270267795834288
1580421643.77928,-0.84937819485771,-0.0402838178072784,-0.254642557412071
1580421643.78327,-0.859143968871596,-0.0397955291065841,-0.253177691309988
1580421643.78726,-0.87672236209659,-0.041260395208667,-0.259525444419014
1580421643.79126,-0.895765621423667,-0.0427252613107498,-0.257084000915542
1580421643.79525,-0.923598077363241,-0.041260395208667,-0.249759670405126
1580421643.79924,-0.957778286411841,-0.0427252613107498,-0.228274967574578
1580421643.80324,-0.990981918059052,-0.0432135500114441,-0.173098344396124
1580421643.80723,-1.02320897230488,-0.0285648889906156,-0.109620813305867
1580421643.81122,-1.05641260395209,-0.0124513618677042,-0.034424353398947
1580421643.81521,-1.07887388418402,0.01196307316701,0.0397955291065841
1580421643.81921,-1.08815136949721,0.0427252613107498,0.106691081101701
1580421643.8232,-1.0896162355993,0.0744640268558783,0.154543373769741
1580421643.82719,-1.09303425650416,0.104737926298924,0.189211871519035
1580421643.83118,-1.0979171435111,0.141847867551689,0.221927214465552
1580421643.83518,-1.10524147402151,0.179446097505149,0.251224536507209
1580421643.83917,-1.11891355764095,0.206301976043335,0.265384908827343
1580421643.84317,-1.14332799267567,0.222903791866941,0.283451590753032
1580421643.84716,-1.16725413900969,0.228274967574578,0.297611963073166
1580421643.85115,-1.19606317235065,0.226321812771801,0.310795757991912
1580421643.85515,-1.22487220569161,0.206790264744029,0.314213778896772
1580421643.85914,-1.24440375371939,0.187258716716258,0.319096665903714
1580421643.86313,-1.25758754863813,0.162355992980849,0.312748912794689
1580421643.86713,-1.26491187914855,0.134523537041275,0.284916456855115
1580421643.87112,-1.26491187914855,0.102296482795452,0.247806515602349
1580421643.87511,-1.26442359044785,0.0720225833524069,0.185305561913481
1580421643.87911,-1.26442359044785,0.0397955291065841,0.110109102006561
1580421643.8831,-1.25905241474022,0.00512703135728998,0.0456549935149155
1580421643.88709,-1.25465781643397,-0.0300297550926985,0.0075684748607614
1580421643.89114,-1.25465781643397,-0.0549324788281069,-0.00219729915312428
1580421643.89514,-1.25661097123674,-0.0690928511482412,0.00317387655451284
1580421643.89913,-1.2605172808423,-0.0744640268558783,0.0300297550926985
1580421643.90312,-1.26247043564508,-0.073975738155184,0.0734874494544897
1580421643.90712,-1.26295872434577,-0.0715342946517126,0.109620813305867
1580421643.91111,-1.2693064774548,-0.0749523155565726,0.147707331960021
1580421643.9151,-1.27565423056382,-0.0769054703593497,0.186282139314869
1580421643.9191,-1.29079118028534,-0.0778820477607383,0.208255130846112
1580421643.92309,-1.31618219272145,-0.0788586251621268,0.228274967574578
1580421643.92708,-1.33180743114366,-0.0690928511482412,0.244876783398183
1580421643.93108,-1.3454795147631,-0.0598153658350498,0.263431754024566
1580421643.93507,-1.35866330968185,-0.044678416113527,0.289311055161363
1580421643.93907,-1.38503089951934,-0.0207522697795071,0.31519035629816
1580421643.94306,-1.41286335545892,0.00708018616006711,0.344487678339817
1580421643.94705,-1.44606698710613,0.0388189517051956,0.367925535973143
1580421643.95105,-1.47341115434501,0.0793469138628211,0.385503929198137
1580421643.95504,-1.50466163118944,0.126710917830167,0.40064087891966
1580421643.95903,-1.53102922102693,0.171145189593346,0.419684138246737
1580421643.96303,-1.54518959334707,0.198489356832226,0.457282368200197
1580421643.96702,-1.54128328374151,0.186770428015564,0.490974288548102
1580421643.97101,-1.51979858091096,0.131593804837109,0.50513466086824
1580421643.975,-1.49050125886931,0.0495613031204698,0.435797665369648
1580421643.97899,-1.4485084306096,-0.0397955291065841,0.309330891889829
1580421643.98299,-1.41237506675822,-0.115480277714198,0.147707331960021
1580421643.98698,-1.3796597238117,-0.163820859082932,0.0280766002899213
1580421643.99097,-1.35085069047074,-0.202883955138475,-0.0285648889906156
1580421643.99497,-1.33669031815061,-0.239017318989852,-0.0881361104753182
1580421643.99896,-1.33962005035477,-0.283451590753033,-0.139406424048218
1580421644.00296,-1.35133897917144,-0.336186770428016,-0.193606469825284
1580421644.00695,-1.36159304188602,-0.397711146715496,-0.254642557412071
1580421644.01094,-1.36110475318532,-0.450934615091173,-0.318120088502328
1580421644.01494,-1.35524528877699,-0.478767071030747,-0.375738155184253
1580421644.01893,-1.3630579079881,-0.471931029221027,-0.403082322423133
1580421644.02292,-1.39186694132906,-0.423102159151599,-0.404058899824522
1580421644.02692,-1.44460212100404,-0.344975967040513,-0.429938200961319
1580421644.03091,-1.49440756847486,-0.262943465323874,-0.494880598153658
1580421644.0349,-1.5251697566186,-0.198489356832226,-0.575448233768215
1580421644.0389,-1.52077515831235,-0.138918135347524,-0.654062714579995
1580421644.04289,-1.50222018768597,-0.063721675440604,-0.717051956969557
1580421644.04689,-1.48171206225681,0.044678416113527,-0.764904249637599
1580421644.0509,-1.47829404135195,0.186282139314869,-0.792736705577173
1580421644.0549,-1.48171206225681,0.348393987945371,-0.80494392309453
1580421644.05889,-1.50124361028458,0.513435568780043,-0.799572747386893
1580421644.06288,-1.52126344701305,0.664316777294577,-0.782482642862593
1580421644.06688,-1.53005264362554,0.778576333257039,-0.774670023651485
1580421644.07087,-1.52077515831235,0.829846646829939,-0.792736705577173
1580421644.07486,-1.49440756847486,0.805432211795225,-0.79810788128481
1580421644.07886,-1.47048142214084,0.722423132677196,-0.797619592584116
1580421644.08285,-1.45534447241932,0.592050049591823,-0.788830395971619
1580421644.08684,-1.46071564812696,0.450446326390477,-0.758068207827879
1580421644.09084,-1.47682917524987,0.30493629358358,-0.723399710078583
1580421644.09483,-1.50710307469291,0.180910963607232,-0.686778057526512
1580421644.09882,-1.52224002441443,0.0871595330739297,-0.648691538872358
1580421644.10282,-1.51979858091096,0.0163576714732585,-0.611581597619592
1580421644.10681,-1.50222018768597,-0.0236820019836728,-0.573006790264744
1580421644.11081,-1.47536430914778,-0.0471198596169984,-0.540291447318227
1580421644.1148,-1.45046158541238,-0.0461432822156098,-0.502204928664073
1580421644.11879,-1.42214084077211,-0.041260395208667,-0.46314183260853
1580421644.12279,-1.40358587014572,-0.0285648889906156,-0.420660715648127
1580421644.12678,-1.38454261081865,-0.00366216525520713,-0.390386816205082
1580421644.13077,-1.36647592889296,0.0163576714732585,-0.356694895857176
1580421644.13476,-1.3547570000763,0.0319829098954756,-0.33325703822385
1580421644.13875,-1.34352635996033,0.0354009308003356,-0.316166933699551
1580421644.14275,-1.33571374074922,0.0236820019836728,-0.300541695277333
1580421644.14674,-1.32985427634089,0.000732433051041426,-0.297611963073168
1580421644.15073,-1.31960021362631,-0.0354009308003356,-0.281498435950256
1580421644.15473,-1.30641641870756,-0.0695811398489354,-0.276615548943314
1580421644.15872,-1.2863965819791,-0.110597390707255,-0.268802929732205
1580421644.16272,-1.2600289921416,-0.150148775463492,-0.263920042725262
1580421644.16671,-1.22194247348745,-0.193118181124589,-0.255130846112765
1580421644.1707,-1.1833676661326,-0.237552452887769,-0.242923628595406
1580421644.1747,-1.13649195086595,-0.282475013351645,-0.233646143282215
1580421644.17869,-1.08570992599374,-0.31958495460441,-0.212161440451666
1580421644.18268,-1.04078736552987,-0.34692912184329,-0.201419089036392
1580421644.18668,-0.997329671168078,-0.370366979476616,-0.188723582818341
1580421644.19067,-0.94850080109865,-0.383550774395362,-0.179934386205844
1580421644.19466,-0.901625085831999,-0.387457084000916,-0.169192034790569
1580421644.19866,-0.861585412375067,-0.383062485694667,-0.164309147783626
1580421644.20265,-0.82545204852369,-0.373785000381476,-0.165285725185015
1580421644.20664,-0.790783550774396,-0.359624628061342,-0.174563210498206
1580421644.21063,-0.754650186923019,-0.343022812237736,-0.184328984512092
1580421644.21462,-0.71851682307164,-0.321049820706493,-0.198977645532921
1580421644.21862,-0.685313191424429,-0.302006561379416,-0.214114595254443
1580421644.22261,-0.655527580682078,-0.276127260242619,-0.232669565880826
1580421644.22661,-0.630624856946669,-0.250247959105822,-0.245853360799572
1580421644.2306,-0.607186999313344,-0.224856946669718,-0.261478599221791
1580421644.23459,-0.588632028686961,-0.203860532539863,-0.275638971541925
1580421644.23859,-0.568123903257801,-0.185305561913481,-0.284428168154422
1580421644.24258,-0.549080643930724,-0.160402838178072,-0.288334477759976
1580421644.24657,-0.533943694209201,-0.139406424048218,-0.304936293583582
1580421644.25057,-0.513435568780041,-0.126710917830167,-0.316655222400245
1580421644.25456,-0.494880598153658,-0.116945143816281,-0.328374151216908
1580421644.25855,-0.476325627527276,-0.100343327992675,-0.338628213931488
1580421644.26255,-0.460700389105059,-0.0920424200808725,-0.359136339360647
1580421644.26654,-0.43921568627451,-0.0783703364614325,-0.373785000381476
1580421644.27053,-0.42212558175021,-0.0642099641412983,-0.396734569314107
1580421644.27453,-0.402594033722439,-0.0510261692225527,-0.414312962539102
1580421644.27852,-0.37769130998703,-0.0432135500114441,-0.434821087968261
1580421644.28251,-0.352300297550928,-0.0373540856031127,-0.450446326390479
1580421644.28651,-0.330815594720379,-0.031006332494087,-0.464606698710613
1580421644.29053,-0.313237201495385,-0.027588311589227,-0.492439154650187
1580421644.29452,-0.297123674372473,-0.024170290684367,-0.514900434882124
1580421644.29851,-0.281498435950256,-0.0183108262760356,-0.527595941100175
1580421644.30251,-0.272220950637065,-0.00659189745937283,-0.543221179522392
1580421644.3065,-0.259037155718319,0.00903334096284425,-0.554940108339055
1580421644.31049,-0.250736247806516,0.0290531776913099,-0.556404974441138
1580421644.31449,-0.242435339894712,0.0520027466239412,-0.567635614557107
1580421644.31848,-0.239017318989852,0.0729991607537954,-0.583260852979324
1580421644.32247,-0.242923628595406,0.0939955748836496,-0.595468070496681
1580421644.32647,-0.2434119172961,0.11792172121767,-0.615976195925841
1580421644.33046,-0.23999389639124,0.131105516136415,-0.640878919661249
1580421644.33446,-0.237064164187075,0.126710917830167,-0.662363622491798
1580421644.33845,-0.227786678873883,0.121828030823224,-0.684824902723735
1580421644.34244,-0.219974059662775,0.123781185626001,-0.682871747920958
1580421644.34644,-0.217532616159303,0.141359578850995,-0.643808651865415
1580421644.35043,-0.234134431982909,0.171633478294041,-0.567635614557107
1580421644.35442,-0.269291218432899,0.201907377737086,-0.478278782330053
1580421644.35842,-0.336186770428016,0.232669565880826,-0.379156176089113
1580421644.36241,-0.433356221866179,0.2605020218204,-0.265873197528039
1580421644.3664,-0.572518501564049,0.286381322957197,-0.128175783932249
1580421644.37039,-0.730235751888303,0.312748912794689,0.0266117341878385
1580421644.37438,-0.905043106736859,0.326909285114823,0.226321812771801
1580421644.37838,-1.07985046158541,0.325932707713434,0.451422903791865
1580421644.38237,-1.24977492942702,0.303471427481497,0.700450141145954
1580421644.38637,-1.40065613794156,0.231204699778743,0.941176470588236
1580421644.39036,-1.53981841763943,0.108155947203784,1.15504692149233
1580421644.39435,-1.6701915007248,-0.0822766460669868,1.33229571984436
1580421644.39835,-1.81911955443656,-0.317631799801633,1.43727779049363
1580421644.40234,-1.93728542000458,-0.56226443884947,1.45143816281376
1580421644.40633,-1.92214847028306,-0.700450141145952,1.50612649729153
1580421644.41033,-1.85622949568933,-0.644785229266803,1.79616998550393
1580421644.41432,-1.84792858777752,-0.465094987411307,2.14383154039826
1580421644.41831,-1.8674601358053,-0.292240787365531,2.24490730144198
1580421644.42231,-1.85964751659419,-0.153566796368352,2.07449454489967
1580421644.4263,-1.72292668039979,-0.0910658426794839,1.74245822842756
1580421644.43029,-1.49587243457694,-0.0437018387121384,1.35475700007629
1580421644.43429,-1.21950102998398,0.0207522697795071,0.976333257038224
1580421644.43828,-0.968520637827115,0.073975738155184,0.670176241702908
1580421644.44228,-0.788830395971619,0.0783703364614325,0.45532921339742
1580421644.44627,-0.667246509498741,0.00268558785381856,0.321049820706492
1580421644.45026,-0.598886091401541,-0.131105516136415,0.249759670405126
1580421644.45425,-0.571053635461967,-0.262943465323874,0.221927214465552
1580421644.45824,-0.610605020218204,-0.361089494163425,0.221927214465552
1580421644.46224,-0.692637521934843,-0.388433661402305,0.2605020218204
1580421644.46623,-0.798596169985505,-0.359624628061342,0.3117723353933
1580421644.47022,-0.903089951934081,-0.297611963073168,0.34937056534676
1580421644.47422,-0.990981918059052,-0.217532616159303,0.413824673838405
1580421644.47821,-1.07057297627222,-0.154055085069047,0.436774242771037
1580421644.4822,-1.15944151979858,-0.10424963759823,0.395757991912717
1580421644.4862,-1.25416952773327,-0.0529793240253298,0.306889448386357
1580421644.49019,-1.33522545204852,0.00415045395590141,0.210208285648889
1580421644.49418,-1.39528496223392,0.0305180437933927,0.144289311055161
1580421644.49818,-1.43385976958877,0.0227054245822842,0.152590218966964
1580421644.50217,-1.43483634699016,-0.0104982070649271,0.253177691309986
1580421644.50617,-1.42751201647974,-0.0261234454871442,0.449958037689782
1580421644.51016,-1.41823453116655,-0.00561532005798426,0.678965438315405
1580421644.51415,-1.3713588158999,0.0187991149767299,0.847425040054933
1580421644.51815,-1.28981460288396,0.0139162279697871,0.91773861295491
1580421644.52214,-1.25368123903258,0.00122072175173571,0.86988632028687
1580421644.52613,-1.31569390402075,0.0388189517051956,0.659922178988328
1580421644.53015,-1.35280384527352,0.10083161669337,0.327397573815517
1580421644.53414,-1.32936598764019,0.150148775463492,0.0285648889906156
1580421644.53814,-1.27516594186313,0.165774013885709,-0.153566796368352
1580421644.54213,-1.22975509269856,0.147219043259327,-0.235111009384298
1580421644.54612,-1.20338750286107,0.099855039291981,-0.250247959105822
1580421644.55012,-1.20387579156176,0.0114747844663157,-0.208743419546806
1580421644.55411,-1.21217669947356,-0.109132524605172,-0.112062256809338
1580421644.55811,-1.20241092545968,-0.213626306553749,0.0046387426565957
1580421644.5621,-1.18043793392843,-0.225345235370412,0.0856946669718468
1580421644.56609,-1.14381628137636,-0.138918135347524,0.101808194094758
1580421644.57009,-1.09205767910277,-0.0280766002899213,0.0334477759975584
1580421644.57408,-1.03053330281529,0.0642099641412983,-0.0861829556725411
1580421644.57807,-0.971938658731975,0.115968566414892,-0.226321812771801
1580421644.58207,-0.912855725947967,0.124269474326695,-0.371831845578699
1580421644.58606,-0.856702525368124,0.113038834210727,-0.518806744487678
1580421644.59005,-0.795666437781339,0.0949721522850382,-0.617929350728618
1580421644.59405,-0.74927901121538,0.0920424200808725,-0.658945601586938
1580421644.59804,-0.719005111772335,0.106202792401007,-0.638437476157778
1580421644.60203,-0.716563668268863,0.134035248340581,-0.587655451285572
1580421644.60603,-0.738048371099412,0.160891126878766,-0.531990539406424
1580421644.61001,-0.777111467154956,0.172610055695429,-0.506111238269627
1580421644.61401,-0.830823224231327,0.158449683375295,-0.510505836575875
1580421644.618,-0.891859311818113,0.117433432516975,-0.522224765392538
1580421644.622,-0.944106202792401,0.060303654535744,-0.530037384603647
1580421644.62599,-0.974868390936141,0.0075684748607614,-0.546150911726558
1580421644.62998,-0.98951705195697,-0.0231937132829785,-0.546639200427252
1580421644.63398,-0.98951705195697,-0.0158693827725642,-0.527595941100175
1580421644.63797,-0.991958495460441,0.0173342488746471,-0.478278782330053
1580421644.64196,-1.01490806439307,0.0856946669718468,-0.397222858014802
1580421644.64596,-1.06129549095903,0.189700160219729,-0.309330891889831
1580421644.64995,-1.12477302204929,0.318120088502326,-0.248783093003738
1580421644.65394,-1.18239108873121,0.449958037689782,-0.230228122377355
1580421644.65794,-1.22145418478675,0.547127489127949,-0.256595712214848
1580421644.66193,-1.23170824750133,0.577889677271688,-0.294193942168308
1580421644.66593,-1.23024338139925,0.547615777828643,-0.313237201495385
1580421644.66992,-1.22047760738537,0.47925535973144,-0.298100251773862
1580421644.67391,-1.20973525597009,0.40405889982452,-0.262943465323874
1580421644.6779,-1.19508659494926,0.32202639810788,-0.219485770962081
1580421644.6819,-1.17067215991455,0.245365072098878,-0.164309147783626
1580421644.68589,-1.14283970397497,0.177492942702372,-0.127687495231555
1580421644.68991,-1.11207751583123,0.123292896925307,-0.0993667505912867
1580421644.6939,-1.08668650339513,0.0813000686655982,-0.0847180895704582
1580421644.6979,-1.0637369344625,0.0476081483176927,-0.0822766460669868
1580421644.70189,-1.04518196383612,0.0114747844663157,-0.0817883573662925
1580421644.70588,-1.03248645761807,-0.0222171358815899,-0.0803234912642097
1580421644.70988,-1.02418554970626,-0.0524910353246355,-0.0822766460669868
1580421644.71387,-1.0129549095903,-0.0817883573662925,-0.0920424200808725
