Timestamp_seconds,Accel_X_g,Accel_Y_g,Accel_Z_g
1580421656.91768,-0.98609903105211,-0.132570382238498,-0.202395666437781
1580421656.92168,-0.986587319752804,-0.138429846646829,-0.200442511635003
1580421656.92569,-0.983169298847944,-0.144289311055161,-0.202395666437781
1580421656.92969,-0.982192721446555,-0.149172198062104,-0.199954222934309
1580421656.93369,-0.98268101014725,-0.153566796368352,-0.200930800335698
1580421656.93769,-0.980727855344472,-0.152590218966964,-0.196047913328755
1580421656.94168,-0.981704432745861,-0.155031662470435,-0.192629892423895
1580421656.94568,-0.984145876249332,-0.154543373769741,-0.197512779430838
1580421656.94968,-0.983169298847944,-0.153078507667658,-0.202395666437781
1580421656.95368,-0.984145876249332,-0.148683909361409,-0.200442511635003
1580421656.95768,-0.983169298847944,-0.148683909361409,-0.196536202029449
1580421656.96168,-0.984145876249332,-0.137941557946135,-0.192629892423895
1580421656.96568,-0.983169298847944,-0.135011825741969,-0.196536202029449
1580421656.96968,-0.984634164950027,-0.135011825741969,-0.198001068131532
1580421656.97367,-0.985610742351415,-0.128664072632944,-0.197024490730143
1580421656.97767,-0.980239566643778,-0.125246051728084,-0.198001068131532
1580421656.98167,-0.98268101014725,-0.119386587319752,-0.200442511635003
1580421656.98567,-0.98268101014725,-0.116456855115587,-0.203372243839169
1580421656.98967,-0.981704432745861,-0.113038834210727,-0.201907377737086
1580421656.99367,-0.981704432745861,-0.109132524605172,-0.203372243839169
1580421656.99767,-0.984634164950027,-0.106691081101701,-0.203372243839169
1580421657.00167,-0.980727855344472,-0.104737926298924,-0.203860532539863
1580421657.00565,-0.980239566643778,-0.101808194094758,-0.206301976043335
1580421657.00964,-0.981216144045167,-0.101808194094758,-0.201907377737086
1580421657.01364,-0.98268101014725,-0.10083161669337,-0.204837109941252
1580421657.01764,-0.98268101014725,-0.0983901731898982,-0.200930800335698
1580421657.02164,-0.981704432745861,-0.0979018844892039,-0.199954222934309
1580421657.02564,-0.980239566643778,-0.101319905394064,-0.203372243839169
1580421657.02964,-0.979751277943084,-0.0993667505912867,-0.199465934233615
1580421657.03364,-0.980239566643778,-0.096437018387121,-0.206301976043335
1580421657.03763,-0.981216144045167,-0.0930189974822611,-0.199954222934309
1580421657.04163,-0.985610742351415,-0.0930189974822611,-0.205813687342641
1580421657.04563,-0.98268101014725,-0.0959487296864268,-0.202395666437781
1580421657.04963,-0.981216144045167,-0.0974135957885096,-0.200442511635003
1580421657.05363,-0.981704432745861,-0.0959487296864268,-0.202395666437781
1580421657.05763,-0.983169298847944,-0.0949721522850382,-0.198489356832226
1580421657.06163,-0.984145876249332,-0.0983901731898982,-0.200442511635003
1580421657.06563,-0.97926298924239,-0.0935072861829553,-0.203372243839169
1580421657.06962,-0.985122453650721,-0.0910658426794839,-0.204348821240558
1580421657.07362,-0.98268101014725,-0.0886243991760125,-0.199954222934309
1580421657.07762,-0.983169298847944,-0.0886243991760125,-0.210696574349583
1580421657.08162,-0.982192721446555,-0.0842298008697639,-0.212161440451666
1580421657.0856,-0.987563897154192,-0.0813000686655982,-0.208743419546806
1580421657.0896,-0.987075608453498,-0.073975738155184,-0.201907377737086
1580421657.0936,-0.990005340657664,-0.0725108720531011,-0.205813687342641
1580421657.0976,-0.985122453650721,-0.0847180895704582,-0.209719996948195
1580421657.1016,-0.983169298847944,-0.096437018387121,-0.208255130846112
1580421657.10559,-0.977798123140307,-0.109132524605172,-0.213138017853055
1580421657.10959,-0.97926298924239,-0.108644235904478,-0.209719996948195
1580421657.11359,-0.98268101014725,-0.10424963759823,-0.201907377737086
1580421657.11759,-0.983169298847944,-0.0939955748836496,-0.198977645532921
1580421657.12159,-0.985122453650721,-0.0954604409857325,-0.203860532539863
1580421657.12559,-0.981216144045167,-0.0974135957885096,-0.202395666437781
1580421657.12959,-0.981704432745861,-0.103761348897535,-0.200930800335698
1580421657.13359,-0.984145876249332,-0.107179369802395,-0.202883955138475
1580421657.13758,-0.984634164950027,-0.101808194094758,-0.195559624628061
1580421657.14158,-0.984634164950027,-0.0949721522850382,-0.193606469825284
1580421657.14558,-0.984634164950027,-0.0920424200808725,-0.198489356832226
1580421657.14958,-0.980239566643778,-0.0974135957885096,-0.199954222934309
1580421657.15358,-0.980239566643778,-0.096437018387121,-0.201907377737086
1580421657.15758,-0.981704432745861,-0.0891126878767068,-0.195559624628061
1580421657.16158,-0.981704432745861,-0.0905775539787896,-0.203860532539863
1580421657.16559,-0.980727855344472,-0.096437018387121,-0.201907377737086
1580421657.16959,-0.980239566643778,-0.104737926298924,-0.197024490730143
1580421657.17359,-0.979751277943084,-0.107179369802395,-0.196536202029449
1580421657.17758,-0.980239566643778,-0.110597390707255,-0.192141603723201
1580421657.18158,-0.979751277943084,-0.110597390707255,-0.195071335927366
1580421657.18558,-0.985122453650721,-0.108155947203784,-0.203860532539863
1580421657.18958,-0.981216144045167,-0.103761348897535,-0.201907377737086
1580421657.19358,-0.984145876249332,-0.102296482795452,-0.196536202029449
1580421657.19758,-0.980727855344472,-0.102296482795452,-0.199465934233615
1580421657.20158,-0.981704432745861,-0.102296482795452,-0.200930800335698
1580421657.20558,-0.983169298847944,-0.099855039291981,-0.194583047226672
1580421657.20957,-0.985122453650721,-0.10083161669337,-0.199465934233615
1580421657.21357,-0.98609903105211,-0.0993667505912867,-0.195071335927366
1580421657.21757,-0.987075608453498,-0.102784771496147,-0.195559624628061
1580421657.22157,-0.985610742351415,-0.102784771496147,-0.200442511635003
1580421657.22557,-0.982192721446555,-0.105714503700312,-0.200442511635003
1580421657.22957,-0.98268101014725,-0.108155947203784,-0.198489356832226
1580421657.23357,-0.980727855344472,-0.113038834210727,-0.196047913328755
1580421657.23757,-0.980239566643778,-0.110597390707255,-0.198977645532921
1580421657.24156,-0.980727855344472,-0.109620813305867,-0.196047913328755
1580421657.24554,-0.982192721446555,-0.108644235904478,-0.194583047226672
1580421657.24954,-0.982192721446555,-0.110597390707255,-0.193606469825284
1580421657.25354,-0.981216144045167,-0.110109102006561,-0.195071335927366
1580421657.25754,-0.983169298847944,-0.106202792401007,-0.196047913328755
1580421657.26154,-0.987075608453498,-0.104737926298924,-0.197024490730143
1580421657.26554,-0.980239566643778,-0.100343327992675,-0.202395666437781
1580421657.26954,-0.983169298847944,-0.099855039291981,-0.200442511635003
1580421657.27354,-0.98268101014725,-0.0979018844892039,-0.199465934233615
1580421657.27753,-0.983657587548638,-0.0979018844892039,-0.198001068131532
1580421657.28153,-0.985610742351415,-0.0979018844892039,-0.198977645532921
1580421657.28553,-0.984145876249332,-0.099855039291981,-0.198977645532921
1580421657.28953,-0.982192721446555,-0.103761348897535,-0.202883955138475
1580421657.29353,-0.985610742351415,-0.10424963759823,-0.196047913328755
1580421657.29753,-0.985122453650721,-0.10424963759823,-0.201907377737086
1580421657.30153,-0.976333257038224,-0.102784771496147,-0.196536202029449
1580421657.30552,-0.97584496833753,-0.102296482795452,-0.201907377737086
1580421657.30952,-0.97926298924239,-0.102296482795452,-0.201419089036392
1580421657.31352,-0.97926298924239,-0.102296482795452,-0.200930800335698
1580421657.31752,-0.98268101014725,-0.103761348897535,-0.198001068131532
1580421657.32152,-0.984634164950027,-0.104737926298924,-0.197512779430838
1580421657.32553,-0.985610742351415,-0.103761348897535,-0.197024490730143
1580421657.32953,-0.987563897154192,-0.102784771496147,-0.198489356832226
1580421657.33353,-0.987563897154192,-0.0993667505912867,-0.201907377737086
1580421657.33753,-0.984145876249332,-0.0974135957885096,-0.202883955138475
1580421657.34153,-0.985610742351415,-0.0983901731898982,-0.200930800335698
1580421657.34552,-0.988052185854887,-0.0944838635843439,-0.201419089036392
1580421657.34952,-0.98609903105211,-0.0954604409857325,-0.196047913328755
1580421657.35352,-0.985610742351415,-0.0930189974822611,-0.199465934233615
1580421657.35752,-0.983657587548638,-0.0896009765774011,-0.200442511635003
1580421657.36152,-0.982192721446555,-0.0891126878767068,-0.201419089036392
1580421657.36552,-0.98268101014725,-0.0866712443732354,-0.198001068131532
1580421657.36952,-0.980239566643778,-0.0866712443732354,-0.198489356832226
1580421657.37352,-0.985122453650721,-0.0891126878767068,-0.198001068131532
1580421657.37751,-0.983169298847944,-0.0861829556725411,-0.194583047226672
1580421657.38151,-0.985610742351415,-0.0852063782711525,-0.198489356832226
1580421657.38551,-0.984145876249332,-0.0852063782711525,-0.199465934233615
1580421657.38951,-0.983169298847944,-0.0837415121690697,-0.202395666437781
1580421657.39351,-0.980727855344472,-0.0817883573662925,-0.195071335927366
1580421657.39751,-0.98268101014725,-0.0852063782711525,-0.198977645532921
1580421657.40151,-0.984634164950027,-0.0832532234683754,-0.200930800335698
1580421657.40549,-0.986587319752804,-0.0783703364614325,-0.201419089036392
1580421657.40948,-0.985122453650721,-0.080811779964904,-0.201907377737086
1580421657.41348,-0.985610742351415,-0.0847180895704582,-0.196536202029449
1580421657.41748,-0.987563897154192,-0.0817883573662925,-0.200442511635003
1580421657.42148,-0.984145876249332,-0.0827649347676811,-0.200930800335698
1580421657.42548,-0.984145876249332,-0.0866712443732354,-0.199465934233615
1580421657.42948,-0.98609903105211,-0.0876478217746239,-0.201907377737086
1580421657.43348,-0.984145876249332,-0.0915541313801782,-0.199954222934309
1580421657.43748,-0.985122453650721,-0.0954604409857325,-0.200930800335698
1580421657.44147,-0.985610742351415,-0.0949721522850382,-0.205813687342641
1580421657.44547,-0.985122453650721,-0.0925307087815668,-0.197512779430838
1580421657.44947,-0.986587319752804,-0.0939955748836496,-0.198489356832226
1580421657.45347,-0.98268101014725,-0.0905775539787896,-0.198489356832226
1580421657.45747,-0.983657587548638,-0.0939955748836496,-0.203860532539863
1580421657.46147,-0.98268101014725,-0.0900892652780954,-0.206301976043335
1580421657.46547,-0.984634164950027,-0.0896009765774011,-0.202883955138475
1580421657.46947,-0.987075608453498,-0.0876478217746239,-0.202883955138475
1580421657.47347,-0.985610742351415,-0.0900892652780954,-0.202883955138475
1580421657.47746,-0.985610742351415,-0.0915541313801782,-0.204837109941252
1580421657.48146,-0.983169298847944,-0.0910658426794839,-0.203372243839169
1580421657.48544,-0.984145876249332,-0.0915541313801782,-0.205325398641946
1580421657.48944,-0.981216144045167,-0.0866712443732354,-0.201907377737086
1580421657.49344,-0.983657587548638,-0.0891126878767068,-0.202883955138475
1580421657.49744,-0.981704432745861,-0.0876478217746239,-0.205325398641946
1580421657.50144,-0.980727855344472,-0.0847180895704582,-0.204837109941252
1580421657.50544,-0.98268101014725,-0.0871595330739297,-0.205325398641946
1580421657.50943,-0.983657587548638,-0.0891126878767068,-0.202883955138475
1580421657.51343,-0.98609903105211,-0.0939955748836496,-0.201907377737086
1580421657.51743,-0.984634164950027,-0.096437018387121,-0.195559624628061
1580421657.52143,-0.987075608453498,-0.096437018387121,-0.198001068131532
1580421657.52543,-0.990005340657664,-0.096437018387121,-0.204348821240558
1580421657.52943,-0.985610742351415,-0.0935072861829553,-0.200442511635003
1580421657.53343,-0.985122453650721,-0.0939955748836496,-0.205813687342641
1580421657.53743,-0.985122453650721,-0.0896009765774011,-0.203860532539863
1580421657.54142,-0.979751277943084,-0.0925307087815668,-0.204837109941252
1580421657.54542,-0.979751277943084,-0.0959487296864268,-0.201907377737086
1580421657.54942,-0.981704432745861,-0.0959487296864268,-0.201419089036392
1580421657.55342,-0.98268101014725,-0.0949721522850382,-0.204348821240558
1580421657.55742,-0.984634164950027,-0.096437018387121,-0.202395666437781
1580421657.56142,-0.98609903105211,-0.0944838635843439,-0.205325398641946
1580421657.5654,-0.987075608453498,-0.0944838635843439,-0.200442511635003
1580421657.5694,-0.986587319752804,-0.0935072861829553,-0.199465934233615
1580421657.5734,-0.984145876249332,-0.0988784618905925,-0.203860532539863
1580421657.57739,-0.988540474555581,-0.0988784618905925,-0.202395666437781
1580421657.58139,-0.984145876249332,-0.099855039291981,-0.198977645532921
1580421657.58539,-0.983169298847944,-0.100343327992675,-0.193118181124589
1580421657.58939,-0.982192721446555,-0.101808194094758,-0.198977645532921
1580421657.59339,-0.981216144045167,-0.100343327992675,-0.202395666437781
1580421657.59739,-0.977309834439613,-0.0939955748836496,-0.204837109941252
1580421657.60139,-0.981216144045167,-0.0925307087815668,-0.201907377737086
1580421657.60539,-0.980727855344472,-0.0925307087815668,-0.200442511635003
1580421657.60939,-0.982192721446555,-0.0930189974822611,-0.203860532539863
1580421657.61338,-0.981704432745861,-0.0974135957885096,-0.197512779430838
1580421657.61738,-0.982192721446555,-0.099855039291981,-0.202395666437781
1580421657.62138,-0.984634164950027,-0.102296482795452,-0.202883955138475
1580421657.62538,-0.983657587548638,-0.102784771496147,-0.201907377737086
1580421657.62938,-0.981216144045167,-0.105226214999618,-0.202395666437781
1580421657.63338,-0.979751277943084,-0.105226214999618,-0.204837109941252
1580421657.63738,-0.97584496833753,-0.102296482795452,-0.209231708247501
1580421657.64137,-0.974380102235447,-0.103273060196841,-0.212649729152361
1580421657.64539,-0.973403524834058,-0.0930189974822611,-0.214114595254443
1580421657.64938,-0.974868390936141,-0.0788586251621268,-0.217532616159303
1580421657.65338,-0.982192721446555,-0.0715342946517126,-0.212649729152361
1580421657.65738,-0.98268101014725,-0.0749523155565726,-0.198001068131532
1580421657.66138,-0.985122453650721,-0.0876478217746239,-0.188235294117646
1580421657.66538,-0.985122453650721,-0.10424963759823,-0.188235294117646
1580421657.66938,-0.985122453650721,-0.119386587319752,-0.189700160219729
1580421657.67338,-0.986587319752804,-0.119874876020447,-0.189211871519035
1580421657.67737,-0.986587319752804,-0.11450370031281,-0.199465934233615
1580421657.68137,-0.988052185854887,-0.10424963759823,-0.194583047226672
1580421657.68537,-0.990493629358358,-0.0915541313801782,-0.195559624628061
1580421657.68937,-0.988052185854887,-0.0891126878767068,-0.199954222934309
1580421657.69337,-0.989028763256275,-0.0896009765774011,-0.198001068131532
1580421657.69737,-0.983169298847944,-0.0949721522850382,-0.199954222934309
1580421657.70137,-0.98268101014725,-0.0959487296864268,-0.196047913328755
1580421657.70537,-0.982192721446555,-0.102784771496147,-0.198977645532921
1580421657.70936,-0.983169298847944,-0.102784771496147,-0.197024490730143
1580421657.71336,-0.98609903105211,-0.102784771496147,-0.196047913328755
1580421657.71736,-0.985610742351415,-0.10424963759823,-0.194094758525978
1580421657.72136,-0.984634164950027,-0.103273060196841,-0.193118181124589
1580421657.72534,-0.981704432745861,-0.0979018844892039,-0.196047913328755
1580421657.72934,-0.980239566643778,-0.0983901731898982,-0.192141603723201
1580421657.73334,-0.983169298847944,-0.0979018844892039,-0.195071335927366
1580421657.73734,-0.985122453650721,-0.0969253070878153,-0.200930800335698
1580421657.74134,-0.987075608453498,-0.0969253070878153,-0.200442511635003
1580421657.74533,-0.989028763256275,-0.0993667505912867,-0.194583047226672
1580421657.74933,-0.987563897154192,-0.101808194094758,-0.199465934233615
1580421657.75333,-0.990005340657664,-0.104737926298924,-0.202395666437781
1580421657.75733,-0.990981918059052,-0.105226214999618,-0.202883955138475
1580421657.76133,-0.990005340657664,-0.105714503700312,-0.201907377737086
1580421657.76533,-0.98951705195697,-0.108644235904478,-0.198977645532921
1580421657.76933,-0.990493629358358,-0.105714503700312,-0.198489356832226
1580421657.77333,-0.986587319752804,-0.106202792401007,-0.197024490730143
1580421657.77732,-0.984634164950027,-0.106202792401007,-0.197024490730143
1580421657.78132,-0.981704432745861,-0.114015411612115,-0.201907377737086
1580421657.78532,-0.982192721446555,-0.114015411612115,-0.206790264744029
1580421657.78932,-0.977798123140307,-0.11792172121767,-0.208255130846112
1580421657.79332,-0.981216144045167,-0.11792172121767,-0.203860532539863
1580421657.79732,-0.981216144045167,-0.11792172121767,-0.205813687342641
1580421657.80132,-0.983169298847944,-0.119874876020447,-0.207766842145418
1580421657.80533,-0.983169298847944,-0.120363164721141,-0.200442511635003
1580421657.80933,-0.980727855344472,-0.12133974212253,-0.202883955138475
1580421657.81333,-0.983657587548638,-0.118410009918364,-0.200930800335698
1580421657.81732,-0.984634164950027,-0.113038834210727,-0.201419089036392
1580421657.82132,-0.988540474555581,-0.110109102006561,-0.210208285648889
1580421657.82532,-0.98609903105211,-0.108155947203784,-0.215579461356526
1580421657.82932,-0.985610742351415,-0.108155947203784,-0.216556038757915
1580421657.83332,-0.985122453650721,-0.113038834210727,-0.215091172655832
1580421657.83732,-0.990981918059052,-0.109132524605172,-0.216556038757915
1580421657.84132,-0.988052185854887,-0.110109102006561,-0.207766842145418
1580421657.84532,-0.98951705195697,-0.109132524605172,-0.205325398641946
1580421657.84931,-0.988052185854887,-0.114015411612115,-0.211673151750972
1580421657.85331,-0.985122453650721,-0.117433432516975,-0.211673151750972
1580421657.85731,-0.98268101014725,-0.120851453421835,-0.213626306553749
1580421657.86131,-0.985610742351415,-0.12133974212253,-0.209719996948195
1580421657.86531,-0.981216144045167,-0.116945143816281,-0.210208285648889
1580421657.86931,-0.977309834439613,-0.11108567940795,-0.208743419546806
1580421657.87331,-0.974868390936141,-0.10766765850309,-0.205813687342641
1580421657.87731,-0.971938658731975,-0.100343327992675,-0.205325398641946
1580421657.8813,-0.970962081330587,-0.101319905394064,-0.201907377737086
1580421657.88528,-0.970473792629893,-0.104737926298924,-0.203372243839169
1580421657.88928,-0.978774700541695,-0.110597390707255,-0.200442511635003
1580421657.89328,-0.978286411841001,-0.11108567940795,-0.202883955138475
1580421657.89728,-0.980727855344472,-0.113527122911421,-0.211673151750972
1580421657.90128,-0.98268101014725,-0.112062256809338,-0.205813687342641
1580421657.90528,-0.984634164950027,-0.110597390707255,-0.207278553444723
1580421657.90928,-0.98609903105211,-0.102784771496147,-0.203860532539863
1580421657.91328,-0.989028763256275,-0.0949721522850382,-0.207766842145418
1580421657.91727,-0.987075608453498,-0.0876478217746239,-0.207766842145418
1580421657.92127,-0.990005340657664,-0.0910658426794839,-0.209231708247501
1580421657.92527,-0.988052185854887,-0.0915541313801782,-0.208255130846112
1580421657.92927,-0.985122453650721,-0.0954604409857325,-0.210208285648889
1580421657.93327,-0.984634164950027,-0.101319905394064,-0.202395666437781
1580421657.93727,-0.986587319752804,-0.101319905394064,-0.199465934233615
1580421657.94127,-0.985610742351415,-0.103273060196841,-0.201907377737086
1580421657.94526,-0.98268101014725,-0.109620813305867,-0.206790264744029
1580421657.94926,-0.97926298924239,-0.114015411612115,-0.206301976043335
1580421657.95326,-0.977309834439613,-0.118898298619058,-0.203860532539863
1580421657.95726,-0.981216144045167,-0.115968566414892,-0.203372243839169
1580421657.96126,-0.981216144045167,-0.113527122911421,-0.203372243839169
1580421657.96527,-0.985122453650721,-0.102296482795452,-0.203372243839169
1580421657.96927,-0.984145876249332,-0.0900892652780954,-0.212161440451666
1580421657.97327,-0.983657587548638,-0.0827649347676811,-0.218020904859998
1580421657.97727,-0.987075608453498,-0.0813000686655982,-0.211184863050278
1580421657.98127,-0.991470206759747,-0.0847180895704582,-0.210208285648889
1580421657.98526,-0.993911650263218,-0.0930189974822611,-0.218020904859998
1580421657.98926,-0.990981918059052,-0.108155947203784,-0.214602883955138
1580421657.99326,-0.98951705195697,-0.122804608224612,-0.205325398641946
1580421657.99726,-0.986587319752804,-0.129640650034332,-0.198977645532921
1580421658.00126,-0.984145876249332,-0.129152361333638,-0.196047913328755
1580421658.00526,-0.984634164950027,-0.12133974212253,-0.203372243839169
1580421658.00926,-0.977798123140307,-0.114015411612115,-0.213626306553749
1580421658.01326,-0.972915236133364,-0.109132524605172,-0.218509193560692
1580421658.01725,-0.96900892652781,-0.10766765850309,-0.210696574349583
1580421658.02125,-0.969985503929198,-0.103761348897535,-0.218509193560692
1580421658.02525,-0.977309834439613,-0.0974135957885096,-0.216067750057221
1580421658.02925,-0.984145876249332,-0.0910658426794839,-0.211184863050278
1580421658.03325,-0.990493629358358,-0.0861829556725411,-0.220462348363469
1580421658.03725,-0.99293507286183,-0.0891126878767068,-0.221438925764858
1580421658.04125,-0.994888227664607,-0.0959487296864268,-0.219485770962081
1580421658.04523,-0.99977111467155,-0.0935072861829553,-0.213626306553749
1580421658.04922,-1.00270084687572,-0.0979018844892039,-0.218020904859998
1580421658.05322,-1.00172426947433,-0.111573968108644,-0.211673151750972
1580421658.05722,-0.994888227664607,-0.126222629129472,-0.215579461356526
1580421658.06122,-0.983169298847944,-0.144777599755855,-0.210208285648889
1580421658.06522,-0.980239566643778,-0.155519951171129,-0.206790264744029
1580421658.06922,-0.978774700541695,-0.156008239871824,-0.199954222934309
1580421658.07322,-0.976333257038224,-0.145265888456549,-0.194583047226672
1580421658.07722,-0.973891813534753,-0.133546959639887,-0.192141603723201
1580421658.08121,-0.972915236133364,-0.123292896925307,-0.193606469825284
1580421658.08521,-0.970473792629893,-0.118410009918364,-0.198489356832226
1580421658.08921,-0.96559090562295,-0.115968566414892,-0.200442511635003
1580421658.09321,-0.96559090562295,-0.107179369802395,-0.208743419546806
1580421658.09721,-0.966567483024338,-0.106691081101701,-0.207278553444723
1580421658.10121,-0.971938658731975,-0.111573968108644,-0.201419089036392
1580421658.10521,-0.972915236133364,-0.115480277714198,-0.197512779430838
1580421658.10921,-0.975356679636835,-0.11792172121767,-0.198489356832226
1580421658.11321,-0.979751277943084,-0.116456855115587,-0.205325398641946
1580421658.1172,-0.976821545738918,-0.11450370031281,-0.206301976043335
1580421658.1212,-0.976821545738918,-0.113527122911421,-0.204837109941252
1580421658.12518,-0.974868390936141,-0.115968566414892,-0.200442511635003
1580421658.12918,-0.972915236133364,-0.116945143816281,-0.208743419546806
1580421658.13318,-0.970473792629893,-0.120363164721141,-0.208255130846112
1580421658.13718,-0.972915236133364,-0.123292896925307,-0.203860532539863
1580421658.14118,-0.971450370031281,-0.122316319523918,-0.205325398641946
1580421658.14518,-0.971938658731975,-0.124269474326695,-0.199465934233615
1580421658.14917,-0.973403524834058,-0.119386587319752,-0.210208285648889
1580421658.15317,-0.974868390936141,-0.118898298619058,-0.209719996948195
1580421658.15717,-0.974380102235447,-0.121828030823224,-0.211673151750972
1580421658.16117,-0.978774700541695,-0.119874876020447,-0.211673151750972
1580421658.16517,-0.980239566643778,-0.120851453421835,-0.211673151750972
1580421658.16917,-0.978774700541695,-0.12133974212253,-0.213626306553749
1580421658.17317,-0.976333257038224,-0.123781185626001,-0.206301976043335
1580421658.17717,-0.974868390936141,-0.122316319523918,-0.210208285648889
1580421658.18116,-0.973403524834058,-0.119386587319752,-0.205813687342641
1580421658.18516,-0.971938658731975,-0.116456855115587,-0.209719996948195
1580421658.18916,-0.97242694743267,-0.114991989013504,-0.208743419546806
1580421658.19316,-0.970962081330587,-0.12133974212253,-0.215091172655832
1580421658.19716,-0.972915236133364,-0.120363164721141,-0.204348821240558
1580421658.20116,-0.973891813534753,-0.125246051728084,-0.198977645532921
1580421658.20517,-0.975356679636835,-0.131105516136415,-0.197512779430838
1580421658.20917,-0.973891813534753,-0.132570382238498,-0.201907377737086
1580421658.21317,-0.976821545738918,-0.129640650034332,-0.199465934233615
1580421658.21717,-0.977798123140307,-0.12133974212253,-0.200442511635003
1580421658.22116,-0.981704432745861,-0.119386587319752,-0.199954222934309
1580421658.22516,-0.976821545738918,-0.123781185626001,-0.198489356832226
1580421658.22916,-0.974380102235447,-0.131593804837109,-0.210696574349583
1580421658.23316,-0.969497215228504,-0.126222629129472,-0.210696574349583
1580421658.23716,-0.967544060425727,-0.103273060196841,-0.203860532539863
1580421658.24116,-0.964614328221561,-0.0852063782711525,-0.200930800335698
1580421658.24516,-0.960708018616007,-0.0832532234683754,-0.193606469825284
1580421658.24916,-0.964126039520867,-0.103273060196841,-0.173586633096818
1580421658.25315,-0.964614328221561,-0.126710917830167,-0.166750591287098
1580421658.25715,-0.959731441214618,-0.148683909361409,-0.174563210498206
1580421658.26115,-0.957778286411841,-0.157473105973907,-0.186770428015564
1580421658.26515,-0.956801709010453,-0.138918135347524,-0.181887541008621
1580421658.26915,-0.959731441214618,-0.121828030823224,-0.175051499198901
1580421658.27315,-0.958266575112535,-0.120363164721141,-0.170656900892652
1580421658.27715,-0.96559090562295,-0.130617227435721,-0.159426260776684
1580421658.28115,-0.976333257038224,-0.146242465857938,-0.153566796368352
1580421658.28513,-0.982192721446555,-0.155031662470435,-0.169680323491264
1580421658.28912,-0.989028763256275,-0.163332570382238,-0.189211871519035
1580421658.29312,-0.992446784161135,-0.161379415579461,-0.212161440451666
1580421658.29712,-1.00123598077363,-0.147707331960021,-0.215579461356526
1580421658.30112,-1.00318913557641,-0.141359578850995,-0.208255130846112
1580421658.30512,-1.00221255817502,-0.139894712748912,-0.202395666437781
1580421658.30912,-1.00611886778058,-0.143801022354467,-0.195559624628061
1580421658.31312,-1.00807202258335,-0.140383001449607,-0.190188448920424
1580421658.31711,-0.99977111467155,-0.139406424048218,-0.192141603723201
1580421658.32111,-0.988052185854887,-0.134523537041275,-0.201907377737086
1580421658.32511,-0.979751277943084,-0.130617227435721,-0.210696574349583
1580421658.32911,-0.97584496833753,-0.122316319523918,-0.216556038757915
1580421658.33311,-0.971450370031281,-0.117433432516975,-0.218509193560692
1580421658.33711,-0.974868390936141,-0.119874876020447,-0.216067750057221
1580421658.34111,-0.978286411841001,-0.128175783932249,-0.207766842145418
1580421658.34511,-0.978774700541695,-0.140871290150301,-0.214602883955138
1580421658.3491,-0.98951705195697,-0.144289311055161,-0.222903791866941
1580421658.3531,-0.998794537270161,-0.139406424048218,-0.237064164187075
1580421658.3571,-1.0036774242771,-0.116456855115587,-0.246341649500266
1580421658.3611,-1.00465400167849,-0.101808194094758,-0.23657587548638
1580421658.36511,-0.997817959868772,-0.106202792401007,-0.229251544975966
1580421658.36911,-0.997817959868772,-0.126710917830167,-0.229251544975966
1580421658.37311,-1.00270084687572,-0.141359578850995,-0.223880369268329
1580421658.37711,-1.0036774242771,-0.146242465857938,-0.216556038757915
1580421658.38111,-1.00025940337224,-0.144777599755855,-0.214602883955138
1580421658.38511,-0.98951705195697,-0.147707331960021,-0.220462348363469
1580421658.3891,-0.978286411841001,-0.146242465857938,-0.229251544975966
1580421658.3931,-0.970473792629893,-0.144289311055161,-0.232181277180132
1580421658.3971,-0.968032349126421,-0.141359578850995,-0.23315785458152
1580421658.4011,-0.967544060425727,-0.138918135347524,-0.239017318989852
1580421658.4051,-0.967544060425727,-0.145265888456549,-0.23315785458152
1580421658.4091,-0.969985503929198,-0.149660486762798,-0.230228122377355
1580421658.4131,-0.970962081330587,-0.156008239871824,-0.230228122377355
1580421658.4171,-0.971450370031281,-0.157961394674601,-0.228274967574578
1580421658.42109,-0.980239566643778,-0.163820859082932,-0.226321812771801
1580421658.42509,-0.980239566643778,-0.165285725185015,-0.229251544975966
1580421658.42909,-0.988540474555581,-0.161379415579461,-0.223880369268329
1580421658.43309,-0.99293507286183,-0.152590218966964,-0.224856946669718
1580421658.43709,-0.995376516365301,-0.142824444953078,-0.222415503166246
1580421658.44109,-0.992446784161135,-0.136964980544747,-0.221438925764858
1580421658.44507,-0.990005340657664,-0.129152361333638,-0.222415503166246
1580421658.44907,-0.985610742351415,-0.127199206530861,-0.222415503166246
1580421658.45306,-0.97584496833753,-0.130128938735027,-0.219974059662775
1580421658.45706,-0.969497215228504,-0.132570382238498,-0.213138017853055
1580421658.46106,-0.966567483024338,-0.137453269245441,-0.206301976043335
1580421658.46506,-0.966567483024338,-0.142824444953078,-0.199465934233615
1580421658.46906,-0.966567483024338,-0.150148775463492,-0.196536202029449
1580421658.47306,-0.963637750820173,-0.153078507667658,-0.194583047226672
1580421658.47706,-0.965102616922255,-0.156496528572518,-0.187747005416952
1580421658.48106,-0.973403524834058,-0.153566796368352,-0.190188448920424
1580421658.48506,-0.97926298924239,-0.146730754558632,-0.185305561913481
1580421658.48905,-0.974868390936141,-0.140871290150301,-0.190676737621118
1580421658.49305,-0.97926298924239,-0.129152361333638,-0.191653315022506
1580421658.49705,-0.983169298847944,-0.111573968108644,-0.194094758525978
1580421658.50105,-0.982192721446555,-0.0974135957885096,-0.194094758525978
1580421658.50505,-0.979751277943084,-0.096437018387121,-0.199954222934309
1580421658.50905,-0.97926298924239,-0.0988784618905925,-0.206301976043335
1580421658.51305,-0.979751277943084,-0.0935072861829553,-0.198001068131532
1580421658.51705,-0.984145876249332,-0.0832532234683754,-0.195071335927366
1580421658.52104,-0.984634164950027,-0.0725108720531011,-0.193606469825284
1580421658.52505,-0.97584496833753,-0.067139696345464,-0.202883955138475
1580421658.52905,-0.974868390936141,-0.0734874494544897,-0.207278553444723
1580421658.53305,-0.971938658731975,-0.0837415121690697,-0.212161440451666
1580421658.53705,-0.976333257038224,-0.096437018387121,-0.222903791866941
1580421658.54105,-0.981216144045167,-0.115968566414892,-0.233646143282215
1580421658.54505,-0.985610742351415,-0.129152361333638,-0.230228122377355
1580421658.54905,-0.991958495460441,-0.134523537041275,-0.218997482261386
1580421658.55305,-0.991958495460441,-0.144777599755855,-0.220950637064163
1580421658.55704,-0.990981918059052,-0.158937972075989,-0.231204699778743
1580421658.56104,-0.993911650263218,-0.165774013885709,-0.241458762493323
1580421658.56504,-1.00660715648127,-0.156984817273212,-0.235599298084992
1580421658.56904,-1.01393148699168,-0.143801022354467,-0.224368657969023
1580421658.57304,-1.01686121919585,-0.118898298619058,-0.225833524071106
1580421658.57704,-1.00904859998474,-0.106691081101701,-0.230716411078049
1580421658.58104,-0.998794537270161,-0.0993667505912867,-0.243900205996795
1580421658.58504,-0.986587319752804,-0.0886243991760125,-0.254154268711376
1580421658.58904,-0.982192721446555,-0.070557717250324,-0.249271381704432
1580421658.59303,-0.98268101014725,-0.0490730144197755,-0.241458762493323
1580421658.59703,-0.983657587548638,-0.0358892195010299,-0.232181277180132
1580421658.60103,-0.982192721446555,-0.0300297550926985,-0.230228122377355
1580421658.60501,-0.986587319752804,-0.0222171358815899,-0.225833524071106
1580421658.60901,-0.997329671168078,-0.00952162966353853,-0.218997482261386
1580421658.61301,-1.00563057907988,0.0144045166704814,-0.209719996948195
1580421658.61701,-1.01441977569238,0.0266117341878385,-0.210696574349583
1580421658.62101,-1.01490806439307,0.0124513618677042,-0.215091172655832
1580421658.625,-1.01930266269932,-0.0227054245822842,-0.199465934233615
1580421658.629,-1.02906843671321,-0.060303654535744,-0.208743419546806
1580421658.633,-1.04469367513542,-0.0798352025635154,-0.212649729152361
1580421658.637,-1.06227206836042,-0.0656748302433812,-0.214114595254443
1580421658.641,-1.07057297627222,-0.048096437018387,-0.214602883955138
1580421658.645,-1.06617837796597,-0.0363775082017241,-0.228274967574578
1580421658.649,-1.06276035706111,-0.024170290684367,-0.233646143282215
1580421658.653,-1.05836575875486,-0.0163576714732585,-0.214114595254443
1580421658.65699,-1.05641260395209,-0.0134279392690928,-0.225345235370412
1580421658.66099,-1.05641260395209,-0.00952162966353853,-0.219485770962081
1580421658.66499,-1.05787747005417,0.01196307316701,-0.217044327458609
1580421658.66899,-1.06276035706111,0.037842374303807,-0.214602883955138
1580421658.67299,-1.07106126497291,0.0563973449301898,-0.209231708247501
1580421658.67699,-1.07447928587777,0.067139696345464,-0.207766842145418
1580421658.68099,-1.07887388418402,0.0539559014267184,-0.218997482261386
1580421658.685,-1.08424505989166,0.0324711985961699,-0.221927214465552
1580421658.689,-1.10377660791943,-0.00903334096284425,-0.190676737621118
1580421658.69299,-1.12721446555276,-0.048096437018387,-0.179934386205844
1580421658.69699,-1.15358205539025,-0.0905775539787896,-0.200930800335698
1580421658.70099,-1.19801632715343,-0.11108567940795,-0.185793850614175
1580421658.70499,-1.26588845654994,-0.0910658426794839,-0.114991989013504
1580421658.70899,-1.33327229724575,-0.0495613031204698,-0.114991989013504
1580421658.71299,-1.37917143511101,-0.0593270771343555,-0.169680323491264
1580421658.71699,-1.44264896620127,-0.0490730144197755,-0.178469520103761
1580421658.72099,-1.49098954757,-0.027588311589227,-0.211673151750972
1580421658.72498,-1.4992904554818,-0.0759288929579611,-0.298100251773862
1580421658.72898,-1.5080796520943,-0.172610055695429,-0.406012054627299
1580421658.73298,-1.54665445944915,-0.237064164187075,-0.45630579079881
1580421658.73698,-1.58962386511025,-0.248294804303043,-0.450934615091173
1580421658.74098,-1.62185091935607,-0.228274967574578,-0.420660715648127
1580421658.74498,-1.62526894026093,-0.190676737621118,-0.390386816205082
1580421658.74898,-1.59841306172274,-0.189211871519035,-0.375249866483559
1580421658.75298,-1.54177157244221,-0.226810101472495,-0.37085526817731
1580421658.75697,-1.46852826733806,-0.295170519569696,-0.372320134279393
1580421658.76097,-1.39577325093462,-0.367925535973145,-0.384039063096056
1580421658.76495,-1.3288776989395,-0.410406652933547,-0.407965209430076
1580421658.76895,-1.27077134355688,-0.392828259708553,-0.410406652933547
1580421658.77295,-1.21657129777981,-0.320561532005799,-0.403570611123827
1580421658.77695,-1.13795681696803,-0.251224536507211,-0.409430075532159
1580421658.78095,-1.0554360265507,-0.197512779430838,-0.398687724116884
1580421658.78495,-1.01197833218891,-0.104737926298924,-0.350835431448845
1580421658.78895,-1.01832608529793,0.0568856336308841,-0.272709239337759
1580421658.79294,-1.02174410620279,0.256107423514152,-0.210208285648889
1580421658.79694,-1.00025940337224,0.45191119249256,-0.178957808804455
1580421658.80094,-0.947035934996567,0.586678873884185,-0.147219043259327
1580421658.80494,-0.854749370565347,0.627206836041811,-0.185305561913481
1580421658.80894,-0.76392767223621,0.606210421911957,-0.259037155718319
1580421658.81294,-0.732677195391775,0.598397802700848,-0.305912870984971
1580421658.81694,-0.749767299916074,0.64869153887236,-0.313725490196079
1580421658.82094,-0.774670023651485,0.735118638895248,-0.321049820706493
1580421658.82493,-0.799572747386893,0.814709697108416,-0.319096665903716
1580421658.82893,-0.809338521400779,0.870374608987564,-0.304448004882888
1580421658.83293,-0.824475471122302,0.875257495994507,-0.264896620126651
1580421658.83693,-0.834729533836882,0.836194399938964,-0.229739833676661
1580421658.84093,-0.847913328755627,0.76734569314107,-0.189211871519035
1580421658.84494,-0.85963225757229,0.685313191424431,-0.144289311055161
1580421658.84894,-0.865003433279927,0.603280689707791,-0.102784771496147
1580421658.85294,-0.867444876783399,0.52906080720226,-0.0686045624475469
1580421658.85694,-0.866956588082704,0.472907606622414,-0.0466315709163041
1580421658.86093,-0.865003433279927,0.427008468757151,-0.0256351567864499
1580421658.86493,-0.857679102769513,0.388433661402303,-0.00854505226214997
1580421658.86893,-0.849866483558404,0.355230029755091,0.00903334096284425
1580421658.87293,-0.846936751354239,0.314702067597466,0.0300297550926985
1580421658.87693,-0.852307927061876,0.268802929732203,0.0505378805218584
1580421658.88093,-0.860608834973679,0.219485770962081,0.0642099641412983
1580421658.88493,-0.878187228198673,0.170168612191958,0.0729991607537954
1580421658.88893,-0.89723048752575,0.123292896925307,0.0837415121690697
1580421658.89293,-0.917250324254216,0.0842298008697639,0.0856946669718468
1580421658.89692,-0.937758449683376,0.0505378805218584,0.0837415121690697
1580421658.90092,-0.948989089799344,0.0227054245822842,0.0793469138628211
1580421658.90492,-0.95875486381323,0.00415045395590141,0.0720225833524069
1580421658.90892,-0.969497215228504,-0.0109864957656214,0.0617685206378269
1580421658.91292,-0.979751277943084,-0.0158693827725642,0.0505378805218584
1580421658.91692,-0.994888227664607,-0.0207522697795071,0.0402838178072784
1580421658.92092,-1.01051346608682,-0.0183108262760356,0.0256351567864499
1580421658.9249,-1.03346303501946,-0.0168459601739528,0.00708018616006711
1580421658.92889,-1.05983062485695,-0.0109864957656214,-0.0163576714732585
1580421658.93289,-1.08619821469444,-0.0148928053711757,-0.0368657969024184
1580421658.93689,-1.11598382543679,-0.0153810940718699,-0.0539559014267184
1580421658.94089,-1.14186312657359,-0.0202639810788128,-0.0715342946517126
1580421658.94489,-1.17116044861524,-0.0222171358815899,-0.0798352025635154
1580421658.94889,-1.20094605935759,-0.0227054245822842,-0.101319905394064
1580421658.95289,-1.23317311360342,-0.027588311589227,-0.106691081101701
1580421658.95689,-1.25612268253605,-0.0388189517051956,-0.128175783932249
1580421658.96088,-1.27956054016938,-0.0515144579232469,-0.134523537041275
1580421658.96488,-1.30153353170062,-0.0656748302433812,-0.141359578850995
1580421658.96888,-1.31569390402075,-0.0817883573662925,-0.141359578850995
1580421658.97288,-1.32497138933394,-0.102784771496147,-0.145754177157244
1580421658.97688,-1.33083085374228,-0.120851453421835,-0.144777599755855
1580421658.98088,-1.32741283283742,-0.147219043259327,-0.142336156252384
1580421658.98488,-1.31911192492561,-0.171145189593346,-0.136964980544747
1580421658.98888,-1.3117875944152,-0.198489356832226,-0.128664072632944
1580421658.99287,-1.30251010910201,-0.226810101472495,-0.127687495231555
1580421658.99687,-1.28932631418326,-0.257572289616236,-0.132082093537804
1580421659.00087,-1.28395513847562,-0.286381322957199,-0.123292896925307
1580421659.00488,-1.28249027237354,-0.302006561379416,-0.107179369802395
1580421659.00888,-1.28151369497215,-0.323979552910659,-0.109620813305867
1580421659.01288,-1.27907225146868,-0.341557946135653,-0.114015411612115
1580421659.01688,-1.27907225146868,-0.362066071564813,-0.119386587319752
1580421659.02088,-1.26784161135271,-0.380621042191196,-0.120363164721141
1580421659.02488,-1.26686503395132,-0.392339971007859,-0.120851453421835
1580421659.02887,-1.24879835202563,-0.410406652933547,-0.122804608224612
1580421659.03287,-1.22096589608606,-0.427008468757153,-0.127199206530861
1580421659.03687,-1.19606317235065,-0.447516594186313,-0.12475776302739
1580421659.04087,-1.16188296330205,-0.47339589532311,-0.134035248340581
1580421659.04487,-1.12623788815137,-0.494880598153658,-0.154055085069047
1580421659.04887,-1.10084687571527,-0.503669794766155,-0.167727168688486
1580421659.05287,-1.07789730678263,-0.503181506065461,-0.183840695811398
1580421659.05687,-1.06471351186389,-0.498786907759213,-0.196536202029449
1580421659.06086,-1.05787747005417,-0.488044556343938,-0.221438925764858
1580421659.06486,-1.04811169604028,-0.474860761425193,-0.241458762493323
1580421659.06886,-1.0466468299382,-0.452399481193256,-0.254154268711376
1580421659.07286,-1.04518196383612,-0.428473334859236,-0.279056992446785
1580421659.07686,-1.0383459220264,-0.404547188525216,-0.295170519569696
1580421659.08086,-1.03736934462501,-0.390386816205082,-0.302006561379416
1580421659.08484,-1.03395132372015,-0.386480506599527,-0.306889448386359
1580421659.08884,-1.02711528191043,-0.385015640497445,-0.302983138780805
1580421659.09284,-1.01441977569238,-0.391851682307164,-0.302494850080111
1580421659.09683,-1.0036774242771,-0.41187151903563,-0.300541695277333
1580421659.10083,-0.994888227664607,-0.431403067063401,-0.301029983978028
1580421659.10483,-0.989028763256275,-0.45630579079881,-0.296147096971085
1580421659.10883,-0.980727855344472,-0.492439154650187,-0.299076829175251
1580421659.11283,-0.967544060425727,-0.524177920195315,-0.298100251773862
1580421659.11683,-0.948012512397955,-0.563729304951552,-0.300053406576639
1580421659.12083,-0.920668345159076,-0.593026626993209,-0.294682230869002
1580421659.12483,-0.889906157015336,-0.618905928130006,-0.293217364766919
1580421659.12882,-0.861097123674373,-0.639902342259861,-0.277592126344702
1580421659.13282,-0.83570611123827,-0.654551003280689,-0.248783093003738
1580421659.13682,-0.821057450217442,-0.680430304417486,-0.230716411078049
1580421659.14082,-0.81177996490425,-0.731700617990386,-0.214602883955138
1580421659.14482,-0.809826810101473,-0.778576333257039,-0.204348821240558
1580421659.14882,-0.812756542305639,-0.822522316319525,-0.199465934233615
1580421659.15282,-0.813733119707027,-0.842053864347296,-0.198001068131532
1580421659.15682,-0.814221408407722,-0.830823224231327,-0.195559624628061
1580421659.16082,-0.802502479591059,-0.795178149080645,-0.191653315022506
1580421659.16482,-0.78785381857023,-0.748302433813992,-0.196047913328755
1580421659.16882,-0.776623178454262,-0.710704203860532,-0.189700160219729
1580421659.17282,-0.773693446250096,-0.674082551308461,-0.178469520103761
1580421659.17682,-0.778576333257039,-0.647226672770275,-0.172610055695429
1580421659.18082,-0.782482642862593,-0.635996032654306,-0.156984817273212
1580421659.18482,-0.792248416876479,-0.634531166552224,-0.145265888456549
1580421659.18882,-0.806408789196613,-0.637949187457084,-0.146730754558632
1580421659.19282,-0.817639429312582,-0.639902342259861,-0.144777599755855
1580421659.19682,-0.820569161516747,-0.643808651865415,-0.157961394674601
1580421659.20081,-0.819592584115359,-0.652109559777218,-0.166750591287098
1580421659.20481,-0.810315098802167,-0.659433890287632,-0.177492942702372
1580421659.20881,-0.799572747386893,-0.665781643396658,-0.182375829709315
1580421659.21281,-0.783459220263982,-0.663828488593881,-0.283451590753033
1580421659.21681,-0.865003433279927,-0.551033798733501,-0.508064393072404
1580421659.22081,-0.914808880750744,-0.356694895857176,-0.43921568627451
1580421659.22481,-0.846448462653544,-0.338139925230793,-0.479255359731441
1580421659.2288,-0.764415960936905,-0.415777828641184,-0.686289768825818
1580421659.2328,-0.894789044022279,-0.308842603189136,-0.620370794232089
1580421659.2368,-1.19606317235065,0.161867704280155,-0.160891126878766
1580421659.2408,-1.42507057297627,0.729259174486916,0.230716411078049
1580421659.24478,-1.48073548485542,0.98268101014725,0.331303883421072
1580421659.24878,-1.38747234302281,0.826916914625773,0.217532616159303
1580421659.25278,-1.22487220569161,0.469489585717554,0.0466315709163041
1580421659.25678,-1.05494773785,0.113038834210727,-0.156496528572518
1580421659.26078,-0.95533684290837,-0.119874876020447,-0.309819180590525
1580421659.26478,-0.946547646295873,-0.188235294117646,-0.461188677805753
1580421659.26877,-0.988540474555581,-0.130617227435721,-0.556893263141832
1580421659.27277,-1.0720378423743,0.0349126420996413,-0.372320134279393
1580421659.27677,-1.11598382543679,0.140383001449607,-0.172121766994735
1580421659.28077,-1.07545586327916,0.0476081483176927,-0.124269474326695
1580421659.28477,-1.04469367513542,-0.138918135347524,-0.176028076600289
1580421659.28877,-1.03541618982223,-0.281498435950256,-0.261478599221791
1580421659.29277,-1.02906843671321,-0.395269703212024,-0.347417410543985
1580421659.29676,-1.06129549095903,-0.489509422446021,-0.40161745632105
1580421659.30076,-1.15992980849927,-0.585214007782101,-0.348882276646068
1580421659.30476,-1.28297856107424,-0.720469977874417,-0.301029983978028
1580421659.30876,-1.42458228427558,-0.809826810101473,-0.249759670405126
1580421659.31276,-1.55153734645609,-0.799084458686199,-0.178957808804455
1580421659.31676,-1.60427252613107,-0.696055542839703,-0.135500114442664
1580421659.32076,-1.57399862668803,-0.541268024719615,-0.111573968108644
1580421659.32474,-1.48073548485542,-0.385503929198139,-0.0881361104753182
1580421659.32874,-1.34840924696727,-0.266361486228734,-0.0759288929579611
1580421659.33273,-1.20680552376593,-0.184328984512092,-0.0915541313801782
1580421659.33673,-1.07594415197986,-0.139894712748912,-0.111573968108644
1580421659.34073,-0.959731441214618,-0.127199206530861,-0.145754177157244
1580421659.34473,-0.856702525368124,-0.141359578850995,-0.190676737621118
1580421659.34873,-0.77418173495079,-0.189700160219729,-0.239505607690546
1580421659.35273,-0.725841153582055,-0.24682993820096,-0.282475013351645
1580421659.35673,-0.719981689173723,-0.312748912794691,-0.315190356298162
1580421659.36073,-0.737560082398717,-0.369390402075227,-0.328862439917602
1580421659.36472,-0.772228580148013,-0.396246280613413,-0.331303883421073
1580421659.36872,-0.813244831006333,-0.403082322423133,-0.312260624093996
1580421659.37272,-0.854749370565347,-0.404547188525216,-0.293705653467613
1580421659.37672,-0.893324177920196,-0.407476920729382,-0.279056992446785
1580421659.38072,-0.935805294880598,-0.406500343327993,-0.264896620126651
1580421659.38472,-0.981704432745861,-0.389898527504387,-0.253177691309988
1580421659.38872,-1.0295567254139,-0.358159761959259,-0.24682993820096
1580421659.39272,-1.05494773785,-0.314702067597468,-0.262455176623179
1580421659.39671,-1.05836575875486,-0.278568703746091,-0.281010147249562
1580421659.40071,-1.05055313954376,-0.252689402609294,-0.308354314488442
1580421659.40472,-1.03736934462501,-0.241458762493323,-0.325932707713436
1580421659.40872,-1.02516212710765,-0.235599298084992,-0.342046234836348
1580421659.41272,-1.01881437399863,-0.240970473792629,-0.349858854047456
1580421659.41672,-1.01393148699168,-0.253177691309988,-0.348882276646068
1580421659.42072,-1.00660715648127,-0.265873197528039,-0.322026398107882
1580421659.42472,-1.00563057907988,-0.262455176623179,-0.294193942168308
1580421659.42872,-1.00709544518196,-0.258548867017625,-0.265384908827345
1580421659.43271,-1.00953688868544,-0.246341649500266,-0.24682993820096
1580421659.43671,-1.00856031128405,-0.239017318989852,-0.253665980010682
1580421659.44071,-1.0129549095903,-0.228274967574578,-0.264408331425956
1580421659.44471,-1.01979095140002,-0.221438925764858,-0.276615548943314
1580421659.44871,-1.02223239490349,-0.215579461356526,-0.304448004882888
1580421659.45271,-1.02369726100557,-0.202883955138475,-0.304936293583582
1580421659.45671,-1.01490806439307,-0.179934386205844,-0.306401159685665
1580421659.46071,-0.997329671168078,-0.162355992980849,-0.313237201495385
1580421659.4647,-0.98268101014725,-0.144289311055161,-0.333745326924545
1580421659.4687,-0.965102616922255,-0.138429846646829,-0.363042648966202
1580421659.4727,-0.949477378500038,-0.153078507667658,-0.369390402075227
1580421659.4767,-0.93824673838407,-0.169680323491264,-0.360112916762036
1580421659.4807,-0.939711604486153,-0.196047913328755,-0.344975967040513
1580421659.48468,-0.938735027084764,-0.216067750057221,-0.334721904325933
1580421659.48868,-0.940199893186847,-0.235111009384298,-0.342046234836348
1580421659.49268,-0.940688181887541,-0.259525444419014,-0.359136339360647
1580421659.49668,-0.94166475928893,-0.276127260242619,-0.365972381170367
1580421659.50067,-0.946547646295873,-0.281498435950256,-0.354253452353705
1580421659.50467,-0.952407110704204,-0.278080415045396,-0.339116502632182
1580421659.50867,-0.959731441214618,-0.265873197528039,-0.322514686808576
1580421659.51267,-0.956313420309758,-0.263431754024568,-0.311284046692608
1580421659.51667,-0.961684596017395,-0.256595712214848,-0.299565117875945
1580421659.52067,-0.966567483024338,-0.24682993820096,-0.288334477759976
1580421659.52467,-0.966079194323644,-0.240970473792629,-0.282963302052339
1580421659.52867,-0.962661173418784,-0.235599298084992,-0.270267795834288
1580421659.53267,-0.966079194323644,-0.224856946669718,-0.262943465323874
1580421659.53666,-0.974868390936141,-0.207278553444723,-0.256107423514154
1580421659.54066,-0.975356679636835,-0.188235294117646,-0.254642557412071
1580421659.54466,-0.976821545738918,-0.170656900892652,-0.255130846112765
1580421659.54866,-0.980727855344472,-0.152590218966964,-0.253177691309988
1580421659.55266,-0.98609903105211,-0.141359578850995,-0.261966887922485
1580421659.55666,-0.981216144045167,-0.134035248340581,-0.276127260242619
1580421659.56066,-0.981704432745861,-0.138429846646829,-0.272709239337759
1580421659.56467,-0.985122453650721,-0.144777599755855,-0.262455176623179
1580421659.56867,-0.988052185854887,-0.148195620660715,-0.263431754024568
1580421659.57266,-0.980727855344472,-0.169192034790569,-0.272220950637065
1580421659.57666,-0.97584496833753,-0.181887541008621,-0.267338063630122
1580421659.58066,-0.966079194323644,-0.193606469825284,-0.264896620126651
1580421659.58466,-0.958266575112535,-0.201907377737086,-0.268314641031511
1580421659.58866,-0.947524223697261,-0.214114595254443,-0.296147096971085
1580421659.59266,-0.936781872281987,-0.224368657969023,-0.312748912794691
1580421659.59666,-0.928480964370184,-0.226321812771801,-0.305424582284276
1580421659.60065,-0.928969253070878,-0.221927214465552,-0.303471427481499
1580421659.60465,-0.930922407873656,-0.215579461356526,-0.295170519569696
1580421659.60865,-0.940199893186847,-0.209231708247501,-0.294682230869002
1580421659.61265,-0.946547646295873,-0.202395666437781,-0.307377737087053
1580421659.61665,-0.941176470588236,-0.203860532539863,-0.310307469291219
1580421659.62065,-0.93141069657435,-0.205325398641946,-0.324956130312048
1580421659.62465,-0.92799267566949,-0.203860532539863,-0.327397573815519
1580421659.62865,-0.935317006179904,-0.198001068131532,-0.316655222400245
1580421659.63264,-0.939223315785458,-0.195071335927366,-0.309330891889831
1580421659.63664,-0.941176470588236,-0.204837109941252,-0.309819180590525
1580421659.64064,-0.949477378500038,-0.226321812771801,-0.301518272678722
1580421659.64462,-0.971450370031281,-0.228763256275272,-0.299565117875945
1580421659.64862,-0.993423361562524,-0.221927214465552,-0.287846189059282
1580421659.65262,-1.00172426947433,-0.218997482261386,-0.291752498664836
1580421659.65662,-1.01344319829099,-0.227298390173189,-0.305424582284276
1580421659.66062,-1.02320897230488,-0.239505607690546,-0.316655222400245
1580421659.66462,-1.03102159151598,-0.257572289616236,-0.323491264209965
1580421659.66861,-1.05397116044862,-0.252201113908599,-0.317631799801633
1580421659.67261,-1.07399099717708,-0.234622720683603,-0.312260624093996
1580421659.67661,-1.08033875028611,-0.235599298084992,-0.316655222400245
1580421659.68061,-1.07838559548333,-0.257084000915542,-0.31958495460441
1580421659.68461,-1.08180361638819,-0.290775921263448,-0.302006561379416
1580421659.68861,-1.08717479209583,-0.301029983978028,-0.260013733119708
1580421659.69261,-1.10035858701457,-0.262943465323874,-0.234134431982909
1580421659.69661,-1.08180361638819,-0.235599298084992,-0.266361486228734
1580421659.7006,-1.05592431525139,-0.221438925764858,-0.276615548943314
1580421659.7046,-1.05201800564584,-0.209719996948195,-0.279545281147479
1580421659.7086,-1.04371709773404,-0.206790264744029,-0.291752498664836
1580421659.7126,-1.04908827344167,-0.170656900892652,-0.289799343862059
1580421659.7166,-1.04371709773404,-0.120363164721141,-0.298588540474556
1580421659.7206,-1.0383459220264,-0.101319905394064,-0.291752498664836
1580421659.72461,-1.0471351186389,-0.108155947203784,-0.266849774929428
1580421659.72861,-1.08473334859235,-0.103761348897535,-0.220462348363469
1580421659.73261,-1.11696040283818,-0.102784771496147,-0.209719996948195
1580421659.7366,-1.10377660791943,-0.112062256809338,-0.240970473792629
1580421659.7406,-1.07399099717708,-0.109620813305867,-0.249759670405126
1580421659.7446,-1.05836575875486,-0.0783703364614325,-0.226321812771801
1580421659.7486,-1.05201800564584,-0.0300297550926985,-0.227298390173189
1580421659.7526,-1.0471351186389,0.00415045395590141,-0.245365072098878
1580421659.7566,-1.05006485084306,0.00659189745937283,-0.238040741588463
1580421659.7606,-1.07057297627222,-0.000732433051041426,-0.227786678873883
1580421659.7646,-1.09987029831388,-0.0202639810788128,-0.226321812771801
1580421659.76859,-1.1237964446479,-0.0422369726100555,-0.250247959105822
1580421659.77259,-1.15211718928817,-0.0471198596169984,-0.257572289616236
1580421659.77659,-1.18092622262913,-0.0451667048142212,-0.274174105439842
1580421659.78059,-1.20631723506523,-0.0578622110322726,-0.294193942168308
1580421659.78459,-1.23317311360342,-0.0764171816586554,-0.284428168154422
1580421659.78859,-1.26832990005341,-0.0832532234683754,-0.267826352330816
1580421659.79259,-1.29127946898604,-0.0993667505912867,-0.253665980010682
1580421659.79659,-1.31569390402075,-0.112550545510032,-0.243900205996795
1580421659.80059,-1.33620202944991,-0.123292896925307,-0.23657587548638
1580421659.80456,-1.34499122606241,-0.139894712748912,-0.250736247806516
1580421659.80856,-1.35085069047074,-0.141847867551689,-0.253177691309988
1580421659.81256,-1.36012817578393,-0.130128938735027,-0.256107423514154
1580421659.81656,-1.36647592889296,-0.109132524605172,-0.264408331425956
1580421659.82056,-1.37819485770962,-0.0788586251621268,-0.253665980010682
1580421659.82456,-1.3889372091249,-0.0437018387121384,-0.262455176623179
1580421659.82856,-1.4060273136492,-0.0187991149767299,-0.263920042725262
1580421659.83256,-1.42458228427558,0.000244144350347142,-0.276615548943314
1580421659.83656,-1.44411383230335,0.00415045395590141,-0.285404745555811
1580421659.84055,-1.46218051422904,-0.00219729915312428,-0.305424582284276
1580421659.84455,-1.48805981536584,-0.0100099183642328,-0.324467841611353
1580421659.84855,-1.52272831311513,0.000244144350347142,-0.319096665903716
1580421659.85255,-1.56472114137484,0.01196307316701,-0.335210193026628
1580421659.85655,-1.59890135042344,0.0285648889906156,-0.347905699244679
1580421659.86055,-1.64138246738384,0.0393072404058898,-0.356694895857176
1580421659.86455,-1.68386358434424,0.0451667048142212,-0.386968795300222
1580421659.86854,-1.72927443350881,0.0578622110322726,-0.409430075532159
1580421659.87254,-1.77566186007477,0.0852063782711525,-0.432867933165484
1580421659.87654,-1.8074006256199,0.125734340428778,-0.445563439383536
1580421659.88054,-1.82351415274281,0.169192034790569,-0.461188677805753
1580421659.88455,-1.82253757534142,0.191165026321812,-0.469489585717556
1580421659.88855,-1.82107270923934,0.204348821240558,-0.452399481193256
1580421659.89255,-1.83035019455253,0.232181277180132,-0.421149004348822
1580421659.89655,-1.83474479285878,0.25708400091554,-0.375738155184253
1580421659.90055,-1.82986190585184,0.250736247806515,-0.343022812237736
1580421659.90454,-1.81521324483101,0.235111009384298,-0.35718318455787
1580421659.90854,-1.81423666742962,0.244876783398183,-0.357671473258565
1580421659.91254,-1.82058442053864,0.280521858548866,-0.345464255741208
1580421659.91654,-1.81033035782406,0.314702067597466,-0.347417410543985
1580421659.92054,-1.78640421149004,0.32202639810788,-0.355718318455787
1580421659.92454,-1.77419699397269,0.309330891889829,-0.341069657434959
1580421659.92854,-1.78542763408866,0.264408331425955,-0.341557946135653
1580421659.93254,-1.81521324483101,0.198001068131532,-0.359624628061342
1580421659.93653,-1.85525291828794,0.149172198062104,-0.391851682307164
1580421659.94053,-1.89626916914626,0.127687495231555,-0.419684138246739
1580421659.94453,-1.9187304493782,0.11792172121767,-0.45972381170367
1580421659.94853,-1.91580071717403,0.153566796368352,-0.492927443350881
1580421659.95253,-1.86306553749905,0.198001068131532,-0.52808422980087
1580421659.95653,-1.7556420233463,0.229251544975966,-0.55201037613489
1580421659.96053,-1.62624551766232,0.256595712214846,-0.623788815136949
1580421659.96451,-1.48317692835889,0.269779507133592,-0.695567254139009
1580421659.96851,-1.32643625543603,0.269291218432897,-0.650156404974441
1580421659.9725,-1.15846494239719,0.208255130846112,-0.565194171053635
1580421659.9765,-0.980239566643778,0.0393072404058898,-0.447516594186313
1580421659.9805,-0.837659266041047,-0.260502021820402,-0.351323720149539
1580421659.9845,-0.763439383535516,-0.656504158083466,-0.313237201495385
1580421659.9885,-0.803967345693142,-0.923109788662547,-0.32983901731899
1580421659.9925,-0.905531395437553,-0.767833981841765,-0.193606469825284
1580421659.9965,-1.03395132372015,-0.582284275577935,-0.0817883573662925
1580421660.0005,-1.09742885481041,-0.548104066529335,-0.265873197528039
1580421660.00449,-1.00074769207294,-0.36743724727245,-0.526131074998093
1580421660.00849,-0.871351186388953,0.0197756923781185,-0.575936522468909
1580421660.01249,-0.797131303883422,0.375249866483557,-0.506599526970321
1580421660.01649,-0.768810559243153,0.65210955977722,-0.415777828641184
1580421660.02049,-0.747814145113297,0.878187228198673,-0.32642099641413
1580421660.02449,-0.73560692759594,1.05787747005417,-0.288334477759976
1580421660.02849,-0.720469977874417,1.13795681696803,-0.259525444419014
1580421660.03249,-0.685801480125123,1.09156939040207,-0.225833524071106
1580421660.03648,-0.617441062027924,0.954360265506981,-0.208255130846112
1580421660.04048,-0.53150225070573,0.80836194399939,-0.206301976043335
1580421660.04446,-0.440192263675899,0.672129396505685,-0.225345235370412
1580421660.04846,-0.363530937666896,0.537361715114063,-0.247318226901655
1580421660.05246,-0.292729076066225,0.408453498130768,-0.264408331425956
1580421660.05646,-0.248783093003738,0.298588540474555,-0.281010147249562
1580421660.06046,-0.225345235370412,0.208743419546806,-0.287846189059282
1580421660.06446,-0.218509193560692,0.127199206530861,-0.298588540474556
1580421660.06846,-0.227786678873883,0.0461432822156098,-0.307377737087053
1580421660.07245,-0.257084000915542,-0.0266117341878385,-0.290287632562753
1580421660.07645,-0.311772335393302,-0.0827649347676811,-0.254154268711376
1580421660.08045,-0.390386816205082,-0.110597390707255,-0.200442511635003
1580421660.08445,-0.488044556343938,-0.110109102006561,-0.145265888456549
1580421660.08845,-0.600350957503624,-0.0813000686655982,-0.10766765850309
1580421660.09245,-0.669199664301518,-0.0524910353246355,-0.0817883573662925
1580421660.09645,-0.667734798199435,-0.0402838178072784,-0.0476081483176927
1580421660.10045,-0.648203250171663,-0.0349126420996413,-0.00805676356145568
1580421660.10444,-0.641367208361943,-0.0134279392690928,0.0329594872968642
1580421660.10844,-0.655527580682078,0.00268558785381856,0.0598153658350498
1580421660.11244,-0.681406881818875,0.0212405584802013,0.0720225833524069
1580421660.11644,-0.714122224765392,0.0246585793850613,0.0729991607537954
1580421660.12044,-0.74927901121538,0.00854505226214997,0.0666514076447697
1580421660.12445,-0.791760128175785,-0.0256351567864499,0.048096437018387
1580421660.12845,-0.844983596551462,-0.0769054703593497,0.044678416113527
1580421660.13245,-0.90406652933547,-0.138918135347524,0.0534676127260241
1580421660.13645,-0.960219729915313,-0.209231708247501,0.0549324788281069
1580421660.14044,-1.01393148699168,-0.281010147249562,0.0476081483176927
1580421660.14444,-1.06178377965972,-0.347905699244679,0.0246585793850613
1580421660.14844,-1.10768291752499,-0.393804837109942,0.00659189745937283
1580421660.15244,-1.14430457007706,-0.41870756084535,-0.0173342488746471
1580421660.15644,-1.16725413900969,-0.421149004348822,-0.0432135500114441
1580421660.16044,-1.18190280003052,-0.406012054627299,-0.0793469138628211
1580421660.16444,-1.18483253223468,-0.383062485694667,-0.114015411612115
1580421660.16844,-1.18922713054093,-0.348882276646068,-0.144777599755855
1580421660.17244,-1.20192263675898,-0.311284046692608,-0.164797436484321
1580421660.17643,-1.2263370717937,-0.285404745555811,-0.172610055695429
1580421660.18043,-1.26247043564508,-0.263431754024568,-0.202883955138475
1580421660.18443,-1.3034866865034,-0.244388494697489,-0.237552452887769
1580421660.18843,-1.34889753566796,-0.237064164187075,-0.279545281147479
1580421660.19243,-1.40163271534295,-0.229739833676661,-0.296635385671779
1580421660.19643,-1.4572976272221,-0.235599298084992,-0.306401159685665
1580421660.20043,-1.51345082780194,-0.260502021820402,-0.310795757991913
1580421660.20444,-1.56960402838178,-0.298100251773862,-0.313237201495385
1580421660.20844,-1.62233920805676,-0.333745326924545,-0.320561532005799
1580421660.21243,-1.67409781033036,-0.364507515068285,-0.333745326924545
1580421660.21643,-1.72487983520256,-0.399664301518273,-0.34351110093843
1580421660.22043,-1.76247806515602,-0.445563439383536,-0.338139925230793
1580421660.22443,-1.80251773861296,-0.489021133745327,-0.326909285114825
1580421660.22843,-1.82156099794003,-0.544197756923781,-0.31958495460441
1580421660.23243,-1.82351415274281,-0.606210421911955,-0.302983138780805
1580421660.23643,-1.80886549172198,-0.668711375600823,-0.273197528038454
1580421660.24043,-1.78347447928588,-0.730235751888303,-0.227298390173189
1580421660.24442,-1.75759517814908,-0.788830395971619,-0.194583047226672
1580421660.24842,-1.73708705271992,-0.874280918593119,-0.179446097505149
1580421660.25242,-1.73366903181506,-0.983169298847944,-0.163820859082932
1580421660.25642,-1.75320057984283,-1.11940184634165,-0.148683909361409
1580421660.26042,-1.80495918211643,-1.28053711757076,-0.142824444953078
1580421660.26442,-1.86501869230182,-1.44557869840543,-0.138429846646829
1580421660.26842,-1.91531242847334,-1.59597161821927,-0.149172198062104
1580421660.27242,-1.92214847028306,-1.70583657587549,-0.179934386205844
1580421660.27641,-1.87429617761502,-1.76882581826505,-0.231204699778743
1580421660.28041,-1.77517357137408,-1.7903105210956,-0.296147096971085
1580421660.28439,-1.63894102388037,-1.78298619058518,-0.367925535973145
1580421660.28839,-1.4914778362707,-1.76394293125811,-0.420172426947433
1580421660.29239,-1.34206149385824,-1.7390402075227,-0.476325627527276
1580421660.29639,-1.19411001754787,-1.72780956740673,-0.559822995345998
1580421660.30039,-1.07154955367361,-1.7390402075227,-0.622323949034866
1580421660.30439,-0.97926298924239,-1.7815213244831,-0.671152819104295
1580421660.30838,-0.90406652933547,-1.84353398947128,-0.723887998779277
1580421660.31238,-0.844983596551462,-1.9182421606775,-0.757091630426491
1580421660.31638,-0.803479056992447,-2.00027466239414,-0.759044785229268
1580421660.32038,-0.780529488059816,-2.07498283360037,-0.722911421377889
1580421660.32438,-0.768322270542459,-2.1321126115816,-0.666269932097352
1580421660.32838,-0.748790722514686,-2.16433966582742,-0.602304112306401
1580421660.33238,-0.729747463187609,-2.16824597543297,-0.52808422980087
1580421660.33638,-0.721446555275806,-2.15994506752117,-0.458258945601587
1580421660.34038,-0.729747463187609,-2.1487144274052,-0.388433661402305
1580421660.34437,-0.744396124208437,-2.14529640650034,-0.337651636530099
1580421660.34837,-0.768810559243153,-2.14627298390173,-0.292240787365531
1580421660.35237,-0.793713282978562,-2.15066758220798,-0.268314641031511
1580421660.35637,-0.821545738918136,-2.14285496299687,-0.2434119172961
1580421660.36037,-0.849866483558404,-2.11941710536355,-0.23315785458152
1580421660.36435,-0.871351186388953,-2.06424048218509,-0.230716411078049
1580421660.36835,-1.07692072938125,-1.89089799343862,-0.376714732585642
1580421660.37235,-1.09352254520485,-1.60817883573663,-0.733165484092469
1580421660.37634,-1.12135500114443,-1.07301441977569,-0.658457312886243
1580421660.38034,-0.98951705195697,-1.01881437399863,-0.732677195391775
1580421660.38434,-1.01002517738613,-0.952895399404898,-1.10768291752499
1580421660.38834,-1.41579308766308,-0.299565117875945,-0.84254215304799
1580421660.39234,-1.79812314030671,0.719981689173725,-0.173098344396124
1580421660.39634,-1.95730525673304,1.69167620355535,0.152590218966964
1580421660.40034,-1.90701152056153,2.01492332341497,0.140871290150301
1580421660.40434,-1.68191042954147,1.5769283588922,0.0847180895704582
1580421660.40833,-1.37868314641032,0.802990768291753,-0.11108567940795
1580421660.41233,-1.0891279468986,0.0686045624475469,-0.378667887388419
1580421660.41633,-0.933363851377127,-0.523689631494621,-0.626718547341115
1580421660.42033,-0.972915236133364,-0.925062943465324,-0.893324177920196
1580421660.42433,-1.15651178759441,-1.01686121919585,-0.964126039520867
1580421660.42833,-1.36989394979782,-0.708751049057755,-0.536873426413367
1580421660.43233,-1.42409399557488,-0.309819180590525,-0.109620813305867
1580421660.43633,-1.27858396276799,-0.214114595254443,-0.00854505226214997
1580421660.44033,-1.149187457084,-0.344975967040513,-0.136964980544747
1580421660.44434,-1.06031891355764,-0.470954451819638,-0.334233615625239
1580421660.44833,-1.03883421072709,-0.531013962005035,-0.442145418478676
1580421660.45233,-1.06861982146944,-0.599862668802929,-0.475349050125887
1580421660.45633,-1.17701991302357,-0.753673609521631,-0.363530937666896
1580421660.46033,-1.32985427634089,-1.02174410620279,-0.23657587548638
1580421660.46433,-1.53835355153735,-1.25075150682841,-0.162355992980849
1580421660.46833,-1.67312123292897,-1.39772640573739,-0.122804608224612
1580421660.47233,-1.69021133745327,-1.38698405432212,-0.027588311589227
1580421660.47633,-1.64821850919356,-1.23268482490272,0.0144045166704814
1580421660.48032,-1.59401846341649,-1.02272068360418,0.0656748302433812
1580421660.48432,-1.52907606622415,-0.811291676203556,0.150637064164187
1580421660.48832,-1.4480201419089,-0.619394216830701,0.168703746089875
1580421660.49232,-1.31325246051728,-0.489997711146716,0.0905775539787896
1580421660.49632,-1.14283970397497,-0.435309376668956,-0.0314946211947813
1580421660.50032,-0.976333257038224,-0.416754406042573,-0.197512779430838
1580421660.50432,-0.848401617456322,-0.409918364232853,-0.37769130998703
1580421660.50832,-0.760509651331351,-0.412359807736324,-0.531013962005035
1580421660.51231,-0.736095216296635,-0.408941786831464,-0.591561760891127
1580421660.51631,-0.751720454718853,-0.392339971007859,-0.558358129243915
1580421660.52031,-0.785412375066759,-0.36401922636759,-0.490974288548104
1580421660.52429,-0.805920500495919,-0.325932707713436,-0.454352635996033
1580421660.52829,-0.816662851911193,-0.283451590753033,-0.465094987411307
1580421660.53229,-0.835217822537576,-0.242435339894712,-0.511970702677958
1580421660.53629,-0.860608834973679,-0.198489356832226,-0.560311284046692
1580421660.54029,-0.881605249103533,-0.156008239871824,-0.601327534905012
1580421660.54428,-0.898695353627833,-0.122804608224612,-0.623788815136949
1580421660.54828,-0.929457541771573,-0.0925307087815668,-0.609140154116121
1580421660.55228,-0.972915236133364,-0.0583504997329669,-0.580331120775158
1580421660.55628,-1.01734950789654,-0.0554207675288012,-0.53833829251545
1580421660.56028,-1.04518196383612,-0.0856946669718468,-0.520271610589761
1580421660.56428,-1.05152971694514,-0.162844281681544,-0.503669794766155
1580421660.56828,-1.05494773785,-0.274174105439842,-0.482185091935607
1580421660.57228,-1.07985046158541,-0.374761577782865,-0.444098573281453
1580421660.57627,-1.11403067063401,-0.453864347295339,-0.379156176089113
1580421660.58027,-1.12526131074998,-0.499275196459907,-0.326909285114825
1580421660.58427,-1.11451895933471,-0.518318455786984,-0.281986724650951
1580421660.58827,-1.08766308079652,-0.512458991378653,-0.254154268711376
1580421660.59227,-1.06080720225834,-0.479743648432136,-0.228763256275272
1580421660.59627,-1.03248645761807,-0.437750820172427,-0.197512779430838
1580421660.60027,-1.01197833218891,-0.388433661402305,-0.175539787899595
1580421660.60428,-1.01832608529793,-0.324467841611353,-0.137453269245441
1580421660.60828,-1.03346303501946,-0.255619134813459,-0.119874876020447
1580421660.61228,-1.03248645761807,-0.182375829709315,-0.152101930266269
1580421660.61627,-1.01832608529793,-0.135500114442664,-0.187747005416952
1580421660.62027,-0.997329671168078,-0.110109102006561,-0.208255130846112
1580421660.62427,-0.987563897154192,-0.0993667505912867,-0.215579461356526
1580421660.62827,-0.984634164950027,-0.0949721522850382,-0.220950637064163
1580421660.63227,-0.988540474555581,-0.0871595330739297,-0.220462348363469
1580421660.63627,-0.999282825970855,-0.0676279850461583,-0.211673151750972
1580421660.64027,-1.00660715648127,-0.0485847257190812,-0.221438925764858
1580421660.64427,-1.00025940337224,-0.0397955291065841,-0.256107423514154
1580421660.64826,-0.98609903105211,-0.0559090562294955,-0.280521858548868
1580421660.65226,-0.972915236133364,-0.0783703364614325,-0.294682230869002
1580421660.65626,-0.977309834439613,-0.0891126878767068,-0.281498435950256
1580421660.66026,-0.987075608453498,-0.0822766460669868,-0.281010147249562
1580421660.66426,-0.98951705195697,-0.0598153658350498,-0.273197528038454
1580421660.66826,-0.976821545738918,-0.0461432822156098,-0.281010147249562
1580421660.67226,-0.955825131609064,-0.0471198596169984,-0.295170519569696
1580421660.67626,-0.940688181887541,-0.0710460059510183,-0.296635385671779
1580421660.68025,-0.923109788662547,-0.105714503700312,-0.308842603189136
1580421660.68423,-0.920180056458381,-0.139894712748912,-0.298588540474556
1580421660.68823,-0.922621499961853,-0.153566796368352,-0.284916456855116
1580421660.69223,-0.921644922560464,-0.162844281681544,-0.297123674372473
1580421660.69623,-0.915785458152133,-0.166262302586404,-0.310307469291219
1580421660.70023,-0.91432059205005,-0.165774013885709,-0.311772335393302
1580421660.70423,-0.917250324254216,-0.162844281681544,-0.323491264209965
1580421660.70823,-0.921644922560464,-0.177004654001678,-0.321049820706493
1580421660.71223,-0.935805294880598,-0.184817273212786,-0.309819180590525
1580421660.71622,-0.94850080109865,-0.191653315022506,-0.307866025787748
1580421660.72022,-0.951430533302815,-0.193606469825284,-0.302983138780805
1580421660.72422,-0.95533684290837,-0.204348821240558,-0.297123674372473
1580421660.72822,-0.957778286411841,-0.204837109941252,-0.298100251773862
1580421660.73222,-0.959731441214618,-0.191165026321812,-0.317631799801633
1580421660.73622,-0.949477378500038,-0.176516365300984,-0.338628213931488
1580421660.74022,-0.937270160982681,-0.169680323491264,-0.327885862516213
1580421660.74422,-0.930434119172961,-0.159914549477378,-0.32983901731899
1580421660.74821,-0.937758449683376,-0.159914549477378,-0.350835431448845
1580421660.75221,-0.949477378500038,-0.157473105973907,-0.348393987945373
1580421660.75621,-0.971450370031281,-0.135011825741969,-0.334233615625239
1580421660.76021,-0.977798123140307,-0.109620813305867,-0.364995803768979
1580421660.76422,-0.965102616922255,-0.105714503700312,-0.398687724116884
1580421660.76822,-0.964126039520867,-0.109620813305867,-0.397222858014802
1580421660.77222,-0.974868390936141,-0.0847180895704582,-0.397711146715496
1580421660.77622,-0.988052185854887,-0.0500495918211641,-0.396246280613413
1580421660.78022,-1.01051346608682,-0.0285648889906156,-0.378667887388419
1580421660.78421,-1.01881437399863,-0.0427252613107498,-0.364507515068285
1580421660.78821,-1.03346303501946,-0.0661631189440754,-0.338628213931488
1580421660.79221,-1.04908827344167,-0.0793469138628211,-0.290775921263448
1580421660.79621,-1.06227206836042,-0.0554207675288012,-0.278080415045396
1580421660.80021,-1.04371709773404,-0.0295414663920042,-0.276615548943314
1580421660.80421,-1.02711528191043,-0.0246585793850613,-0.247318226901655
1580421660.80821,-1.01490806439307,-0.0456549935149155,-0.234134431982909
1580421660.81221,-1.02613870450904,-0.0866712443732354,-0.190188448920424
1580421660.81621,-1.05299458304723,-0.105714503700312,-0.159426260776684
1580421660.8202,-1.072526131075,-0.120363164721141,-0.157473105973907
1580421660.8242,-1.09938200961318,-0.130617227435721,-0.174074921797512
1580421660.8282,-1.12672617685206,-0.138429846646829,-0.190676737621118
1580421660.8322,-1.16432440680552,-0.142824444953078,-0.186770428015564
1580421660.8362,-1.20729381246662,-0.139406424048218,-0.189211871519035
1580421660.8402,-1.243427176318,-0.128175783932249,-0.180910963607232
1580421660.84418,-1.27516594186313,-0.111573968108644,-0.183840695811398
1580421660.84818,-1.29372091248951,-0.0969253070878153,-0.183352407110704
1580421660.85217,-1.30788128480964,-0.0715342946517126,-0.187258716716258
1580421660.85617,-1.30885786221103,-0.041260395208667,-0.213626306553749
1580421660.86017,-1.3034866865034,-0.0192874036774242,-0.209719996948195
1580421660.86417,-1.30495155260548,0.00561532005798426,-0.211184863050278
1580421660.86817,-1.29958037689784,0.0153810940718699,-0.237064164187075
1580421660.87217,-1.29323262378882,0.0187991149767299,-0.248783093003738
1580421660.87617,-1.29860379949645,0.0173342488746471,-0.273685816739148
1580421660.88017,-1.31374074921798,0.0197756923781185,-0.288334477759976
1580421660.88416,-1.33620202944991,0.024170290684367,-0.314213778896773
1580421660.88816,-1.36110475318532,0.0109864957656214,-0.317631799801633
1580421660.89216,-1.39577325093462,-0.000732433051041426,-0.323491264209965
1580421660.89616,-1.43190661478599,-0.0124513618677042,-0.32983901731899
1580421660.90016,-1.45534447241932,-0.0134279392690928,-0.335210193026628
1580421660.90416,-1.47682917524987,-0.0163576714732585,-0.343999389639125
1580421660.90816,-1.49098954757,-0.0197756923781185,-0.347905699244679
1580421660.91216,-1.50417334248875,-0.0153810940718699,-0.343022812237736
1580421660.91615,-1.51882200350957,-0.00708018616006711,-0.332768749523156
1580421660.92015,-1.53493553063249,0.00561532005798426,-0.317631799801633
1580421660.92416,-1.55593194476234,0.0227054245822842,-0.326909285114825
1580421660.92816,-1.58815899900816,0.0500495918211641,-0.351323720149539
1580421660.93216,-1.62966353856718,0.0783703364614325,-0.349858854047456
1580421660.93616,-1.68239871824216,0.101319905394064,-0.356694895857176
1580421660.94016,-1.74538796063172,0.12475776302739,-0.402105745021744
1580421660.94416,-1.80349431601434,0.136964980544747,-0.423590447852293
1580421660.94816,-1.8586709391928,0.156984817273212,-0.420172426947433
1580421660.95215,-1.90066376745251,0.198489356832226,-0.41528953994049
1580421660.95615,-1.92312504768444,0.261478599221789,-0.419195849546044
1580421660.96015,-1.92068360418097,0.327397573815517,-0.424567025253682
1580421660.96415,-1.90652323186084,0.389898527504386,-0.41870756084535
1580421660.96815,-1.89773403524834,0.447028305485617,-0.390875104905776
1580421660.97215,-1.89675745784695,0.512458991378654,-0.35376516365301
1580421660.97615,-1.89675745784695,0.575936522468911,-0.317631799801633
1580421660.98015,-1.88308537422751,0.60425726710918,-0.260013733119708
1580421660.98414,-1.85720607309072,0.579842832074466,-0.183840695811398
1580421660.98814,-1.8410925459678,0.506111238269629,-0.105714503700312
1580421660.99214,-1.82497901884489,0.406988632028686,-0.0227054245822842
1580421660.99614,-1.81374837872892,0.291752498664835,0.00268558785381856
1580421661.00014,-1.81716639963378,0.213138017853055,-0.00561532005798426
1580421661.00412,-1.81326009002823,0.139894712748912,-0.0954604409857325
1580421661.00812,-1.80398260471504,0.0866712443732354,-0.168703746089875
1580421661.01212,-1.80105287251087,0.0788586251621268,-0.284916456855116
1580421661.01612,-1.80251773861296,0.131593804837109,-0.39478141451133
1580421661.02011,-1.8240024414435,0.197512779430838,-0.44605172808423
1580421661.02411,-1.83230334935531,0.251712825207903,-0.534431982909895
1580421661.02811,-1.79372854200046,0.260013733119706,-0.650644693675135
1580421661.03211,-1.71804379339284,0.230228122377355,-0.724376287479972
1580421661.03611,-1.60915541313802,0.205813687342641,-0.685801480125123
1580421661.04011,-1.45485618371862,0.178469520103761,-0.618905928130006
1580421661.04411,-1.27223620965896,0.164797436484321,-0.562752727550164
1580421661.04811,-1.08570992599374,0.119386587319752,-0.530037384603647
1580421661.0521,-0.898207064927139,-0.0168459601739528,-0.48023193713283
1580421661.0561,-0.722423132677195,-0.262455176623179,-0.540779736018921
1580421661.0601,-0.660898756389715,-0.519783321889067,-0.634042877851529
1580421661.0641,-0.781506065461205,-0.633554589150835,-0.500251773861295
1580421661.0681,-0.998306248569467,-0.701915007248035,-0.323491264209965
1580421661.0721,-1.09303425650416,-0.706309605554283,-0.331792172121768
1580421661.0761,-1.04371709773404,-0.606698710612649,-0.430914778362707
1580421661.0801,-0.977798123140307,-0.412848096437019,-0.453376058594644
1580421661.08411,-0.91773861295491,-0.174563210498206,-0.395269703212024
1580421661.0881,-0.857679102769513,0.0495613031204698,-0.316655222400245
1580421661.0921,-0.788830395971619,0.24682993820096,-0.257084000915542
1580421661.0961,-0.717540245670252,0.428473334859234,-0.247318226901655
1580421661.1001,-0.652597848477912,0.578377965972383,-0.287357900358588
1580421661.1041,-0.595956359197375,0.668223086900131,-0.333745326924545
1580421661.1081,-0.533943694209201,0.683848325322348,-0.362066071564813
1580421661.1121,-0.468024719615473,0.651132982375831,-0.38794537270161
1580421661.1161,-0.40161745632105,0.591073472190434,-0.383550774395362
1580421661.1201,-0.343022812237736,0.519783321889069,-0.34692912184329
1580421661.12409,-0.291264209964142,0.437750820172425,-0.303471427481499
1580421661.12809,-0.260990310521096,0.357183184557869,-0.254154268711376
1580421661.13209,-0.245853360799572,0.255130846112763,-0.218509193560692
1580421661.13609,-0.252201113908599,0.127687495231555,-0.201419089036392
1580421661.14009,-0.271244373235676,-0.00561532005798426,-0.177004654001678
1580421661.14409,-0.293705653467613,-0.136964980544747,-0.154543373769741
1580421661.14809,-0.32300297550927,-0.249271381704432,-0.136964980544747
1580421661.15208,-0.369390402075227,-0.330327306019685,-0.120851453421835
1580421661.15608,-0.435309376668956,-0.36743724727245,-0.114991989013504
1580421661.16008,-0.514900434882124,-0.361577782864119,-0.12475776302739
1580421661.16406,-0.580819409475852,-0.325444419012742,-0.132082093537804
1580421661.16806,-0.616464484626535,-0.283451590753033,-0.137453269245441
1580421661.17206,-0.608163576714732,-0.239505607690546,-0.12133974212253
1580421661.17606,-0.579842832074464,-0.186770428015564,-0.0769054703593497
1580421661.18006,-0.551033798733501,-0.124269474326695,-0.0354009308003356
1580421661.18406,-0.538826581216144,-0.0617685206378269,-0.00659189745937283
1580421661.18806,-0.540291447318227,-0.000244144350347142,0.00122072175173571
1580421661.19205,-0.563241016250858,0.0485847257190812,-0.0139162279697871
1580421661.19605,-0.601327534905012,0.0847180895704582,-0.0300297550926985
1580421661.20005,-0.647226672770275,0.100343327992675,-0.0485847257190812
1580421661.20405,-0.696055542839703,0.102296482795452,-0.0549324788281069
1580421661.20805,-0.752697032120242,0.0852063782711525,-0.0578622110322726
1580421661.21205,-0.812268253604945,0.0578622110322726,-0.0539559014267184
1580421661.21605,-0.870862897688259,0.0207522697795071,-0.0646982528419926
1580421661.22004,-0.925062943465324,-0.0202639810788128,-0.070557717250324
1580421661.22404,-0.96900892652781,-0.0593270771343555,-0.0803234912642097
1580421661.22804,-1.01002517738613,-0.0881361104753182,-0.0935072861829553
1580421661.23204,-1.04371709773404,-0.106691081101701,-0.0944838635843439
1580421661.23604,-1.06959639887083,-0.114991989013504,-0.0983901731898982
1580421661.24004,-1.0896162355993,-0.120363164721141,-0.11450370031281
1580421661.24405,-1.10377660791943,-0.123781185626001,-0.129152361333638
1580421661.24805,-1.11989013504234,-0.128175783932249,-0.138429846646829
1580421661.25205,-1.14479285877775,-0.131593804837109,-0.155031662470435
1580421661.25604,-1.17604333562219,-0.132082093537804,-0.159426260776684
1580421661.26004,-1.23268482490272,-0.147219043259327,-0.153078507667658
1580421661.26404,-1.30592813000687,-0.158937972075989,-0.141359578850995
1580421661.26804,-1.38698405432212,-0.185793850614175,-0.154055085069047
1580421661.27204,-1.47048142214084,-0.224368657969023,-0.177004654001678
1580421661.27604,-1.54860761425193,-0.264896620126651,-0.188723582818341
1580421661.28004,-1.62868696116579,-0.297123674372473,-0.182375829709315
1580421661.28404,-1.70632486457618,-0.337651636530099,-0.167727168688486
1580421661.28803,-1.76540779736019,-0.375249866483559,-0.169192034790569
1580421661.29203,-1.80837720302129,-0.409430075532159,-0.167238879987792
1580421661.29603,-1.83865110246433,-0.430426489662013,-0.178469520103761
1580421661.30003,-1.85378805218586,-0.450934615091173,-0.195559624628061
1580421661.30403,-1.86794842450599,-0.484626535439078,-0.212649729152361
1580421661.30803,-1.87234302281224,-0.535408560311284,-0.234622720683603
1580421661.31203,-1.87087815671016,-0.603280689707789,-0.254642557412071
1580421661.31603,-1.86160067139696,-0.688242923628595,-0.277103837644008
1580421661.32002,-1.8410925459678,-0.783459220263982,-0.298100251773862
1580421661.324,-1.81081864652476,-0.868909742885482,-0.311284046692608
1580421661.328,-1.78493934538796,-0.940199893186847,-0.333745326924545
1580421661.332,-1.76833752956436,-1.00465400167849,-0.366948958571756
1580421661.336,-1.76150148775464,-1.0642252231632,-0.408941786831464
1580421661.34,-1.77175555046922,-1.13014419775692,-0.454352635996033
1580421661.344,-1.79568169680324,-1.20778210116731,-0.487556267643244
1580421661.348,-1.82644388494698,-1.3029983978027,-0.52466620889601
1580421661.352,-1.84890516517891,-1.40358587014572,-0.564217593652247
1580421661.35599,-1.84451056687266,-1.49294270237278,-0.590096894789044
1580421661.35999,-1.80105287251087,-1.56227969787137,-0.604745555809872
1580421661.36399,-1.72390325780117,-1.60720225833524,-0.614999618524452
1580421661.36799,-1.62478065156023,-1.65017166399634,-0.632578011749446
1580421661.37199,-1.51247425040055,-1.69900053406577,-0.643808651865415
1580421661.37599,-1.37331197070268,-1.74587624933242,-0.696055542839703
1580421661.37999,-1.24733348592355,-1.81863126573587,-0.713633936064697
1580421661.38399,-1.12477302204929,-1.90505836575876,-0.724864576180666
1580421661.38798,-0.99977111467155,-1.98562600137331,-0.731212329289692
1580421661.39198,-0.899183642328527,-2.07840085450523,-0.746837567711909
1580421661.39598,-0.833264667734799,-2.19949645227741,-0.74244296940566
1580421661.39998,-0.78101777676051,-2.31473258564126,-0.72877088578622
1580421661.40396,-0.753185320820936,-2.40946059357595,-0.700450141145952
1580421661.40796,-0.730724040588997,-2.46268406195163,-0.646738384069581
1580421661.41196,-0.715587090867475,-2.45926604104677,-0.574959945067521
1580421661.41596,-0.689219501029983,-2.40994888227665,-0.489997711146716
1580421661.41996,-0.661387045090409,-2.33133440146487,-0.422613870450904
1580421661.42395,-0.647226672770275,-2.23074692912184,-0.354253452353705
1580421661.42795,-0.644296940566109,-2.14187838559548,-0.306889448386359
1580421661.43195,-0.671152819104295,-2.07693598840314,-0.267338063630122
1580421661.43595,-0.701915007248035,-2.02322423132677,-0.247318226901655
1580421661.43995,-0.737560082398717,-1.9695124742504,-0.217532616159303
1580421661.44395,-0.776623178454262,-1.92556649118792,-0.188723582818341
1580421661.44795,-0.812756542305639,-1.87771419851988,-0.156984817273212
1580421661.45195,-0.846448462653544,-1.8161898222324,-0.119874876020447
1580421661.45595,-0.925062943465324,-1.71462577248798,-0.11108567940795
1580421661.45994,-1.18776226443885,-1.57106889448386,-0.486579690241856
1580421661.46394,-1.17848477912566,-1.01197833218891,-0.707286182955672
1580421661.46794,-1.25563439383536,-0.448493171587701,-0.477790493629358
1580421661.47194,-1.31422903791867,0.037842374303807,-0.681406881818875
1580421661.47594,-1.52224002441443,0.958266575112535,-0.920668345159076
1580421661.47994,-1.8240024414435,2.10135042343786,-0.298588540474556
1580421661.48395,-1.95095750362402,2.8157167925536,-0.0690928511482412
1580421661.48795,-1.89968719005112,2.43582818341344,0.0383306630045013
1580421661.49195,-1.62087434195468,1.26295872434577,0.182375829709315
1580421661.49594,-1.27516594186313,0.318120088502326,0.073975738155184
1580421661.49994,-1.0466468299382,-0.371831845578699,-0.214602883955138
1580421661.50394,-0.942641336690318,-1.02565041580835,-0.670176241702906
1580421661.50794,-0.99977111467155,-1.57155718318456,-1.04274052033265
1580421661.51194,-1.26491187914855,-1.396749828336,-0.881605249103533
1580421661.51594,-1.4655985351339,-0.894300755321584,-0.338628213931488
1580421661.51994,-1.36012817578393,-0.617441062027924,-0.118898298619058
1580421661.52393,-1.22438391699092,-0.596444647898069,-0.252201113908599
1580421661.52793,-1.19606317235065,-0.625253681239032,-0.385015640497445
1580421661.53193,-1.22975509269856,-0.584237430380712,-0.45288776989395
1580421661.53593,-1.27418936446174,-0.578866254673075,-0.536385137712672
1580421661.53993,-1.38356603341726,-0.696055542839703,-0.470954451819638
1580421661.54393,-1.56960402838178,-0.92115663385977,-0.314702067597468
1580421661.54793,-1.79372854200046,-1.15016403448539,-0.216556038757915
1580421661.55193,-1.91238269626917,-1.31911192492561,-0.0373540856031127
1580421661.55592,-1.88552681773098,-1.30592813000687,0.12133974212253
1580421661.55992,-1.76101319905394,-1.15602349889372,0.142336156252384
1580421661.5639,-1.58864728770886,-0.960219729915313,0.124269474326695
1580421661.5679,-1.40407415884642,-0.757579919127185,0.109132524605172
1580421661.5719,-1.22438391699092,-0.593514915693904,0.0720225833524069
1580421661.5759,-1.02711528191043,-0.499763485160601,-0.00805676356145568
1580421661.5799,-0.812756542305639,-0.470466163118944,-0.153078507667658
1580421661.5839,-0.635019455252918,-0.502204928664073,-0.330327306019685
1580421661.5879,-0.535896849011978,-0.529060807202258,-0.464118410009918
1580421661.59189,-0.531013962005035,-0.519295033188373,-0.505622949568933
1580421661.59589,-0.587655451285572,-0.483161669336996,-0.475349050125887
1580421661.59989,-0.662851911192492,-0.444098573281453,-0.412848096437019
1580421661.60389,-0.718028534370946,-0.414312962539102,-0.360112916762036
1580421661.60789,-0.765880827038988,-0.40161745632105,-0.344487678339819
1580421661.61189,-0.807385366598002,-0.40845349813077,-0.389898527504387
1580421661.61589,-0.849866483558404,-0.419195849546044,-0.447516594186313
1580421661.61989,-0.897718776226444,-0.430426489662013,-0.496833752956436
1580421661.62388,-0.946547646295873,-0.417242694743267,-0.503669794766155
1580421661.62788,-1.00465400167849,-0.385503929198139,-0.476325627527276
1580421661.63188,-1.0637369344625,-0.332768749523156,-0.447028305485619
1580421661.63588,-1.12037842374304,-0.273197528038454,-0.436285954070344
1580421661.63988,-1.16041809719997,-0.223392080567635,-0.429449912260624
1580421661.64389,-1.17946135652705,-0.196047913328755,-0.434821087968261
1580421661.64789,-1.17946135652705,-0.203860532539863,-0.440680552376593
1580421661.65189,-1.16530098420691,-0.228763256275272,-0.450446326390479
1580421661.65589,-1.15016403448539,-0.261966887922485,-0.429449912260624
1580421661.65988,-1.13795681696803,-0.300541695277333,-0.37769130998703
1580421661.66388,-1.13746852826734,-0.330327306019685,-0.300053406576639
1580421661.66788,-1.12672617685206,-0.349858854047456,-0.245365072098878
1580421661.67188,-1.1067063401236,-0.361577782864119,-0.222415503166246
1580421661.67588,-1.06959639887083,-0.372320134279393,-0.247806515602349
1580421661.67988,-1.03395132372015,-0.37427328908217,-0.270756084534982
1580421661.68388,-1.00758373388266,-0.349858854047456,-0.274174105439842
1580421661.68788,-0.998306248569467,-0.314213778896773,-0.249759670405126
1580421661.69187,-0.982192721446555,-0.278568703746091,-0.241458762493323
1580421661.69587,-0.960219729915313,-0.251224536507211,-0.235111009384298
1580421661.69987,-0.946059357595178,-0.235111009384298,-0.23315785458152
1580421661.70387,-0.933852140077821,-0.217044327458609,-0.233646143282215
1580421661.70787,-0.925551232166018,-0.200930800335698,-0.246341649500266
1580421661.71187,-0.926527809567407,-0.187747005416952,-0.259037155718319
1580421661.71587,-0.92457465476463,-0.173098344396124,-0.290775921263448
1580421661.71987,-0.930922407873656,-0.152101930266269,-0.310307469291219
1580421661.72385,-0.936781872281987,-0.133058670939192,-0.32983901731899
1580421661.72784,-0.941176470588236,-0.108644235904478,-0.341069657434959
1580421661.73184,-0.944106202792401,-0.0993667505912867,-0.349370565346762
1580421661.73584,-0.944106202792401,-0.101808194094758,-0.363530937666896
1580421661.73984,-0.946059357595178,-0.118898298619058,-0.37085526817731
1580421661.74384,-0.963149462119478,-0.151613641565575,-0.360112916762036
1580421661.74784,-0.981216144045167,-0.178469520103761,-0.337651636530099
1580421661.75184,-0.98951705195697,-0.207766842145418,-0.318608377203022
1580421661.75584,-0.983657587548638,-0.247806515602349,-0.305424582284276
1580421661.75984,-0.974380102235447,-0.274174105439842,-0.297123674372473
1580421661.76383,-0.978286411841001,-0.266849774929428,-0.288822766460671
1580421661.76783,-0.966567483024338,-0.238040741588463,-0.276615548943314
1580421661.77183,-0.946547646295873,-0.196047913328755,-0.271244373235676
1580421661.77583,-0.916762035553521,-0.151613641565575,-0.291264209964142
1580421661.77983,-0.899183642328527,-0.12475776302739,-0.315678644998856
1580421661.78383,-0.893324177920196,-0.110597390707255,-0.324467841611353
1580421661.78783,-0.895277332722973,-0.105714503700312,-0.313237201495385
1580421661.79182,-0.907972838941024,-0.12133974212253,-0.293217364766919
1580421661.79582,-0.914808880750744,-0.160402838178072,-0.282475013351645
1580421661.79982,-0.932387273975738,-0.208743419546806,-0.264896620126651
1580421661.80383,-0.959243152513924,-0.255619134813459,-0.249759670405126
1580421661.80783,-0.97584496833753,-0.283451590753033,-0.2434119172961
1580421661.81183,-0.975356679636835,-0.303471427481499,-0.260990310521096
1580421661.81583,-0.975356679636835,-0.307866025787748,-0.257084000915542
1580421661.81983,-0.981216144045167,-0.295658808270391,-0.248294804303043
1580421661.82383,-0.971450370031281,-0.273685816739148,-0.283451590753033
1580421661.82782,-0.956313420309758,-0.253177691309988,-0.302494850080111
1580421661.83182,-0.961196307316701,-0.216067750057221,-0.289311055161365
1580421661.83582,-0.990493629358358,-0.191165026321812,-0.279056992446785
1580421661.83982,-1.00709544518196,-0.185305561913481,-0.300541695277333
1580421661.84382,-1.01832608529793,-0.203372243839169,-0.352788586251622
1580421661.84782,-1.03346303501946,-0.222415503166246,-0.378667887388419
1580421661.85182,-1.06227206836042,-0.211673151750972,-0.350835431448845
1580421661.85582,-1.0891279468986,-0.193606469825284,-0.331303883421073
1580421661.85981,-1.09449912260624,-0.194583047226672,-0.331303883421073
1580421661.86381,-1.09742885481041,-0.206790264744029,-0.312748912794691
1580421661.86781,-1.11256580453193,-0.193606469825284,-0.270267795834288
1580421661.87181,-1.11451895933471,-0.165774013885709,-0.259037155718319
1580421661.87581,-1.09547570000763,-0.126222629129472,-0.238529030289158
1580421661.87981,-1.07594415197986,-0.0827649347676811,-0.241458762493323
1580421661.88379,-1.05006485084306,-0.0505378805218584,-0.247806515602349
1580421661.88779,-1.03688105592432,-0.0334477759975584,-0.241947051194018
1580421661.89179,-1.02906843671321,-0.0339360646982527,-0.237552452887769
1580421661.89578,-1.0295567254139,-0.0300297550926985,-0.230228122377355
1580421661.89978,-1.0378576333257,-0.0139162279697871,-0.222903791866941
1580421661.90378,-1.04567025253681,-0.00366216525520713,-0.231204699778743
1580421661.90778,-1.05348287174792,0.000244144350347142,-0.236087586785686
1580421661.91178,-1.07350270847639,0.00122072175173571,-0.229251544975966
1580421661.91578,-1.08717479209583,0.00170901045242999,-0.240970473792629
1580421661.91978,-1.10524147402151,0.0178225375753414,-0.257572289616236
1580421661.92378,-1.12623788815137,0.0251468680857556,-0.270756084534982
1580421661.92777,-1.13990997177081,0.0388189517051956,-0.286381322957199
1580421661.93177,-1.15407034409094,0.0397955291065841,-0.282963302052339
1580421661.93577,-1.17604333562219,0.0319829098954756,-0.276615548943314
1580421661.93977,-1.1916685740444,0.0187991149767299,-0.269291218432899
1580421661.94377,-1.21608300907912,0.0100099183642328,-0.255130846112765
1580421661.94777,-1.23317311360342,0.0075684748607614,-0.261478599221791
1580421661.95177,-1.24147402151522,0.0144045166704814,-0.273197528038454
1580421661.95577,-1.25319295033188,0.0148928053711757,-0.292729076066225
1580421661.95976,-1.26637674525063,0.00219729915312428,-0.310795757991913
1580421661.96377,-1.28932631418326,-0.0163576714732585,-0.313725490196079
1580421661.96777,-1.32204165712978,-0.0178225375753414,-0.302494850080111
1580421661.97177,-1.35133897917144,-0.0158693827725642,-0.302494850080111
1580421661.97577,-1.37428854810407,-0.0114747844663157,-0.293217364766919
1580421661.97977,-1.39870298313878,-0.0173342488746471,-0.289311055161365
1580421661.98377,-1.41676966506447,-0.0231937132829785,-0.283939879453728
1580421661.98777,-1.43288319218738,-0.0163576714732585,-0.278080415045396
1580421661.99177,-1.45094987411307,0.0046387426565957,-0.260990310521096
1580421661.99576,-1.47536430914778,0.0285648889906156,-0.260013733119708
1580421661.99976,-1.49440756847486,0.0456549935149155,-0.281498435950256
1580421662.00376,-1.51979858091096,0.0505378805218584,-0.297123674372473
1580421662.00776,-1.54909590295262,0.0515144579232469,-0.302494850080111
1580421662.01176,-1.59157701991302,0.063721675440604,-0.315190356298162
1580421662.01576,-1.64382391088731,0.0803234912642097,-0.320561532005799
1580421662.01976,-1.7043717097734,0.100343327992675,-0.330815594720379
1580421662.02376,-1.7732204165713,0.115480277714198,-0.364995803768979
1580421662.02776,-1.84451056687266,0.123781185626001,-0.39478141451133
1580421662.03175,-1.91042954146639,0.137941557946135,-0.399176012817579
1580421662.03575,-1.96365300984207,0.163332570382238,-0.409918364232853
1580421662.03975,-1.99148546578164,0.196536202029449,-0.416266117341879
1580421662.04373,-1.99734493018997,0.236087586785686,-0.41870756084535
1580421662.04773,-1.98953231097887,0.27075608453498,-0.426031891355764
1580421662.05173,-1.97537193865873,0.30151827267872,-0.43579766536965
1580421662.05573,-1.95584039063096,0.345464255741206,-0.439703974975204
1580421662.05973,-1.94753948271916,0.411383230334934,-0.425055313954376
1580421662.06372,-1.94460975051499,0.489021133745325,-0.401129167620356
1580421662.06772,-1.92996108949416,0.536873426413369,-0.374761577782865
1580421662.07172,-1.9011520561532,0.520271610589763,-0.339116502632182
1580421662.07572,-1.88992141603723,0.458258945601585,-0.292240787365531
1580421662.07972,-1.89480430304418,0.3630426489662,-0.242435339894712
1580421662.08372,-1.92117189288167,0.281986724650949,-0.195071335927366
1580421662.08772,-1.94656290531777,0.217044327458609,-0.238529030289158
1580421662.09172,-1.93337911039902,0.136476691844052,-0.345464255741208
1580421662.09572,-1.90652323186084,0.0920424200808725,-0.429938200961319
1580421662.09971,-1.88699168383307,0.0993667505912867,-0.479743648432136
1580421662.10371,-1.87429617761502,0.128664072632944,-0.537361715114061
1580421662.10771,-1.84695201037614,0.137941557946135,-0.603280689707789
1580421662.11171,-1.79128709849699,0.12133974212253,-0.650644693675135
1580421662.11571,-1.7048599984741,0.104737926298924,-0.682383459220263
1580421662.11971,-1.585229266804,0.100343327992675,-0.658457312886243
1580421662.12372,-1.4397192339971,0.107179369802395,-0.608163576714732
1580421662.12772,-1.27125963225757,0.122804608224612,-0.585214007782101
1580421662.13171,-1.0891279468986,0.0783703364614325,-0.55884641794461
1580421662.13571,-0.918226901655604,-0.0158693827725642,-0.563241016250858
1580421662.13971,-0.782482642862593,-0.208743419546806,-0.588632028686961
1580421662.14371,-0.702403295948729,-0.411383230334936,-0.614023041123064
1580421662.14771,-0.76734569314107,-0.639902342259861,-0.531013962005035
1580421662.15171,-0.939223315785458,-0.826428625925079,-0.475349050125887
1580421662.15571,-0.990493629358358,-0.87330434119173,-0.508064393072404
1580421662.15971,-0.94850080109865,-0.740978103303577,-0.519295033188373
1580421662.1637,-0.897718776226444,-0.484626535439078,-0.446540016784924
1580421662.1677,-0.855725947966736,-0.220950637064163,-0.341557946135653
1580421662.1717,-0.802990768291753,0.0256351567864499,-0.267826352330816
1580421662.1757,-0.741954680704966,0.254642557412069,-0.208743419546806
1580421662.1797,-0.681895170519569,0.454840924696725,-0.178469520103761
1580421662.1837,-0.632089723048752,0.622812237735562,-0.177004654001678
1580421662.1877,-0.582772564278629,0.735606927595942,-0.178957808804455
1580421662.1917,-0.52808422980087,0.765392538338293,-0.184817273212786
1580421662.1957,-0.467536430914778,0.737560082398719,-0.198001068131532
1580421662.19969,-0.409430075532159,0.676523994811934,-0.195071335927366
1580421662.20364,-0.355718318455787,0.602792401007097,-0.182864118410009
1580421662.20764,-0.302983138780805,0.516365300984209,-0.172610055695429
1580421662.21164,-0.263920042725262,0.42114900434882,-0.169680323491264
1580421662.21564,-0.229251544975966,0.321049820706492,-0.169680323491264
1580421662.21964,-0.214602883955138,0.212649729152361,-0.171145189593346
1580421662.22364,-0.207766842145418,0.109132524605172,-0.174563210498206
1580421662.22764,-0.219485770962081,0.0168459601739528,-0.178957808804455
1580421662.23163,-0.228763256275272,-0.0524910353246355,-0.170168612191958
1580421662.23563,-0.253665980010682,-0.099855039291981,-0.160402838178072
1580421662.23963,-0.281986724650951,-0.119386587319752,-0.148683909361409
1580421662.24363,-0.317631799801633,-0.116456855115587,-0.128664072632944
1580421662.24763,-0.361089494163425,-0.102296482795452,-0.129152361333638
1580421662.25163,-0.401129167620356,-0.0817883573662925,-0.142336156252384
1580421662.25563,-0.433844510566873,-0.0583504997329669,-0.146730754558632
1580421662.25963,-0.464118410009918,-0.034424353398947,-0.149660486762798
1580421662.26362,-0.494880598153658,-0.00805676356145568,-0.136476691844052
1580421662.26762,-0.525642786297398,0.0197756923781185,-0.120363164721141
1580421662.27162,-0.567635614557107,0.0588387884336612,-0.0949721522850382
1580421662.27562,-0.603768978408484,0.0983901731898982,-0.0729991607537954
1580421662.27962,-0.643808651865415,0.130617227435721,-0.0607919432364383
1580421662.28363,-0.682871747920958,0.151613641565575,-0.0510261692225527
1580421662.28763,-0.717051956969557,0.156008239871824,-0.0539559014267184
1580421662.29163,-0.753185320820936,0.139894712748912,-0.0627450980392155
1580421662.29563,-0.790783550774396,0.110109102006561,-0.0681162737468526
1580421662.29962,-0.827405203326467,0.073975738155184,-0.0642099641412983
1580421662.30362,-0.865980010681316,0.031006332494087,-0.0700694285496297
1580421662.30762,-0.908949416342413,-0.0183108262760356,-0.0783703364614325
1580421662.31162,-0.955825131609064,-0.0734874494544897,-0.0896009765774011
1580421662.31562,-0.999282825970855,-0.131105516136415,-0.100343327992675
1580421662.31962,-1.04225223163195,-0.186770428015564,-0.109132524605172
1580421662.32362,-1.08522163729305,-0.241458762493323,-0.120851453421835
1580421662.32762,-1.12916762035553,-0.294193942168308,-0.124269474326695
1580421662.33161,-1.16725413900969,-0.332280460822462,-0.131105516136415
1580421662.33561,-1.20827038986801,-0.35718318455787,-0.136476691844052
1580421662.33961,-1.2522163729305,-0.37427328908217,-0.134035248340581
1580421662.34361,-1.29909208819715,-0.375249866483559,-0.138918135347524
1580421662.34761,-1.34987411306935,-0.37085526817731,-0.143801022354467
1580421662.35161,-1.40846875715267,-0.368413824673839,-0.155519951171129
1580421662.35561,-1.47585259784848,-0.364995803768979,-0.175051499198901
1580421662.35961,-1.54079499504082,-0.359624628061342,-0.197024490730143
1580421662.36359,-1.61208514534218,-0.36060120546273,-0.203372243839169
1580421662.36758,-1.68679331654841,-0.37085526817731,-0.209719996948195
1580421662.37158,-1.76052491035325,-0.402594033722439,-0.225833524071106
1580421662.37558,-1.82888532845045,-0.440192263675899,-0.250736247806516
1580421662.37958,-1.88992141603723,-0.483161669336996,-0.285404745555811
1580421662.38358,-1.94705119401846,-0.518318455786984,-0.335210193026628
1580421662.38758,-1.9866025787747,-0.558358129243915,-0.367925535973145
1580421662.39158,-2.00466926070039,-0.598886091401541,-0.39819943541619
1580421662.39558,-2.00466926070039,-0.631601434348058,-0.401129167620356
1580421662.39957,-1.9953917753872,-0.661875333791103,-0.407965209430076
1580421662.40357,-1.97878995956359,-0.710215915159838,-0.42554360265507
1580421662.40757,-1.95486381322957,-0.760997940032045,-0.446540016784924
1580421662.41157,-1.93240253299764,-0.812756542305639,-0.45630579079881
1580421662.41557,-1.91482413977264,-0.857190814068819,-0.463630121309224
1580421662.41957,-1.90212863355459,-0.91090257114519,-0.472907606622416
1580421662.42357,-1.89382772564279,-0.982192721446555,-0.481208514534218
1580421662.42757,-1.89626916914626,-1.07545586327916,-0.491462577248798
1580421662.43157,-1.89578088044556,-1.19020370794232,-0.489021133745327
1580421662.43556,-1.88796826123446,-1.30202182040131,-0.45288776989395
1580421662.43956,-1.87087815671016,-1.40749217975128,-0.40845349813077
1580421662.44357,-1.8410925459678,-1.51833371480888,-0.37427328908217
1580421662.44757,-1.77810330357824,-1.61452658884565,-0.376226443884947
1580421662.45157,-1.67849240863661,-1.70925459678035,-0.39478141451133
1580421662.45557,-1.56667429617761,-1.79324025329976,-0.397222858014802
1580421662.45957,-1.42458228427558,-1.85720607309072,-0.416754406042573
1580421662.46357,-1.27321278706035,-1.90212863355459,-0.439703974975204
1580421662.46756,-1.15065232318608,-1.9529106584268,-0.460700389105059
1580421662.47156,-1.05250629434653,-2.0466620889601,-0.490974288548104
1580421662.47556,-0.980239566643778,-2.19461356527047,-0.520271610589761
1580421662.47956,-0.930922407873656,-2.37869840543221,-0.525642786297398
1580421662.48356,-0.894789044022279,-2.54618142977035,-0.497810330357824
1580421662.48756,-0.850843060959793,-2.65165178912032,-0.458747234302281
1580421662.49156,-0.777111467154956,-2.69169146257725,-0.397711146715496
1580421662.49556,-0.677012283512626,-2.66532387273976,-0.349370565346762
1580421662.49955,-0.590585183489738,-2.59940489814603,-0.327885862516213
1580421662.50355,-0.563729304951552,-2.48807507438773,-0.321049820706493
1580421662.50755,-0.597909514000152,-2.3459830624857,-0.311772335393302
1580421662.51155,-0.664805065995269,-2.20340276188296,-0.286381322957199
1580421662.51555,-0.737071793698023,-2.07888914320592,-0.279545281147479
1580421662.51955,-0.803479056992447,-1.98318455786984,-0.278080415045396
1580421662.52356,-0.865491721980622,-1.91287098496986,-0.274662394140536
1580421662.52756,-0.914808880750744,-1.86404211490044,-0.273685816739148
1580421662.53156,-1.02809185931182,-1.77859159227894,-0.334721904325933
1580421662.53555,-1.16139467460136,-1.61501487754635,-0.775646601052873
1580421662.53955,-1.2175478751812,-1.00074769207294,-0.766857404440376
1580421662.54355,-1.3542687113756,-0.478278782330053,-0.502693217364767
1580421662.54755,-1.47145799954223,0.181887541008621,-0.756603341725796
1580421662.55155,-1.70095368886854,1.28249027237354,-0.729259174486915
1580421662.55555,-1.97341878385595,2.42996871900511,-0.171633478294041
1580421662.55955,-2.05300984206912,2.81766994735638,-0.0632333867399097
1580421662.56355,-1.91189440756848,2.03054856183719,0.0393072404058898
1580421662.56755,-1.59011215381094,0.871351186388953,0.190676737621118
1580421662.57154,-1.25954070344091,0.102296482795452,0.151125352864881
1580421662.57554,-1.10328831921874,-0.44605172808423,-0.00708018616006711
1580421662.57954,-1.072526131075,-1.07692072938125,-0.165285725185015
1580421662.58354,-1.17604333562219,-1.52565804531929,-0.357671473258565
1580421662.58754,-1.29958037689784,-1.33522545204852,-0.504646372167544
1580421662.59154,-1.29616235599298,-0.865491721980622,-0.213626306553749
1580421662.59554,-1.12281986724651,-0.484626535439078,-0.0397955291065841
1580421662.59954,-0.914808880750744,-0.355230029755093,-0.0520027466239412
1580421662.60351,-0.807385366598002,-0.351323720149539,-0.288822766460671
1580421662.60751,-0.830334935530633,-0.352788586251622,-0.444098573281453
1580421662.61151,-0.90748455024033,-0.378667887388419,-0.594003204394598
1580421662.61551,-1.03443961242084,-0.448004882887007,-0.629648279545281
1580421662.61951,-1.22096589608606,-0.628671702143892,-0.563241016250858
1580421662.62351,-1.4314183260853,-0.865003433279927,-0.577889677271687
1580421662.62751,-1.62722209506371,-1.0891279468986,-0.527595941100175
1580421662.63151,-1.78054474708171,-1.18532082093538,-0.34009308003357
1580421662.6355,-1.86843671320668,-1.09694056610971,-0.202395666437781
1580421662.6395,-1.8845502403296,-0.91432059205005,-0.121828030823224
1580421662.6435,-1.81667811093309,-0.714122224765392,-0.0285648889906156
1580421662.6475,-1.67702754253452,-0.552986953536278,0.0417486839093613
1580421662.6515,-1.46999313344015,-0.435309376668956,0.0563973449301898
1580421662.6555,-1.22829022659647,-0.385992217898833,0.00170901045242999
1580421662.6595,-0.988540474555581,-0.397222858014802,-0.129152361333638
1580421662.6635,-0.782482642862593,-0.45288776989395,-0.272220950637065
1580421662.6675,-0.626230258640421,-0.531990539406424,-0.373785000381476
1580421662.67149,-0.549568932631418,-0.600350957503624,-0.403082322423133
1580421662.67549,-0.577401388570992,-0.650644693675135,-0.353276874952316
1580421662.67949,-0.661875333791103,-0.661387045090409,-0.268802929732205
1580421662.6835,-0.737071793698023,-0.646250095368886,-0.216556038757915
1580421662.6875,-0.773693446250096,-0.635019455252918,-0.218020904859998
1580421662.6915,-0.799084458686199,-0.622812237735561,-0.279545281147479
1580421662.6955,-0.841565575646602,-0.582284275577935,-0.355230029755093
1580421662.6995,-0.88697642481117,-0.519295033188373,-0.41187151903563
1580421662.7035,-0.93141069657435,-0.438727397573816,-0.44605172808423
1580421662.70749,-0.968032349126421,-0.347417410543985,-0.461676966506447
1580421662.71149,-1.00318913557641,-0.268314641031511,-0.464606698710613
1580421662.71549,-1.0378576333257,-0.205325398641946,-0.468024719615473
1580421662.71949,-1.07057297627222,-0.159914549477378,-0.457282368200199
1580421662.72349,-1.09694056610971,-0.139406424048218,-0.454352635996033
1580421662.72749,-1.10524147402151,-0.144777599755855,-0.455817502098116
1580421662.73149,-1.11549553673609,-0.176516365300984,-0.433844510566873
1580421662.73549,-1.13942168307011,-0.219485770962081,-0.385992217898833
1580421662.73948,-1.16481269550622,-0.249271381704432,-0.343022812237736
1580421662.74348,-1.17994964522774,-0.254154268711376,-0.324467841611353
1580421662.74748,-1.15895323109789,-0.260990310521096,-0.327885862516213
1580421662.75148,-1.10133516441596,-0.267826352330816,-0.330327306019685
1580421662.75548,-1.04225223163195,-0.281010147249562,-0.310307469291219
1580421662.75948,-1.00123598077363,-0.282963302052339,-0.284916456855116
1580421662.76346,-0.973891813534753,-0.270267795834288,-0.252201113908599
1580421662.76746,-0.950942244602121,-0.253177691309988,-0.240970473792629
1580421662.77145,-0.930922407873656,-0.242923628595406,-0.234134431982909
1580421662.77545,-0.923109788662547,-0.250736247806516,-0.218020904859998
1580421662.77945,-0.933852140077821,-0.252201113908599,-0.209231708247501
1580421662.78345,-0.937270160982681,-0.248783093003738,-0.232181277180132
1580421662.78745,-0.93482871747921,-0.247806515602349,-0.249759670405126
1580421662.79145,-0.935805294880598,-0.240970473792629,-0.256595712214848
1580421662.79545,-0.936781872281987,-0.238040741588463,-0.255130846112765
1580421662.79945,-0.938735027084764,-0.235599298084992,-0.254642557412071
1580421662.80344,-0.946059357595178,-0.23315785458152,-0.253665980010682
1580421662.80744,-0.952407110704204,-0.236087586785686,-0.268314641031511
1580421662.81144,-0.95533684290837,-0.246341649500266,-0.288334477759976
1580421662.81544,-0.970962081330587,-0.259525444419014,-0.298588540474556
1580421662.81944,-0.985610742351415,-0.265384908827345,-0.297123674372473
1580421662.82344,-0.988052185854887,-0.266849774929428,-0.308842603189136
1580421662.82744,-0.984634164950027,-0.266361486228734,-0.305424582284276
1580421662.83144,-0.977798123140307,-0.255619134813459,-0.303959716182193
1580421662.83543,-0.973403524834058,-0.239017318989852,-0.288822766460671
1580421662.83943,-0.971938658731975,-0.221438925764858,-0.269291218432899
1580421662.84344,-0.973403524834058,-0.197512779430838,-0.244388494697489
1580421662.84744,-0.970962081330587,-0.179446097505149,-0.237064164187075
1580421662.85144,-0.960219729915313,-0.169192034790569,-0.248294804303043
1580421662.85544,-0.952895399404898,-0.172121766994735,-0.237552452887769
1580421662.85944,-0.943129625391013,-0.169680323491264,-0.215579461356526
1580421662.86344,-0.942153047989624,-0.162844281681544,-0.204348821240558
1580421662.86744,-0.935317006179904,-0.168215457389181,-0.214602883955138
1580421662.87144,-0.935317006179904,-0.171633478294041,-0.200442511635003
1580421662.87543,-0.938735027084764,-0.176516365300984,-0.217532616159303
1580421662.87943,-0.941176470588236,-0.185793850614175,-0.255619134813459
1580421662.88343,-0.940199893186847,-0.196536202029449,-0.275150682841231
1580421662.88743,-0.945571068894484,-0.213626306553749,-0.271244373235676
1580421662.89143,-0.961684596017395,-0.229739833676661,-0.262455176623179
1580421662.89543,-0.982192721446555,-0.250247959105822,-0.260990310521096
1580421662.89943,-0.994888227664607,-0.279056992446785,-0.251224536507211
1580421662.90343,-1.00465400167849,-0.302006561379416,-0.239505607690546
1580421662.90742,-1.00856031128405,-0.320073243305105,-0.248294804303043
1580421662.91142,-1.01393148699168,-0.334233615625239,-0.250736247806516
1580421662.91542,-1.01881437399863,-0.33325703822385,-0.23999389639124
1580421662.91942,-1.03199816891737,-0.308842603189136,-0.244876783398183
1580421662.92343,-1.03639276722362,-0.279545281147479,-0.252201113908599
1580421662.92743,-1.04371709773404,-0.259037155718319,-0.267826352330816
1580421662.93143,-1.03981078812848,-0.248294804303043,-0.284916456855116
1580421662.93543,-1.04176394293126,-0.238040741588463,-0.276127260242619
1580421662.93943,-1.04567025253681,-0.216556038757915,-0.255619134813459
1580421662.94342,-1.04274052033265,-0.180910963607232,-0.244876783398183
1580421662.94742,-1.02223239490349,-0.145265888456549,-0.251712825207905
1580421662.95142,-1.00563057907988,-0.107179369802395,-0.251224536507211
1580421662.95542,-0.981216144045167,-0.0725108720531011,-0.248294804303043
1580421662.95942,-0.954360265506981,-0.0432135500114441,-0.247806515602349
1580421662.96342,-0.931898985275044,-0.0163576714732585,-0.237552452887769
1580421662.96742,-0.911390859845884,0.01196307316701,-0.238529030289158
1580421662.97142,-0.896253910124361,0.0295414663920042,-0.248783093003738
1580421662.97541,-0.892347600518807,0.0397955291065841,-0.234622720683603
1580421662.97941,-0.902113374532693,0.0324711985961699,-0.237064164187075
1580421662.98341,-0.922133211261158,0.0187991149767299,-0.232669565880826
1580421662.98741,-0.953871976806287,-0.00708018616006711,-0.218509193560692
1580421662.99141,-0.987563897154192,-0.0290531776913099,-0.208743419546806
1580421662.99541,-1.01734950789654,-0.0520027466239412,-0.193118181124589
1580421662.99941,-1.04420538643473,-0.0612802319371326,-0.184328984512092
1580421663.00339,-1.06715495536736,-0.0686045624475469,-0.189211871519035
1580421663.00739,-1.09205767910277,-0.0754406042572668,-0.184817273212786
1580421663.01138,-1.1150072480354,-0.0783703364614325,-0.176028076600289
1580421663.01538,-1.12867933165484,-0.0881361104753182,-0.180910963607232
1580421663.01938,-1.15016403448539,-0.0983901731898982,-0.170168612191958
1580421663.02338,-1.16676585030899,-0.096437018387121,-0.161379415579461
1580421663.02738,-1.17311360341802,-0.110109102006561,-0.161379415579461
1580421663.03138,-1.17701991302357,-0.112550545510032,-0.161379415579461
1580421663.03538,-1.17994964522774,-0.102296482795452,-0.164797436484321
1580421663.03938,-1.17701991302357,-0.0842298008697639,-0.179446097505149
1580421663.04338,-1.17701991302357,-0.0617685206378269,-0.202395666437781
1580421663.04737,-1.17067215991455,-0.0432135500114441,-0.231204699778743
1580421663.05137,-1.17701991302357,-0.0290531776913099,-0.258548867017625
1580421663.05537,-1.19118028534371,-0.024170290684367,-0.293705653467613
1580421663.05937,-1.21168841077287,-0.0402838178072784,-0.317143511100939
1580421663.06337,-1.23707942320897,-0.0563973449301898,-0.330815594720379
1580421663.06737,-1.27028305485618,-0.0832532234683754,-0.347417410543985
1580421663.07137,-1.30690470740826,-0.118898298619058,-0.342534523537042
1580421663.07536,-1.34499122606241,-0.152590218966964,-0.331792172121768
1580421663.07936,-1.39430838483253,-0.159914549477378,-0.298588540474556
1580421663.08334,-1.43776607919432,-0.166262302586404,-0.294682230869002
1580421663.08734,-1.47096971084154,-0.179934386205844,-0.309330891889831
1580421663.09134,-1.50759136339361,-0.192141603723201,-0.322026398107882
1580421663.09534,-1.55349050125887,-0.195559624628061,-0.32642099641413
1580421663.09934,-1.60329594872969,-0.187258716716258,-0.329350728618296
1580421663.10334,-1.65456626230259,-0.160891126878766,-0.350835431448845
1580421663.10734,-1.70144197756924,-0.129640650034332,-0.383062485694667
1580421663.11133,-1.738551918822,-0.0944838635843439,-0.409430075532159
1580421663.11533,-1.76345464255741,-0.0578622110322726,-0.43579766536965
1580421663.11933,-1.78347447928588,-0.0100099183642328,-0.470466163118944
1580421663.12333,-1.79324025329976,0.0402838178072784,-0.476325627527276
1580421663.12733,-1.79470511940185,0.0930189974822611,-0.475349050125887
1580421663.13133,-1.7898222323949,0.135988403143358,-0.46655985351339
1580421663.13533,-1.77859159227894,0.158449683375295,-0.453376058594644
1580421663.13933,-1.76296635385672,0.165285725185015,-0.441657129777981
1580421663.14332,-1.75173571374075,0.169192034790569,-0.406012054627299
1580421663.14732,-1.7556420233463,0.183352407110704,-0.365484092469673
1580421663.15132,-1.75271229114214,0.199465934233615,-0.31958495460441
1580421663.15532,-1.73952849622339,0.187258716716258,-0.309819180590525
1580421663.15932,-1.71999694819562,0.168215457389181,-0.328862439917602
1580421663.16333,-1.70632486457618,0.152101930266269,-0.307866025787748
1580421663.16733,-1.69314106965743,0.140871290150301,-0.283939879453728
1580421663.17133,-1.6872816052491,0.123781185626001,-0.259037155718319
1580421663.17533,-1.6960708018616,0.0886243991760125,-0.233646143282215
1580421663.17932,-1.72048523689631,0.0510261692225527,-0.220950637064163
1580421663.18332,-1.74392309452964,0.00903334096284425,-0.237552452887769
1580421663.18732,-1.75271229114214,-0.0529793240253298,-0.252689402609294
1580421663.19132,-1.74245822842756,-0.120851453421835,-0.296635385671779
1580421663.19532,-1.73611047531853,-0.120363164721141,-0.298100251773862
1580421663.19932,-1.71071946288243,-0.102784771496147,-0.31958495460441
1580421663.20332,-1.67214465552758,-0.0993667505912867,-0.345952544441902
1580421663.20732,-1.6189211871519,-0.11108567940795,-0.403570611123827
1580421663.21131,-1.55397878995956,-0.122804608224612,-0.475349050125887
1580421663.21531,-1.47878233005264,-0.134523537041275,-0.525154497596704
1580421663.21931,-1.39186694132906,-0.136476691844052,-0.551033798733501
1580421663.22331,-1.29616235599298,-0.0861829556725411,-0.533943694209201
1580421663.22731,-1.1916685740444,-0.0485847257190812,-0.514900434882124
1580421663.23131,-1.08766308079652,-0.041260395208667,-0.511482413977264
1580421663.23531,-0.987075608453498,-0.0432135500114441,-0.53492027161059
1580421663.23931,-0.887953002212559,-0.0554207675288012,-0.51783016708629
1580421663.24329,-0.771252002746625,-0.114991989013504,-0.476325627527276
1580421663.24728,-0.643808651865415,-0.277103837644008,-0.475349050125887
1580421663.25128,-0.553963530937667,-0.429449912260624,-0.463630121309224
1580421663.25528,-0.579842832074464,-0.525642786297398,-0.347905699244679
1580421663.25928,-0.720469977874417,-0.667246509498741,-0.291264209964142
1580421663.26328,-0.825940337224385,-0.757579919127185,-0.390386816205082
1580421663.26728,-0.813244831006333,-0.726817730983443,-0.541268024719615
1580421663.27128,-0.772716868848708,-0.561776150148775,-0.573983367666132
1580421663.27528,-0.735118638895246,-0.349858854047456,-0.501228351262684
1580421663.27927,-0.707286182955672,-0.138918135347524,-0.41870756084535
1580421663.28327,-0.675547417410543,0.0700694285496297,-0.337651636530099
1580421663.28727,-0.640390630960555,0.264896620126649,-0.270756084534982
1580421663.29127,-0.616464484626535,0.436774242771037,-0.205813687342641
1580421663.29527,-0.584725719081407,0.57007705806058,-0.157961394674601
1580421663.29927,-0.55542839703975,0.645761806668194,-0.126222629129472
1580421663.30327,-0.519295033188373,0.637949187457085,-0.120851453421835
1580421663.30727,-0.467536430914778,0.58716716258488,-0.122804608224612
1580421663.31126,-0.419684138246739,0.532967116807814,-0.130128938735027
1580421663.31526,-0.388433661402305,0.47583733882658,-0.126222629129472
1580421663.31926,-0.37085526817731,0.416754406042571,-0.123781185626001
1580421663.32327,-0.351323720149539,0.351323720149537,-0.113527122911421
1580421663.32727,-0.336186770428016,0.285893034256503,-0.0881361104753182
1580421663.33127,-0.31958495460441,0.221927214465552,-0.0798352025635154
1580421663.33527,-0.312748912794691,0.172121766994735,-0.0729991607537954
1580421663.33927,-0.309819180590525,0.120363164721141,-0.0744640268558783
1580421663.34327,-0.317143511100939,0.0666514076447697,-0.0979018844892039
1580421663.34727,-0.323491264209965,0.00512703135728998,-0.112062256809338
1580421663.35126,-0.33325703822385,-0.0598153658350498,-0.104737926298924
1580421663.35526,-0.337651636530099,-0.112062256809338,-0.0891126878767068
1580421663.35926,-0.351323720149539,-0.142336156252384,-0.0686045624475469
1580421663.36326,-0.375249866483559,-0.156984817273212,-0.0627450980392155
1580421663.36726,-0.410894941634242,-0.166262302586404,-0.0563973449301898
1580421663.37126,-0.462653543907836,-0.162844281681544,-0.0417486839093613
1580421663.37526,-0.519295033188373,-0.140871290150301,-0.0158693827725642
1580421663.37925,-0.573983367666132,-0.10424963759823,0.0227054245822842
1580421663.38325,-0.625741969939726,-0.0617685206378269,0.0554207675288012
1580421663.38725,-0.671641107804989,-0.0197756923781185,0.0764171816586554
1580421663.39125,-0.717540245670252,0.0129396505683985,0.0769054703593497
1580421663.39525,-0.752697032120242,0.0354009308003356,0.0754406042572668
1580421663.39925,-0.789318684672313,0.0485847257190812,0.0715342946517126
1580421663.40323,-0.82203402761883,0.0529793240253298,0.0764171816586554
1580421663.40723,-0.855237659266042,0.0471198596169984,0.0715342946517126
1580421663.41123,-0.879163805600061,0.0305180437933927,0.0642099641412983
1580421663.41523,-0.912367437247273,0.00854505226214997,0.0510261692225527
1580421663.41922,-0.949477378500038,-0.0046387426565957,0.0334477759975584
1580421663.42322,-0.990981918059052,-0.0183108262760356,0.0153810940718699
1580421663.42722,-1.03932249942779,-0.0441901274128327,-0.00512703135728998
1580421663.43122,-1.08815136949721,-0.0695811398489354,-0.0231937132829785
1580421663.43522,-1.14235141527428,-0.108644235904478,-0.0432135500114441
1580421663.43922,-1.19850461585412,-0.145265888456549,-0.0642099641412983
1580421663.44322,-1.25905241474022,-0.190188448920424,-0.0651865415426869
1580421663.44721,-1.32155336842908,-0.235599298084992,-0.0783703364614325
1580421663.45121,-1.39089036392767,-0.278568703746091,-0.0900892652780954
1580421663.45521,-1.46852826733806,-0.311772335393302,-0.0920424200808725
