Timestamp_seconds,Gyro_X_s,Gyro_Y_s,Gyro_Z_s
1580421656.91906,-2.83817807278547,4.05889982452118,0.213626306553806
1580421656.92305,-2.53299763485165,4.42511635004189,0.274662394140478
1580421656.92704,-2.16678110933094,4.7913328755626,0.335698481727377
1580421656.93104,-1.98367284657047,5.40169375143046,0.274662394140478
1580421656.93503,-1.80056458381023,5.88998245212474,0.274662394140478
1580421656.93903,-1.61745632104976,6.5003433279926,0.0305180437933359
1580421656.94302,-1.49538414587619,6.86655985351331,-0.152590218966907
1580421656.94701,-1.37331197070262,6.98863202868688,-0.152590218966907
1580421656.95101,-1.0070954451819,6.92759594110021,-0.152590218966907
1580421656.955,-0.885023270008332,6.92759594110021,-0.213626306553806
1580421656.95899,-0.885023270008332,6.68345159075307,-0.213626306553806
1580421656.96299,-0.762951094834762,6.43930724040592,-0.152590218966907
1580421656.96698,-0.823987182421661,6.43930724040592,-0.152590218966907
1580421656.97097,-0.946059357595232,6.5003433279926,0.0305180437933359
1580421656.97497,-1.37331197070262,6.80552376592664,0.091554131380235
1580421656.97896,-1.73952849622333,7.17174029144735,-0.0305180437933359
1580421656.98295,-1.73952849622333,7.66002899214163,-0.152590218966907
1580421656.98695,-1.49538414587619,7.72106507972831,-0.152590218966907
1580421656.99094,-1.19020370794237,7.7821011673152,-0.152590218966907
1580421656.99493,-0.946059357595232,7.7821011673152,-0.091554131380235
1580421656.99892,-1.19020370794237,7.66002899214163,-0.091554131380235
1580421657.00292,-1.67849240863666,7.59899290455473,0.091554131380235
1580421657.00691,-2.47196154726475,7.41588464179449,0.396734569314049
1580421657.0109,-3.20439459830618,7.23277637903402,0.51880674448762
1580421657.0149,-3.87579156176093,7.23277637903402,0.70191500724809
1580421657.01889,-4.18097199969475,7.17174029144735,0.823987182421661
1580421657.02288,-4.48615243762879,6.92759594110021,0.823987182421661
1580421657.02688,-4.48615243762879,6.68345159075307,0.885023270008332
1580421657.03087,-4.66926070038903,6.37827115281902,1.0070954451819
1580421657.03486,-4.7913328755626,6.19516289005878,1.0070954451819
1580421657.03886,-4.97444113832307,6.07309071488521,1.0070954451819
1580421657.04285,-5.09651331349664,6.07309071488521,1.0070954451819
1580421657.04684,-4.8523689631495,5.95101853971164,0.885023270008332
1580421657.05084,-4.30304417486832,5.76791027695117,1.0070954451819
1580421657.05483,-3.44853894865332,5.6458381017776,0.946059357595232
1580421657.05883,-2.59403372243833,5.58480201419093,0.885023270008332
1580421657.06282,-1.73952849622333,5.27962157625689,0.946059357595232
1580421657.06681,-0.946059357595232,4.97444113832307,0.885023270008332
1580421657.0708,-0.640878919661191,4.60822461280236,0.885023270008332
1580421657.07479,-0.213626306553806,4.54718852521546,0.579842832074519
1580421657.07879,0.51880674448762,4.73029678797593,0.51880674448762
1580421657.08278,1.55642023346309,5.15754940108332,0.335698481727377
1580421657.08677,2.59403372243833,5.46272983901736,0.396734569314049
1580421657.09077,3.87579156176093,5.6458381017776,0.274662394140478
1580421657.09476,4.91340505073617,5.76791027695117,0.51880674448762
1580421657.09875,5.58480201419093,5.52376592660403,0.640878919661191
1580421657.10275,5.95101853971164,5.15754940108332,0.946059357595232
1580421657.10674,6.07309071488521,4.7913328755626,1.0681315327688
1580421657.11074,5.76791027695117,4.48615243762879,1.25123979552905
1580421657.11473,5.09651331349664,4.24200808728165,1.31227588311594
1580421657.11872,4.60822461280236,4.05889982452118,1.37331197070262
1580421657.12272,4.30304417486832,3.87579156176093,1.19020370794237
1580421657.12671,3.99786373693451,3.81475547417404,1.19020370794237
1580421657.1307,3.75371938658736,3.69268329900046,1.12916762035547
1580421657.1347,3.50957503624022,3.57061112382689,1.0070954451819
1580421657.13869,3.20439459830618,3.26543068589308,0.885023270008332
1580421657.14268,2.96025024795904,3.38750286106665,0.640878919661191
1580421657.14668,2.7161058976119,3.69268329900046,0.51880674448762
1580421657.15069,2.7161058976119,4.11993591210808,0.51880674448762
1580421657.15469,2.89921416037237,4.30304417486832,0.335698481727377
1580421657.15868,3.02128633554594,4.18097199969475,0.213626306553806
1580421657.16268,2.7161058976119,3.81475547417404,0.274662394140478
1580421657.16667,2.28885328450451,3.57061112382689,0.0305180437933359
1580421657.17066,1.61745632104976,3.38750286106665,-0.091554131380235
1580421657.17466,1.31227588311594,3.20439459830618,-0.274662394140478
1580421657.17865,0.640878919661191,3.08232242313261,-0.274662394140478
1580421657.18264,0.0305180437933359,2.96025024795904,-0.274662394140478
1580421657.18664,-0.51880674448762,2.7771419851988,-0.213626306553806
1580421657.19063,-1.0070954451819,2.59403372243833,-0.0305180437933359
1580421657.19462,-1.25123979552905,2.96025024795904,-0.152590218966907
1580421657.19862,-1.49538414587619,3.14335851071951,-0.213626306553806
1580421657.20261,-1.61745632104976,3.26543068589308,-0.274662394140478
1580421657.2066,-1.8616006713969,3.50957503624022,-0.274662394140478
1580421657.2106,-2.28885328450451,3.57061112382689,-0.091554131380235
1580421657.21459,-2.53299763485165,3.57061112382689,-0.091554131380235
1580421657.21859,-2.41092545967808,3.81475547417404,-0.0305180437933359
1580421657.22258,-2.22781719691761,3.93682764934761,0.091554131380235
1580421657.22657,-1.67849240863666,3.93682764934761,0.0305180437933359
1580421657.23056,-1.25123979552905,4.11993591210808,0.0305180437933359
1580421657.23455,-1.19020370794237,3.99786373693451,0.0305180437933359
1580421657.23855,-1.25123979552905,4.18097199969475,-0.0305180437933359
1580421657.24254,-1.43434805828952,4.48615243762879,-0.213626306553806
1580421657.24653,-1.25123979552905,4.66926070038903,-0.274662394140478
1580421657.25053,-0.946059357595232,4.7913328755626,-0.335698481727377
1580421657.25452,0.0305180437933359,4.66926070038903,-0.579842832074519
1580421657.25851,0.640878919661191,4.42511635004189,-0.335698481727377
1580421657.26251,0.885023270008332,4.18097199969475,-0.213626306553806
1580421657.2665,0.823987182421661,4.05889982452118,0.0305180437933359
1580421657.27049,0.457770656900948,3.93682764934761,0.335698481727377
1580421657.27449,-0.091554131380235,3.69268329900046,0.51880674448762
1580421657.27848,-0.335698481727377,3.63164721141379,0.457770656900948
1580421657.28248,-0.457770656900948,3.75371938658736,0.51880674448762
1580421657.28647,-0.274662394140478,3.87579156176093,0.457770656900948
1580421657.29046,0.335698481727377,3.99786373693451,0.396734569314049
1580421657.29446,0.51880674448762,4.11993591210808,0.51880674448762
1580421657.29845,0.70191500724809,4.24200808728165,0.51880674448762
1580421657.30244,0.335698481727377,4.36408026245522,0.51880674448762
1580421657.30644,-0.0305180437933359,4.24200808728165,0.70191500724809
1580421657.31045,-0.457770656900948,4.11993591210808,0.762951094834762
1580421657.31445,-0.457770656900948,3.99786373693451,0.823987182421661
1580421657.31844,-0.152590218966907,4.05889982452118,1.0070954451819
1580421657.32243,0.640878919661191,4.18097199969475,1.0070954451819
1580421657.32643,1.61745632104976,3.99786373693451,1.25123979552905
1580421657.33042,2.22781719691761,3.81475547417404,1.25123979552905
1580421657.33442,2.47196154726475,3.38750286106665,1.19020370794237
1580421657.33841,2.34988937209118,3.08232242313261,1.19020370794237
1580421657.3424,1.80056458381023,3.02128633554594,1.0681315327688
1580421657.3464,1.55642023346309,2.96025024795904,0.762951094834762
1580421657.35039,1.80056458381023,3.08232242313261,0.579842832074519
1580421657.35438,2.04470893415737,2.89921416037237,0.51880674448762
1580421657.35838,2.22781719691761,2.53299763485165,0.396734569314049
1580421657.36237,2.47196154726475,2.34988937209118,0.274662394140478
1580421657.36636,2.34988937209118,2.22781719691761,0.213626306553806
1580421657.37036,2.22781719691761,2.28885328450451,0.335698481727377
1580421657.37435,1.9226367589838,2.28885328450451,0.274662394140478
1580421657.37835,1.31227588311594,1.98367284657047,0.335698481727377
1580421657.38234,0.457770656900948,1.61745632104976,0.51880674448762
1580421657.38633,-0.335698481727377,1.0681315327688,0.640878919661191
1580421657.39032,-1.0681315327688,0.640878919661191,0.640878919661191
1580421657.39431,-1.61745632104976,0.396734569314049,0.640878919661191
1580421657.39831,-1.67849240863666,0.213626306553806,0.70191500724809
1580421657.4023,-1.19020370794237,0.152590218966907,0.762951094834762
1580421657.40629,-0.70191500724809,-0.152590218966907,0.823987182421661
1580421657.41029,-0.274662394140478,-0.396734569314049,0.885023270008332
1580421657.41428,-0.152590218966907,-0.640878919661191,0.823987182421661
1580421657.41827,-0.274662394140478,-0.70191500724809,0.762951094834762
1580421657.42227,-0.335698481727377,-0.70191500724809,0.579842832074519
1580421657.42626,-0.51880674448762,-0.885023270008332,0.51880674448762
1580421657.43025,-0.457770656900948,-0.885023270008332,0.457770656900948
1580421657.43425,-0.213626306553806,-0.823987182421661,0.396734569314049
1580421657.43824,0.274662394140478,-0.579842832074519,0.335698481727377
1580421657.44223,1.0070954451819,-0.396734569314049,0.457770656900948
1580421657.44623,1.8616006713969,-0.51880674448762,0.51880674448762
1580421657.45022,2.59403372243833,-0.946059357595232,0.762951094834762
1580421657.45422,2.7771419851988,-1.25123979552905,0.762951094834762
1580421657.45821,2.7161058976119,-1.43434805828952,0.823987182421661
1580421657.4622,2.59403372243833,-1.67849240863666,0.946059357595232
1580421657.4662,2.10574502174404,-1.9226367589838,1.19020370794237
1580421657.47018,1.9226367589838,-2.22781719691761,1.0681315327688
1580421657.47418,1.9226367589838,-2.16678110933094,1.0681315327688
1580421657.47817,2.16678110933094,-1.8616006713969,0.823987182421661
1580421657.48216,2.41092545967808,-1.73952849622333,0.579842832074519
1580421657.48616,2.7161058976119,-1.55642023346309,0.396734569314049
1580421657.49015,3.02128633554594,-1.49538414587619,0.274662394140478
1580421657.49414,3.32646677347975,-1.49538414587619,0.274662394140478
1580421657.49814,3.50957503624022,-1.67849240863666,0.396734569314049
1580421657.50213,3.32646677347975,-1.8616006713969,0.51880674448762
1580421657.50613,3.20439459830618,-1.98367284657047,0.70191500724809
1580421657.51012,2.96025024795904,-1.98367284657047,0.885023270008332
1580421657.51411,2.89921416037237,-1.80056458381023,0.885023270008332
1580421657.51811,3.14335851071951,-1.61745632104976,1.0070954451819
1580421657.5221,3.50957503624022,-1.67849240863666,1.25123979552905
1580421657.52609,3.81475547417404,-1.98367284657047,1.37331197070262
1580421657.53009,3.75371938658736,-2.28885328450451,1.25123979552905
1580421657.53408,3.44853894865332,-2.28885328450451,1.19020370794237
1580421657.53807,3.08232242313261,-2.16678110933094,1.0070954451819
1580421657.54207,2.89921416037237,-2.04470893415737,0.823987182421661
1580421657.54606,2.96025024795904,-1.8616006713969,0.946059357595232
1580421657.55008,2.89921416037237,-1.55642023346309,0.946059357595232
1580421657.55407,2.65506981002522,-1.49538414587619,0.946059357595232
1580421657.55807,2.22781719691761,-1.55642023346309,0.946059357595232
1580421657.56206,1.43434805828952,-1.67849240863666,0.885023270008332
1580421657.56605,1.0070954451819,-1.49538414587619,0.70191500724809
1580421657.57005,0.946059357595232,-1.12916762035547,0.51880674448762
1580421657.57404,0.946059357595232,-0.946059357595232,0.579842832074519
1580421657.57803,1.12916762035547,-0.823987182421661,0.579842832074519
1580421657.58203,1.0070954451819,-1.0070954451819,0.762951094834762
1580421657.58602,0.640878919661191,-1.0681315327688,0.946059357595232
1580421657.59001,0.274662394140478,-1.12916762035547,0.946059357595232
1580421657.59401,0.152590218966907,-1.31227588311594,1.0681315327688
1580421657.598,0.152590218966907,-1.31227588311594,1.0070954451819
1580421657.60199,0.274662394140478,-1.31227588311594,1.0681315327688
1580421657.60599,0.396734569314049,-1.37331197070262,1.0070954451819
1580421657.60998,0.274662394140478,-1.31227588311594,1.0070954451819
1580421657.61397,-0.152590218966907,-1.0681315327688,1.0070954451819
1580421657.61797,-0.396734569314049,-0.70191500724809,1.12916762035547
1580421657.62196,-0.274662394140478,-0.274662394140478,1.0681315327688
1580421657.62596,-0.0305180437933359,-0.091554131380235,1.12916762035547
1580421657.62994,-0.0305180437933359,-0.091554131380235,1.19020370794237
1580421657.63394,0.335698481727377,-0.335698481727377,1.31227588311594
1580421657.63793,0.335698481727377,-0.885023270008332,1.25123979552905
1580421657.64192,0.152590218966907,-1.19020370794237,1.25123979552905
1580421657.64592,-0.0305180437933359,-1.0681315327688,1.0070954451819
1580421657.64991,-0.0305180437933359,-0.885023270008332,1.0070954451819
1580421657.6539,0.274662394140478,-0.762951094834762,0.946059357595232
1580421657.6579,0.640878919661191,-1.0681315327688,0.823987182421661
1580421657.66189,1.19020370794237,-1.31227588311594,0.823987182421661
1580421657.66588,1.49538414587619,-1.43434805828952,0.70191500724809
1580421657.66988,1.43434805828952,-1.61745632104976,0.70191500724809
1580421657.67387,0.885023270008332,-1.8616006713969,0.70191500724809
1580421657.67787,0.152590218966907,-2.22781719691761,0.70191500724809
1580421657.68186,-0.396734569314049,-2.22781719691761,0.823987182421661
1580421657.68585,-0.640878919661191,-2.16678110933094,0.885023270008332
1580421657.68985,-0.396734569314049,-2.28885328450451,1.0070954451819
1580421657.69384,-0.213626306553806,-2.10574502174404,0.946059357595232
1580421657.69783,0.0305180437933359,-2.04470893415737,0.946059357595232
1580421657.70183,0.152590218966907,-2.04470893415737,0.762951094834762
1580421657.70582,0.396734569314049,-2.04470893415737,0.579842832074519
1580421657.70984,0.885023270008332,-1.98367284657047,0.457770656900948
1580421657.71383,1.19020370794237,-2.04470893415737,0.335698481727377
1580421657.71783,1.55642023346309,-1.8616006713969,0.396734569314049
1580421657.72182,1.49538414587619,-1.61745632104976,0.213626306553806
1580421657.72581,1.49538414587619,-1.31227588311594,0.213626306553806
1580421657.72981,1.73952849622333,-1.0681315327688,0.213626306553806
1580421657.7338,2.04470893415737,-1.19020370794237,0.213626306553806
1580421657.73779,2.47196154726475,-1.37331197070262,0.335698481727377
1580421657.74179,2.59403372243833,-1.73952849622333,0.396734569314049
1580421657.74578,2.22781719691761,-2.16678110933094,0.335698481727377
1580421657.74977,1.67849240863666,-2.34988937209118,0.274662394140478
1580421657.75377,1.31227588311594,-2.34988937209118,0.396734569314049
1580421657.75776,1.67849240863666,-2.10574502174404,0.396734569314049
1580421657.76175,2.10574502174404,-1.67849240863666,0.152590218966907
1580421657.76575,2.65506981002522,-1.31227588311594,-0.0305180437933359
1580421657.76974,2.83817807278547,-0.946059357595232,-0.152590218966907
1580421657.77374,2.7161058976119,-0.579842832074519,-0.396734569314049
1580421657.77773,2.22781719691761,-0.274662394140478,-0.51880674448762
1580421657.78172,1.61745632104976,-0.0305180437933359,-0.457770656900948
1580421657.78571,0.823987182421661,0.213626306553806,-0.51880674448762
1580421657.7897,0.152590218966907,0.51880674448762,-0.457770656900948
1580421657.7937,-0.396734569314049,0.70191500724809,-0.274662394140478
1580421657.79769,-0.640878919661191,0.946059357595232,-0.213626306553806
1580421657.80168,-0.579842832074519,0.885023270008332,-0.091554131380235
1580421657.80568,-0.274662394140478,0.823987182421661,0.091554131380235
1580421657.80967,-0.091554131380235,0.823987182421661,0.274662394140478
1580421657.81366,-0.091554131380235,0.946059357595232,0.274662394140478
1580421657.81766,-0.0305180437933359,1.12916762035547,0.335698481727377
1580421657.82165,0.335698481727377,1.61745632104976,0.396734569314049
1580421657.82564,0.946059357595232,2.16678110933094,0.396734569314049
1580421657.82964,1.8616006713969,2.65506981002522,0.51880674448762
1580421657.83363,2.65506981002522,2.89921416037237,0.70191500724809
1580421657.83763,3.20439459830618,2.83817807278547,0.946059357595232
1580421657.84162,3.02128633554594,2.41092545967808,1.0070954451819
1580421657.84561,2.53299763485165,2.22781719691761,1.0070954451819
1580421657.84961,1.9226367589838,2.34988937209118,1.12916762035547
1580421657.8536,1.67849240863666,2.53299763485165,0.946059357595232
1580421657.85759,1.98367284657047,2.7771419851988,1.12916762035547
1580421657.86159,2.89921416037237,2.7771419851988,1.12916762035547
1580421657.86558,3.50957503624022,2.7771419851988,1.25123979552905
1580421657.86957,4.05889982452118,2.7161058976119,1.12916762035547
1580421657.87356,4.18097199969475,2.53299763485165,1.31227588311594
1580421657.87755,4.05889982452118,2.28885328450451,1.49538414587619
1580421657.88155,3.99786373693451,2.34988937209118,1.49538414587619
1580421657.88554,4.11993591210808,2.41092545967808,1.31227588311594
1580421657.88953,4.24200808728165,2.65506981002522,1.25123979552905
1580421657.89353,4.54718852521546,3.02128633554594,1.25123979552905
1580421657.89752,4.66926070038903,3.32646677347975,1.0070954451819
1580421657.90152,4.8523689631495,3.50957503624022,0.885023270008332
1580421657.90551,4.97444113832307,3.69268329900046,0.762951094834762
1580421657.9095,4.97444113832307,3.50957503624022,0.762951094834762
1580421657.9135,4.97444113832307,3.57061112382689,0.823987182421661
1580421657.91749,4.8523689631495,3.63164721141379,0.640878919661191
1580421657.92148,4.7913328755626,3.81475547417404,0.762951094834762
1580421657.92548,4.73029678797593,4.11993591210808,0.885023270008332
1580421657.92947,4.73029678797593,4.48615243762879,1.0070954451819
1580421657.93346,4.97444113832307,4.7913328755626,1.25123979552905
1580421657.93746,5.52376592660403,4.7913328755626,1.37331197070262
1580421657.94145,6.13412680247188,4.54718852521546,1.55642023346309
1580421657.94544,6.62241550316617,4.18097199969475,1.67849240863666
1580421657.94946,6.74448767833974,3.93682764934761,1.8616006713969
1580421657.95346,6.43930724040592,3.93682764934761,1.73952849622333
1580421657.95745,6.01205462729831,3.81475547417404,1.61745632104976
1580421657.96144,5.7068741893645,3.75371938658736,1.61745632104976
1580421657.96544,5.27962157625689,3.81475547417404,1.31227588311594
1580421657.96943,4.91340505073617,3.75371938658736,1.0681315327688
1580421657.97342,4.54718852521546,3.50957503624022,0.762951094834762
1580421657.97742,4.05889982452118,3.57061112382689,0.579842832074519
1580421657.98141,3.87579156176093,3.50957503624022,0.396734569314049
1580421657.9854,3.69268329900046,3.63164721141379,0.51880674448762
1580421657.9894,3.38750286106665,3.93682764934761,0.396734569314049
1580421657.99339,3.02128633554594,4.18097199969475,0.396734569314049
1580421657.99739,2.59403372243833,4.48615243762879,0.396734569314049
1580421658.00138,2.22781719691761,4.73029678797593,0.335698481727377
1580421658.00537,1.80056458381023,4.91340505073617,0.335698481727377
1580421658.00936,1.61745632104976,5.09651331349664,0.335698481727377
1580421658.01336,1.8616006713969,4.97444113832307,0.335698481727377
1580421658.01735,1.67849240863666,4.60822461280236,0.396734569314049
1580421658.02135,1.55642023346309,4.24200808728165,0.579842832074519
1580421658.02534,1.12916762035547,4.11993591210808,0.457770656900948
1580421658.02933,0.579842832074519,4.18097199969475,0.274662394140478
1580421658.03332,0.152590218966907,4.42511635004189,0.396734569314049
1580421658.03731,-0.0305180437933359,5.03547722590974,0.457770656900948
1580421658.04131,0.0305180437933359,5.58480201419093,0.457770656900948
1580421658.0453,0.579842832074519,6.19516289005878,0.457770656900948
1580421658.04929,1.31227588311594,6.43930724040592,0.579842832074519
1580421658.05329,1.98367284657047,6.31723506523235,0.70191500724809
1580421658.05728,2.10574502174404,5.76791027695117,0.70191500724809
1580421658.06128,1.8616006713969,4.91340505073617,0.579842832074519
1580421658.06527,1.12916762035547,4.36408026245522,0.396734569314049
1580421658.06926,0.457770656900948,4.18097199969475,0.274662394140478
1580421658.07326,-0.274662394140478,4.36408026245522,0.152590218966907
1580421658.07725,-1.25123979552905,4.66926070038903,0.0305180437933359
1580421658.08124,-1.98367284657047,4.7913328755626,-0.091554131380235
1580421658.08524,-2.65506981002522,4.8523689631495,-0.091554131380235
1580421658.08923,-3.14335851071951,4.91340505073617,-0.091554131380235
1580421658.09322,-3.93682764934761,4.73029678797593,-0.213626306553806
1580421658.09722,-4.60822461280236,4.73029678797593,-0.274662394140478
1580421658.10121,-4.54718852521546,4.66926070038903,-0.274662394140478
1580421658.1052,-3.44853894865332,4.42511635004189,-0.213626306553806
1580421658.10919,-1.8616006713969,3.93682764934761,-0.335698481727377
1580421658.11318,-0.335698481727377,3.32646677347975,-0.335698481727377
1580421658.11718,0.335698481727377,2.65506981002522,-0.457770656900948
1580421658.12117,0.213626306553806,2.34988937209118,-0.457770656900948
1580421658.12517,-0.457770656900948,2.28885328450451,-0.51880674448762
1580421658.12916,-0.946059357595232,2.59403372243833,-0.640878919661191
1580421658.13315,-1.0070954451819,2.83817807278547,-0.762951094834762
1580421658.13715,-0.885023270008332,2.89921416037237,-0.70191500724809
1580421658.14114,-0.579842832074519,2.65506981002522,-0.335698481727377
1580421658.14513,-0.335698481727377,1.9226367589838,-0.0305180437933359
1580421658.14913,-0.823987182421661,1.31227588311594,0.335698481727377
1580421658.15312,-1.25123979552905,1.12916762035547,0.457770656900948
1580421658.15711,-1.19020370794237,1.19020370794237,0.51880674448762
1580421658.16111,-0.579842832074519,1.43434805828952,0.640878919661191
1580421658.1651,0.579842832074519,1.55642023346309,0.457770656900948
1580421658.16909,1.61745632104976,1.61745632104976,0.396734569314049
1580421658.17309,2.28885328450451,1.49538414587619,0.335698481727377
1580421658.17708,2.28885328450451,1.31227588311594,0.0305180437933359
1580421658.18107,1.98367284657047,1.25123979552905,-0.152590218966907
1580421658.18507,1.31227588311594,1.12916762035547,-0.213626306553806
1580421658.18909,0.885023270008332,1.0681315327688,-0.274662394140478
1580421658.19308,0.70191500724809,1.0681315327688,-0.091554131380235
1580421658.19707,1.19020370794237,1.19020370794237,0.091554131380235
1580421658.20107,1.80056458381023,1.49538414587619,0.213626306553806
1580421658.20506,2.47196154726475,1.67849240863666,0.396734569314049
1580421658.20905,2.7771419851988,1.80056458381023,0.51880674448762
1580421658.21305,2.65506981002522,2.22781719691761,0.457770656900948
1580421658.21704,1.98367284657047,2.7161058976119,0.335698481727377
1580421658.22104,1.49538414587619,3.02128633554594,0.152590218966907
1580421658.22503,1.25123979552905,3.26543068589308,0.0305180437933359
1580421658.22902,1.12916762035547,3.44853894865332,0.0305180437933359
1580421658.23301,0.823987182421661,3.32646677347975,-0.0305180437933359
1580421658.23701,0.152590218966907,3.32646677347975,0.0305180437933359
1580421658.241,-0.579842832074519,3.50957503624022,-0.091554131380235
1580421658.245,-1.55642023346309,3.75371938658736,-0.152590218966907
1580421658.24899,-2.47196154726475,3.87579156176093,-0.152590218966907
1580421658.25298,-3.38750286106665,3.81475547417404,-0.213626306553806
1580421658.25698,-4.11993591210808,3.81475547417404,-0.152590218966907
1580421658.26097,-4.54718852521546,3.87579156176093,-0.396734569314049
1580421658.26496,-4.8523689631495,4.05889982452118,-0.885023270008332
1580421658.26895,-4.48615243762879,3.99786373693451,-1.37331197070262
1580421658.27294,-4.8523689631495,3.69268329900046,-1.98367284657047
1580421658.27694,-5.88998245212474,3.44853894865332,-2.59403372243833
1580421658.28093,-7.59899290455473,3.38750286106665,-3.26543068589308
1580421658.28492,-9.00282291905091,3.50957503624022,-4.11993591210808
1580421658.28892,-9.67421988250544,3.38750286106665,-4.7913328755626
1580421658.29291,-9.55214770733187,3.20439459830618,-5.27962157625689
1580421658.29691,-8.81971465629044,2.83817807278547,-5.52376592660403
1580421658.3009,-8.39246204318306,2.16678110933094,-5.58480201419093
1580421658.30489,-9.30800335698473,1.8616006713969,-5.46272983901736
1580421658.30889,-10.7728694590676,1.80056458381023,-5.52376592660403
1580421658.31288,-12.4818799114976,2.10574502174404,-5.21858548867021
1580421658.31687,-13.8246738384069,2.89921416037237,-4.97444113832307
1580421658.32087,-14.1908903639276,3.44853894865332,-4.48615243762879
1580421658.32486,-13.7636377508202,3.38750286106665,-3.93682764934761
1580421658.32885,-13.0312046997788,3.02128633554594,-3.32646677347975
1580421658.33285,-12.5429159990845,2.53299763485165,-2.7771419851988
1580421658.33684,-12.6039520866711,2.28885328450451,-2.34988937209118
1580421658.34083,-13.3974212252995,2.04470893415737,-2.10574502174404
1580421658.34483,-14.3129625391011,1.8616006713969,-2.10574502174404
1580421658.34885,-14.8012512397954,1.31227588311594,-2.34988937209118
1580421658.35284,-14.3129625391011,0.70191500724809,-2.59403372243833
1580421658.35683,-13.1532768749523,0.335698481727377,-3.02128633554594
1580421658.36083,-11.2001220721752,0.274662394140478,-3.32646677347975
1580421658.36482,-9.4911116197452,0.274662394140478,-3.44853894865332
1580421658.36881,-8.14831769283592,0.335698481727377,-3.44853894865332
1580421658.37281,-7.47692072938116,0.457770656900948,-3.38750286106665
1580421658.3768,-7.47692072938116,0.762951094834762,-3.20439459830618
1580421658.38079,-6.68345159075307,1.43434805828952,-3.20439459830618
1580421658.38479,-5.09651331349664,2.10574502174404,-2.89921416037237
1580421658.38878,-2.47196154726475,2.96025024795904,-2.83817807278547
1580421658.39277,0.51880674448762,3.81475547417404,-2.7161058976119
1580421658.39677,3.08232242313261,4.54718852521546,-2.53299763485165
1580421658.40076,4.7913328755626,5.58480201419093,-2.65506981002522
1580421658.40475,6.01205462729831,6.62241550316617,-3.02128633554594
1580421658.40875,7.04966811627378,7.47692072938116,-3.20439459830618
1580421658.41274,7.96520943007545,7.7821011673152,-3.26543068589308
1580421658.41674,8.6366063935302,7.66002899214163,-3.38750286106665
1580421658.42073,9.12489509422448,7.11070420386045,-3.44853894865332
1580421658.42472,9.00282291905091,6.68345159075307,-3.50957503624022
1580421658.42871,8.75867856870377,6.19516289005878,-3.69268329900046
1580421658.4327,8.45349813076973,5.95101853971164,-3.93682764934761
1580421658.4367,8.02624551766235,5.7068741893645,-3.87579156176093
1580421658.44069,7.17174029144735,5.58480201419093,-3.93682764934761
1580421658.44468,6.31723506523235,5.52376592660403,-3.99786373693451
1580421658.44868,5.40169375143046,5.95101853971164,-4.11993591210808
1580421658.45267,4.73029678797593,6.62241550316617,-4.42511635004189
1580421658.45667,4.60822461280236,7.29381246662092,-4.54718852521546
1580421658.46066,4.42511635004189,7.66002899214163,-4.60822461280236
1580421658.46465,4.30304417486832,7.96520943007545,-4.73029678797593
1580421658.46865,4.30304417486832,8.14831769283592,-4.73029678797593
1580421658.47264,4.42511635004189,8.08728160524902,-4.8523689631495
1580421658.47663,4.97444113832307,8.02624551766235,-4.8523689631495
1580421658.48063,5.82894636453807,7.90417334248878,-5.03547722590974
1580421658.48462,6.43930724040592,8.02624551766235,-5.40169375143046
1580421658.48861,7.29381246662092,8.02624551766235,-5.52376592660403
1580421658.49261,8.08728160524902,7.96520943007545,-5.6458381017776
1580421658.4966,9.00282291905091,7.53795681696806,-6.01205462729831
1580421658.50059,9.4300755321583,7.04966811627378,-6.56137941557949
1580421658.50459,9.79629205767901,6.80552376592664,-7.04966811627378
1580421658.50857,10.7118333714809,6.92759594110021,-7.72106507972831
1580421658.51257,12.1766994735638,7.35484855420759,-8.33142595559616
1580421658.51656,14.1298542763409,7.72106507972831,-8.75867856870377
1580421658.52056,15.5336842908368,7.96520943007545,-9.12489509422448
1580421658.52455,16.1440451667047,7.90417334248878,-9.30800335698473
1580421658.52854,15.7167925535973,8.08728160524902,-9.36903944457163
1580421658.53254,14.7402151522087,7.90417334248878,-9.4300755321583
1580421658.53653,13.3974212252995,7.72106507972831,-9.55214770733187
1580421658.54052,12.2987716487373,7.17174029144735,-9.67421988250544
1580421658.54452,11.1390859845883,6.56137941557949,-9.67421988250544
1580421658.54851,10.3456168459602,5.88998245212474,-9.61318379491877
1580421658.5525,9.73525597009234,5.27962157625689,-9.67421988250544
1580421658.5565,9.24696726939806,4.66926070038903,-9.61318379491877
1580421658.56049,8.81971465629044,4.18097199969475,-9.55214770733187
1580421658.56448,8.51453421835663,3.57061112382689,-9.4300755321583
1580421658.56848,8.02624551766235,2.83817807278547,-9.36903944457163
1580421658.57247,7.35484855420759,1.98367284657047,-9.30800335698473
1580421658.57646,6.5003433279926,1.12916762035547,-9.24696726939806
1580421658.58046,5.40169375143046,0.152590218966907,-9.30800335698473
1580421658.58445,3.93682764934761,-1.0070954451819,-9.55214770733187
1580421658.58847,2.47196154726475,-2.10574502174404,-9.79629205767901
1580421658.59246,1.0681315327688,-3.20439459830618,-10.2235446707866
1580421658.59646,0.091554131380235,-4.60822461280236,-10.5287251087204
1580421658.60045,0.091554131380235,-6.31723506523235,-11.0780498970016
1580421658.60444,0.885023270008332,-8.81971465629044,-11.505302510109
1580421658.60844,1.43434805828952,-11.8715190356297,-12.0546272983902
1580421658.61243,1.61745632104976,-15.4726482032502,-12.9701686121919
1580421658.61643,0.946059357595232,-19.2568856336309,-13.8246738384069
1580421658.62042,-0.335698481727377,-22.9800869764247,-14.8012512397954
1580421658.62441,-1.55642023346309,-26.8863965819789,-15.8388647287709
1580421658.6284,-2.04470893415737,-30.7927061875332,-16.937514305333
1580421658.6324,-1.8616006713969,-34.6990157930877,-18.0361638818952
1580421658.63639,-1.12916762035547,-38.7884336614025,-19.1348134584573
1580421658.64039,-0.457770656900948,-42.8168154421303,-20.1724269474325
1580421658.64438,-0.0305180437933359,-47.0283054856184,-21.2710765239947
1580421658.64837,0.51880674448762,-51.6670481422141,-22.3086900129701
1580421658.65237,1.61745632104976,-56.3057907988098,-23.4073395895323
1580421658.65636,3.50957503624022,-60.8834973678188,-24.4449530785075
1580421658.66035,6.13412680247188,-65.6443121995881,-25.7267109178301
1580421658.66435,8.81971465629044,-70.9544518196383,-27.0084687571525
1580421658.66833,11.6884107728695,-76.8749523155566,-28.1681544213016
1580421658.67233,14.1908903639276,-83.7720302128632,-29.3888761730373
1580421658.67632,16.4492256046387,-91.9508659494925,-30.2433813992523
1580421658.68032,18.4023804074159,-101.045242999924,-30.9147783627068
1580421658.68431,20.1113908598459,-110.566872663462,-31.4030670634013
1580421658.6883,22.1255817502097,-119.783321889067,-31.6472114137484
1580421658.6923,24.1397726405737,-127.962157625696,-31.4641031509882
1580421658.69629,26.8253604943923,-135.225452048524,-31.0368505378804
1580421658.70028,29.9382009613182,-141.512169069963,-30.3654535744258
1580421658.70428,33.3562218661782,-147.24956130312,-29.0836957351032
1580421658.70827,37.2625314717325,-152.803845273518,-27.5577935454337
1580421658.71226,41.2909132524603,-158.358129243916,-26.2149996185244
1580421658.71626,44.4647898069732,-165.072098878462,-25.4215304798961
1580421658.72025,44.7699702449072,-173.373006790265,-25.1773861295489
1580421658.72424,40.5584802014189,-182.528419928283,-25.482566567483
1580421658.72824,31.7692835889218,-189.242389562829,-26.5201800564582
1580421658.73223,20.4165712977797,-190.951400015259,-28.3512626840618
1580421658.73622,8.75867856870377,-189.181353475242,-30.7927061875332
1580421658.74022,-1.67849240863666,-187.838559548333,-33.2951857785918
1580421658.74421,-8.69764248111687,-188.08270389868,-35.3704127565425
1580421658.7482,-11.3221942473488,-189.730678263523,-36.2249179827575
1580421658.75219,-10.0404364080262,-190.951400015259,-35.7366292820632
1580421658.75619,-6.43930724040592,-188.570992599374,-34.5769436179141
1580421658.76018,-2.41092545967808,-180.758373388266,-33.1120775158313
1580421658.76417,1.31227588311594,-170.138094148165,-31.8913557640956
1580421658.76817,4.24200808728165,-160.37232013428,-31.0978866254673
1580421658.77216,7.35484855420759,-153.597314412146,-30.7927061875332
1580421658.77615,12.4818799114976,-150.179293507286,-30.6706340123596
1580421658.78015,20.1724269474325,-148.470283054856,-31.0368505378804
1580421658.78414,31.0978866254673,-146.639200427252,-31.8303196765089
1580421658.78813,44.2816815442129,-144.014648661021,-32.928969253071
1580421658.79213,58.5641260395205,-140.04730296788,-34.1496910048068
1580421658.79612,71.6258487830933,-135.042343785763,-35.492484931716
1580421658.80011,80.5981536583508,-129.304951552605,-36.4690623331046
1580421658.80411,83.7720302128637,-122.468909742885,-36.5911345082782
1580421658.8081,80.5981536583508,-114.59525444419,-35.9807736324103
1580421658.81209,72.3582818341347,-105.622949568933,-34.5159075303275
1580421658.81609,60.3952086671243,-96.5285725185017,-32.0134279392691
1580421658.82008,45.6855115587089,-88.1055924315251,-28.900587472343
1580421658.82408,29.1447318226901,-80.8422980086975,-25.1773861295489
1580421658.82809,11.8715190356297,-75.7763027389944,-20.9658960860609
1580421658.83209,-3.63164721141379,-72.480354009308,-16.3271534294652
1580421658.83608,-16.3881895170518,-70.5882352941176,-11.6273746852826
1580421658.84008,-26.0929274433508,-69.4285496299688,-7.17174029144735
1580421658.84407,-33.1731136034182,-69.062333104448,-3.32646677347975
1580421658.84806,-38.4222171358817,-69.0012970168611,-0.213626306553806
1580421658.85205,-42.9999237048905,-68.8792248416876,1.73952849622333
1580421658.85605,-48.0048828870069,-68.2688639658197,3.08232242313261
1580421658.86004,-53.9864194705119,-67.7805752651254,3.81475547417404
1580421658.86404,-60.7614251926452,-67.3533226520181,4.18097199969475
1580421658.86803,-67.7805752651254,-66.8650339513238,4.11993591210808
1580421658.87202,-74.4335088120852,-66.3157091630426,3.93682764934761
1580421658.87602,-80.3540093080032,-65.5222400244145,3.50957503624022
1580421658.88001,-85.3589684901197,-64.6677347981995,2.83817807278547
1580421658.884,-89.9366750591287,-63.4470130464638,1.67849240863666
1580421658.888,-94.5143816281377,-62.1652552071412,0.152590218966907
1580421658.89199,-99.0310521095598,-61.1886778057526,-1.98367284657047
1580421658.89598,-103.669794766156,-60.5783169298847,-4.36408026245522
1580421658.89998,-108.186465247578,-59.9069199664302,-7.29381246662092
1580421658.90397,-111.726558327611,-59.2355230029755,-10.1625085831997
1580421658.90796,-113.984893568322,-58.4420538643474,-12.9701686121919
1580421658.91195,-114.290074006256,-57.4654764629588,-15.4726482032502
1580421658.91595,-112.825207904173,-56.2447547112231,-17.486839093614
1580421658.91994,-109.529259174487,-54.7798886091402,-18.7685969329366
1580421658.92393,-104.951552605478,-53.0708781567103,-19.8672465094987
1580421658.92793,-99.275196459907,-51.1177233539331,-20.4165712977797
1580421658.93192,-92.7443350881208,-49.0424963759824,-20.5996795605402
1580421658.93591,-85.6031128404668,-46.5400167849241,-20.2944991226061
1580421658.93991,-77.9125658045318,-43.4271763179981,-19.7451743343252
1580421658.9439,-69.6726939803159,-40.1312275883117,-18.8296330205233
1580421658.94789,-61.4938582436866,-36.5300984206913,-17.6089112687876
1580421658.95189,-53.4981307698176,-32.623788815137,-16.1440451667047
1580421658.95588,-46.2348363469903,-28.5954070344089,-14.3129625391011
1580421658.95987,-39.6429388876174,-24.5059891660944,-12.2987716487373
1580421658.96387,-33.9055466544596,-20.5996795605402,-10.0404364080262
1580421658.96786,-28.7785152971694,-16.632333867399,-7.53795681696806
1580421658.97185,-23.8956282902266,-13.0922407873654,-4.91340505073617
1580421658.97585,-19.501029983978,-9.73525597009234,-2.34988937209118
1580421658.97984,-15.2895399404897,-6.80552376592664,0.396734569314049
1580421658.98383,-11.6273746852826,-4.42511635004189,3.02128633554594
1580421658.98785,-8.14831769283592,-2.47196154726475,5.6458381017776
1580421658.99185,-5.03547722590974,-1.12916762035547,7.7821011673152
1580421658.99584,-2.28885328450451,-0.51880674448762,9.73525597009234
1580421658.99983,0.396734569314049,-0.70191500724809,11.3221942473488
1580421659.00383,2.7771419851988,-1.49538414587619,12.2987716487373
1580421659.00782,5.21858548867021,-2.59403372243833,12.9091325246052
1580421659.01181,7.66002899214163,-4.11993591210808,13.0312046997788
1580421659.01581,10.1014724956131,-5.7068741893645,12.5429159990845
1580421659.0198,13.1532768749523,-7.41588464179449,11.9325551232166
1580421659.02379,16.9985503929197,-9.06385900663759,11.0170138094147
1580421659.02779,21.759365224689,-10.5287251087204,9.91836423285258
1580421659.03178,27.9240100709544,-11.9935912108033,8.6366063935302
1580421659.03578,35.5535210193025,-13.2753490501259,7.35484855420759
1580421659.03977,44.5868619821467,-14.9843595025559,6.01205462729831
1580421659.04376,54.1084916456853,-17.2426947432668,4.48615243762879
1580421659.04776,62.8366521705962,-20.1113908598459,3.20439459830618
1580421659.05175,69.9168383306633,-23.468375677119,1.73952849622333
1580421659.05574,74.9828336003666,-26.8253604943923,0.51880674448762
1580421659.05974,78.6449988555737,-29.1447318226901,-0.579842832074519
1580421659.06373,82.0019836728466,-30.3044174868389,-1.73952849622333
1580421659.06772,85.7862211032275,-29.6940566109711,-2.59403372243833
1580421659.07171,89.9977111467156,-27.2526131074997,-3.02128633554594
1580421659.0757,94.3923094529641,-22.919050888838,-3.02128633554594
1580421659.0797,98.1765468833451,-17.2426947432668,-2.34988937209118
1580421659.08369,101.228351262684,-11.0780498970016,-1.31227588311594
1580421659.08769,102.876325627527,-4.97444113832307,0.213626306553806
1580421659.09168,102.693217364767,0.213626306553806,2.04470893415737
1580421659.09567,100.251773861296,4.24200808728165,3.99786373693451
1580421659.09967,96.0402838178074,7.17174029144735,6.13412680247188
1580421659.10366,90.180819409476,8.81971465629044,8.88075074387734
1580421659.10765,82.551308461128,9.24696726939806,11.8715190356297
1580421659.11165,72.9686427100023,8.81971465629044,14.7402151522087
1580421659.11564,61.249713893339,7.66002899214163,17.792019531548
1580421659.11963,48.493171587701,6.31723506523235,20.4165712977797
1580421659.12363,34.9431601434346,4.73029678797593,22.3086900129701
1580421659.12762,21.0879682612344,3.14335851071951,23.4073395895323
1580421659.13161,6.98863202868688,1.67849240863666,23.5904478522925
1580421659.13561,-5.58480201419093,0.396734569314049,22.8580148012511
1580421659.1396,-16.1440451667047,-0.885023270008332,21.9424734874494
1580421659.14359,-24.2008087281604,-2.34988937209118,20.8438239108873
1580421659.14761,-30.4875257495994,-4.24200808728165,19.6231021591516
1580421659.15161,-35.9197375448234,-6.25619897764545,18.4023804074159
1580421659.1556,-40.7415884641796,-8.02624551766235,16.937514305333
1580421659.15959,-44.8310063324941,-8.88075074387734,15.3505760280766
1580421659.16359,-48.0659189745938,-8.6366063935302,13.7026016632333
1580421659.16758,-50.3242542153048,-7.35484855420759,11.8715190356297
1580421659.17157,-51.9111924925612,-5.09651331349664,9.85732814526591
1580421659.17557,-52.582589456016,-3.02128633554594,7.84313725490188
1580421659.17956,-51.9111924925612,-1.12916762035547,6.01205462729831
1580421659.18355,-50.2632181277181,0.51880674448762,4.8523689631495
1580421659.18755,-47.455558098726,1.55642023346309,4.48615243762879
1580421659.19154,-44.0985732814527,1.25123979552905,5.09651331349664
1580421659.19553,-40.4364080262455,0.091554131380235,6.5003433279926
1580421659.19953,-36.4690623331046,-1.43434805828952,8.5755703059433
1580421659.20352,-32.4406805523768,-3.26543068589308,11.2001220721752
1580421659.20752,-28.2902265964751,-5.6458381017776,14.3129625391011
1580421659.21151,-23.0411230640116,-7.90417334248878,18.2803082322423
1580421659.2155,-16.3271534294652,-9.67421988250544,22.613870450904
1580421659.2195,-10.1625085831997,-10.650797283894,27.3746852826732
1580421659.22349,-6.5003433279926,-10.5287251087204,32.1355001144425
1580421659.22751,-7.41588464179449,-9.24696726939806,36.4690623331044
1580421659.2315,-13.6415655756466,-6.92759594110021,39.6429388876172
1580421659.23549,-24.7501335164416,-3.44853894865332,41.5960936903944
1580421659.23949,-37.9949645227741,1.80056458381023,42.2064545662622
1580421659.24348,-49.6528572518503,9.30800335698473,42.2674906538489
1580421659.24748,-56.8551155870909,18.0971999694818,41.9012741283282
1580421659.25147,-58.9303425650417,26.0318913557639,40.8636606393529
1580421659.25546,-56.000610360876,31.3420309758144,39.2156862745096
1580421659.25946,-48.0048828870069,34.882124055848,37.0794232089722
1580421659.26345,-35.6755931944763,37.8118562600137,35.3704127565422
1580421659.26744,-21.4541847867551,40.5584802014189,33.6003662165253
1580421659.27144,-9.06385900663759,42.6337071793696,32.2575722896161
1580421659.27543,-0.396734569314049,43.0609597924772,31.1589227130539
1580421659.27942,5.34065766384379,41.3519493400472,30.4264896620125
1580421659.28342,7.90417334248878,38.1170366979475,30.1823453116654
1580421659.28741,8.08728160524902,34.9431601434346,30.609597924773
1580421659.2914,8.02624551766235,33.5393301289387,31.5251392385746
1580421659.2954,10.7118333714809,35.1262684061951,33.4172579537651
1580421659.29939,19.195849546044,40.3753719386586,36.530098420691
1580421659.30339,32.4406805523765,48.5542076752877,40.4364080262453
1580421659.30737,46.4789806973372,57.5265125505452,44.0985732814524
1580421659.31137,57.3434042877848,66.2546730754561,46.8451972228579
1580421659.31536,63.14183260853,74.2504005493251,48.5542076752877
1580421659.31935,63.2639047837038,80.4150453955904,48.9814602883953
1580421659.32335,57.2213321126114,83.9551384756237,48.1879911497672
1580421659.32734,46.4789806973372,84.8706797894256,45.8686198214693
1580421659.33133,34.882124055848,83.9551384756237,42.3285267414358
1580421659.33533,26.5812161440451,81.8188754100865,37.8118562600137
1580421659.33932,23.2852674143587,79.316395819028,33.6003662165253
1580421659.34331,24.8722056916151,76.8749523155566,30.2433813992523
1580421659.34731,28.4122987716487,74.0672922865647,28.2291905088882
1580421659.3513,31.2199588006408,70.4661631189442,27.9240100709544
1580421659.35529,31.6472114137482,66.1326009002823,29.3278400854504
1580421659.35929,29.6940566109711,62.7145799954224,31.8913557640954
1580421659.36328,25.8487830930037,61.7380025940333,35.0041962310215
1580421659.36727,21.0269321736475,64.7287708857866,37.7508201724268
1580421659.37127,17.2426947432668,70.9544518196385,40.1312275883115
1580421659.37526,16.2050812542916,78.767071030747,41.9012741283282
1580421659.37926,18.646524757763,86.8238345922027,42.8778515297167
1580421659.38325,23.7125200274661,93.4157320515756,43.6102845807582
1580421659.38724,28.9616235599296,96.8947890440222,44.1596093690393
1580421659.39123,30.6706340123596,97.8713664454108,44.3427176317996
1580421659.39522,27.3746852826732,96.7727168688489,43.366140230411
1580421659.39922,19.4399938963911,94.7585259784851,40.6195162890058
1580421659.40321,8.39246204318306,91.7677576867322,36.1638818951703
1580421659.4072,-3.50957503624022,87.861448081178,30.7316700999465
1580421659.4112,-14.8012512397954,83.1616693369956,24.9942778667887
1580421659.41519,-24.9942778667887,78.5839627679866,19.4399938963911
1580421659.41918,-33.478294041352,74.7997253376061,14.7402151522087
1580421659.42318,-40.0091554131382,71.8089570458537,10.7118333714809
1580421659.42717,-44.6478980697339,69.8558022430766,7.7821011673152
1580421659.43117,-46.9672693980317,68.7571526665142,5.6458381017776
1580421659.43516,-46.8451972228581,69.1233691920352,4.60822461280236
1580421659.43915,-44.2816815442131,70.588235294118,4.66926070038903
1580421659.44315,-39.1546501869232,73.2127870603495,5.6458381017776
1580421659.44714,-31.9523918516825,76.8139162279699,7.23277637903402
1580421659.45113,-22.7969787136644,81.0864423590451,9.24696726939806
1580421659.45513,-12.8480964370183,85.3589684901199,11.9325551232166
1580421659.45912,-2.59403372243833,89.5094224460213,14.8622873273823
1580421659.46311,7.11070420386045,93.2936598764022,18.1582360570687
1580421659.46713,15.3505760280766,96.9558251316093,21.6983291371023
1580421659.47113,21.9424734874494,100.068665598535,25.1163500419623
1580421659.47512,27.191577019913,102.937361715114,28.4122987716487
1580421659.47911,31.5251392385746,105.806057831693,31.2809948882275
1580421659.48311,35.4314488441289,108.491645685512,33.7224383916989
1580421659.4871,38.4832532234682,110.811017013809,35.6145571068894
1580421659.49109,40.6195162890058,112.458991378653,37.0794232089722
1580421659.49509,41.2298771648736,113.374532692455,38.0560006103608
1580421659.49908,40.2532997634851,113.984893568322,38.6053253986418
1580421659.50307,37.8728923476003,114.656290531777,38.4832532234682
1580421659.50707,35.3704127565422,115.266651407645,37.5677119096665
1580421659.51106,32.8679331654839,115.938048371099,36.1638818951703
1580421659.51505,30.8537422751201,116.30426489662,34.3938353551537
1580421659.51905,29.1447318226901,116.30426489662,32.4406805523765
1580421659.52304,26.7643244068054,116.060120546273,30.2433813992523
1580421659.52703,23.4073395895323,115.449759670405,27.8019378957808
1580421659.53103,19.3789578088044,114.778362706951,25.2384222171358
1580421659.53502,14.7402151522087,113.923857480735,22.613870450904
1580421659.53901,10.4066529335469,113.252460517281,20.355535210193
1580421659.54301,6.62241550316617,112.947280079347,17.792019531548
1580421659.547,3.69268329900046,112.458991378653,15.5947203784237
1580421659.55099,1.43434805828952,112.092774853132,13.3363851377126
1580421659.55498,-0.274662394140478,111.604486152438,11.2611581597619
1580421659.55898,-1.80056458381023,110.99412527657,9.36903944457163
1580421659.56297,-3.20439459830618,110.444800488289,7.72106507972831
1580421659.56696,-4.48615243762879,109.651331349661,6.37827115281902
1580421659.57096,-5.46272983901736,108.552681773098,4.91340505073617
1580421659.57495,-6.43930724040592,107.392996108949,3.99786373693451
1580421659.57894,-7.23277637903402,106.172274357214,3.14335851071951
1580421659.58294,-8.39246204318306,105.195696955825,2.53299763485165
1580421659.58693,-10.1625085831997,103.852903028916,2.47196154726475
1580421659.59092,-12.1156633859769,102.815289539941,2.59403372243833
1580421659.59492,-13.6415655756466,101.960784313726,2.65506981002522
1580421659.59891,-13.9467460135804,101.472495613031,2.28885328450451
1580421659.60291,-12.9091325246052,101.533531700618,0.762951094834762
1580421659.6069,-10.8339055466545,101.960784313726,0.274662394140478
1580421659.61089,-8.75867856870377,103.791866941329,1.73952849622333
1580421659.61489,-7.11070420386045,104.707408255131,4.24200808728165
1580421659.61888,-6.01205462729831,105.073624780652,6.68345159075307
1580421659.62287,-4.66926070038903,105.195696955825,6.25619897764545
1580421659.62686,-2.41092545967808,105.500877393759,2.53299763485165
1580421659.63085,-1.43434805828952,107.026779583429,10.1625085831997
1580421659.63485,-2.10574502174404,110.688944838636,13.9467460135804
1580421659.63884,-2.28885328450451,110.200656137942,15.1674677653161
1580421659.64283,-1.19020370794237,111.360341802091,15.5947203784237
1580421659.64683,0.640878919661191,114.290074006256,16.3271534294652
1580421659.65082,2.7771419851988,116.731517509728,16.937514305333
1580421659.65482,4.7913328755626,118.135347524224,17.486839093614
1580421659.65881,6.31723506523235,119.111924925612,18.341344319829
1580421659.6628,6.92759594110021,120.271610589761,19.0127412832837
1580421659.6668,6.31723506523235,121.309224078736,19.6231021591516
1580421659.67079,5.15754940108332,121.309224078736,20.7217517357137
1580421659.67478,3.20439459830618,119.905394064241,22.0035095750361
1580421659.67878,0.579842832074519,117.402914473182,23.2852674143587
1580421659.68277,-2.59403372243833,114.59525444419,24.5059891660944
1580421659.68676,-5.58480201419093,112.336919203479,25.7267109178301
1580421659.69076,-7.53795681696806,110.933089188983,26.7643244068054
1580421659.69475,-8.45349813076973,109.590295262074,27.5577935454337
1580421659.69874,-8.51453421835663,108.552681773098,28.1681544213016
1580421659.70274,-8.45349813076973,107.454032196536,28.5343709468223
1580421659.70676,-8.51453421835663,106.355382619974,28.5343709468223
1580421659.71075,-8.69764248111687,104.951552605478,28.2291905088882
1580421659.71474,-8.33142595559616,102.876325627527,27.2526131074997
1580421659.71874,-6.92759594110021,100.251773861296,25.9098191805904
1580421659.72273,-4.36408026245522,96.7727168688489,24.2008087281604
1580421659.72672,-1.67849240863666,92.8053711757079,22.064545662623
1580421659.73072,-0.213626306553806,88.6549172198065,19.6841382467383
1580421659.73471,0.335698481727377,83.9551384756237,17.6089112687876
1580421659.7387,0.70191500724809,78.4008545052266,15.777828641184
1580421659.7427,1.8616006713969,72.2362096589609,14.373998626688
1580421659.74669,3.75371938658736,65.5222400244147,13.2753490501259
1580421659.75068,5.76791027695117,58.8693064774548,12.1156633859769
1580421659.75468,7.35484855420759,52.8877698939496,10.955977721828
1580421659.75867,9.18593118181116,47.4555580987258,9.85732814526591
1580421659.76267,11.1390859845883,43.0609597924772,8.45349813076973
1580421659.76666,13.3974212252995,38.8494697489889,7.23277637903402
1580421659.77065,15.8999008163576,34.7600518806744,6.5003433279926
1580421659.77465,18.2803082322423,30.5485618371861,5.82894636453807
1580421659.77864,20.6607156481268,26.0929274433508,5.40169375143046
1580421659.78263,23.6514839398794,22.1866178377966,4.7913328755626
1580421659.78662,27.0695048447394,18.5854886701761,3.87579156176093
1580421659.79061,31.0978866254673,15.4116121156633,3.08232242313261
1580421659.79461,35.6755931944761,12.7260242618447,1.9226367589838
1580421659.7986,41.4129854276339,10.8339055466545,0.51880674448762
1580421659.80259,48.9204242008086,9.67421988250544,-0.946059357595232
1580421659.80659,58.0148012512395,8.51453421835663,-2.28885328450451
1580421659.81058,68.0247196154728,7.47692072938116,-3.14335851071951
1580421659.81457,78.3398184176394,5.34065766384379,-3.63164721141379
1580421659.81857,87.2510872053103,2.04470893415737,-3.75371938658736
1580421659.82256,92.1950102998399,-1.8616006713969,-4.18097199969475
1580421659.82656,91.889829861906,-6.98863202868688,-4.54718852521546
1580421659.83055,86.3965819790951,-12.7260242618447,-4.91340505073617
1580421659.83454,77.5463492790113,-18.7075608453497,-5.15754940108332
1580421659.83854,68.3299000534066,-25.2994583047225,-5.46272983901736
1580421659.84253,61.1276417181657,-32.2575722896163,-6.31723506523235
1580421659.84652,56.9161516746776,-39.0325780117496,-7.84313725490188
1580421659.85052,55.0850690470738,-45.5634393835355,-9.85732814526591
1580421659.85451,55.1461051346605,-53.0708781567103,-11.7494468604561
1580421659.8585,56.6109712367434,-61.8600747692074,-13.4584573128861
1580421659.8625,59.0524147402148,-71.9920653086137,-14.9843595025559
1580421659.86652,61.1276417181657,-83.2227054245823,-16.632333867399
1580421659.87051,61.7380025940333,-95.5519951171132,-18.4634164950025
1580421659.8745,60.5172808422976,-107.820248722057,-20.4776073853666
1580421659.8785,57.648584725719,-119.172961013199,-22.9800869764247
1580421659.88249,54.1084916456853,-128.755626764324,-26.4591439688716
1580421659.88648,51.1787594415196,-135.28648813611,-31.3420309758146
1580421659.89048,49.8359655146105,-139.192797741665,-37.8728923476006
1580421659.89447,50.6294346532386,-141.634241245136,-45.5634393835355
1580421659.89846,52.0943007553215,-144.258793011368,-53.7422751201648
1580421659.90246,53.0098420691234,-147.615777828641,-62.0431830319676
1580421659.90645,54.9019607843134,-151.522087434195,-70.0999465934233
1580421659.91044,62.2262912947276,-155.42839703975,-77.8515297169452
1580421659.91444,73.8841840238042,-159.822995345998,-84.8096437018387
1580421659.91843,83.6499580376899,-165.621423666743,-90.6080720225832
1580421659.92243,87.1900511177237,-173.373006790265,-94.8805981536584
1580421659.92642,84.9927519645994,-184.298466468299,-96.8337529564355
1580421659.93041,80.476081483177,-196.993972686351,-96.5285725185017
1580421659.9344,76.7528801403832,-206.759746700237,-93.7209124895094
1580421659.9384,76.1425192645152,-212.314030670634,-89.0821698329137
1580421659.94239,79.5605401693751,-216.098268101015,-82.8564888990616
1580421659.94638,84.8706797894256,-220.309758144503,-75.1659418631266
1580421659.95037,90.3028915846494,-224.338139925231,-66.6208896009766
1580421659.95437,94.0871290150303,-225.986114290074,-58.6251621271076
1580421659.95836,95.1857785915922,-223.239490348669,-52.0943007553217
1580421659.96235,93.2936598764022,-216.342412451362,-47.2114137483788
1580421659.96635,89.9366750591289,-208.346684977493,-43.1219958800641
1580421659.97034,86.8848706797894,-201.144426642252,-38.9715419241627
1580421659.97433,85.1148241397727,-194.674601358053,-33.5393301289389
1580421659.97833,84.1992828259708,-187.716487373159,-25.6656748302432
1580421659.98232,82.0630197604337,-179.903868162051,-15.0453955901426
1580421659.98632,75.9594110017551,-171.114671549554,-2.7161058976119
1580421659.99031,63.4470130464638,-163.302052338445,10.5287251087204
1580421659.9943,44.3427176317996,-160.006103608759,23.0411230640116
1580421659.9983,21.0269321736475,-162.569619287404,33.5393301289387
1580421660.00229,-2.16678110933094,-170.321202410925,40.8636606393529
1580421660.00628,-21.9424734874494,-179.110399023423,44.220645456626
1580421660.01028,-35.3093766689556,-185.580224307622,43.3051041428243
1580421660.01427,-42.2064545662624,-188.570992599374,39.2156862745096
1580421660.01826,-43.4882124055848,-188.509956511788,33.0510414282444
1580421660.02226,-42.0843823910889,-185.824368657969,27.1305409323261
1580421660.02624,-39.8260471503777,-181.490806439307,22.7359426260775
1580421660.03024,-36.6521705958648,-176.363775082017,21.0269321736475
1580421660.03423,-32.074464026856,-170.931563286793,21.6372930495154
1580421660.03822,-25.5436026550697,-165.743495841917,23.8345922026397
1580421660.04222,-16.3881895170518,-161.165789272908,26.337071793698
1580421660.04621,-5.21858548867021,-157.686732280461,27.9850461585411
1580421660.05021,6.37827115281902,-154.879072251469,28.3512626840618
1580421660.0542,16.937514305333,-152.803845273518,28.1681544213016
1580421660.05819,25.1773861295489,-151.461051346609,27.4357213702601
1580421660.06219,31.1589227130539,-150.30136568246,25.6656748302432
1580421660.06618,34.7600518806744,-149.019607843137,23.2852674143587
1580421660.07017,36.5911345082779,-148.104066529335,20.2944991226061
1580421660.07417,36.7132066834515,-147.24956130312,17.1206225680933
1580421660.07816,35.4314488441289,-145.906767376211,13.6415655756466
1580421660.08215,32.9289692530708,-143.892576485847,10.4676890211338
1580421660.08615,29.5109483482108,-141.93942168307,7.23277637903402
1580421660.09014,26.0318913557639,-139.742122529946,4.42511635004189
1580421660.09413,22.6749065384909,-137.850003814755,1.80056458381023
1580421660.09813,19.6231021591516,-136.324101625086,-0.091554131380235
1580421660.10212,16.6933699549859,-134.676127260243,-1.31227588311594
1580421660.10614,13.5805294880597,-132.845044632639,-1.80056458381023
1580421660.11013,9.24696726939806,-130.952925917449,-2.22781719691761
1580421660.11413,2.96025024795904,-129.121843289845,-2.53299763485165
1580421660.11812,-5.76791027695117,-127.534905012589,-2.96025024795904
1580421660.12211,-17.0595864805066,-125.947966735332,-3.14335851071951
1580421660.12611,-30.3654535744258,-124.299992370489,-3.50957503624022
1580421660.1301,-44.7699702449074,-122.224765392538,-4.11993591210808
1580421660.13409,-59.5407034409095,-119.478141451133,-4.66926070038903
1580421660.13809,-74.3724727244983,-116.48737315938,-5.09651331349664
1580421660.14208,-88.5328450446325,-113.191424429694,-5.58480201419093
1580421660.14608,-102.26596475166,-109.590295262074,-5.95101853971164
1580421660.15007,-115.571831845579,-105.073624780652,-6.37827115281902
1580421660.15406,-128.389410238804,-99.8855573357748,-6.5003433279926
1580421660.15805,-140.779736018921,-94.2702372777906,-6.56137941557949
1580421660.16205,-152.37659266041,-88.5938811322194,-6.68345159075307
1580421660.16604,-162.935835812925,-82.8564888990616,-6.62241550316617
1580421660.17004,-172.823682001984,-77.0580605783168,-6.56137941557949
1580421660.17403,-182.040131227588,-71.2596322575723,-6.5003433279926
1580421660.17802,-190.951400015259,-65.4612039368276,-6.5003433279926
1580421660.18202,-198.825055313954,-59.8458838788433,-6.37827115281902
1580421660.186,-204.98970016022,-54.7188525215533,-6.56137941557949
1580421660.19,-208.40772106508,-49.1035324635691,-6.56137941557949
1580421660.19399,-208.7739375906,-43.4271763179981,-5.40169375143046
1580421660.19798,-205.111772335393,-37.750820172427,-3.20439459830618
1580421660.20198,-197.909514000153,-32.2575722896163,-0.274662394140478
1580421660.20597,-187.838559548333,-26.2149996185244,3.44853894865332
1580421660.20996,-174.959945067521,-20.4776073853666,7.96520943007545
1580421660.21396,-159.273670557717,-14.8622873273823,12.7260242618447
1580421660.21795,-140.596627756161,-9.30800335698473,17.486839093614
1580421660.22195,-119.417105363546,-3.57061112382689,21.6372930495154
1580421660.22594,-95.002670328832,2.53299763485165,24.9332417792018
1580421660.22993,-68.207827878233,9.30800335698473,27.8019378957808
1580421660.23393,-40.0091554131382,16.3271534294652,29.8771648737315
1580421660.23792,-11.0170138094147,23.5904478522925,31.5861753261615
1580421660.24191,17.9751277943083,31.464103150988,33.0510414282444
1580421660.24591,46.7231250476843,38.1170366979475,34.6990157930875
1580421660.2499,74.6166170748456,43.2440680552374,36.7132066834515
1580421660.25389,101.350423437858,47.5165941863124,39.1546501869229
1580421660.25789,126.436255436026,50.8125429159991,41.5960936903944
1580421660.26188,149.507896543832,53.7422751201648,43.9765011062789
1580421660.26587,170.565346761272,57.1602960250248,45.929655909056
1580421660.26986,189.547570000763,61.8600747692071,48.0048828870067
1580421660.27386,205.539024948501,65.8884565499352,50.3242542153048
1580421660.27785,216.891737239643,66.7429617761504,52.6436255436024
1580421660.28184,219.821469443809,63.8132295719847,55.1461051346605
1580421660.28584,211.459525444419,60.0900282291905,56.9771877622643
1580421660.28983,190.829327840086,58.8693064774548,57.8316929884791
1580421660.29382,158.663309681849,59.7238117036695,56.9771877622643
1580421660.29782,116.670481422141,60.7003891050581,54.4136720836191
1580421660.30181,68.9402609292747,59.0524147402148,50.8125429159991
1580421660.3058,20.4165712977797,54.1084916456853,47.1503776607917
1580421660.3098,-22.919050888838,45.929655909056,44.4037537193865
1580421660.31379,-56.7940794995041,34.7600518806744,42.6947432669565
1580421660.31778,-79.4384679942016,21.8204013122759,41.8402380407415
1580421660.32178,-92.9884794384679,10.4676890211338,41.1688410772867
1580421660.32577,-99.7634851606012,3.32646677347975,39.6429388876172
1580421660.32976,-100.862134737163,-0.152590218966907,36.8963149462118
1580421660.33376,-95.9182116426339,-2.16678110933094,32.8068970778972
1580421660.33775,-85.3589684901197,-4.36408026245522,27.4967574578468
1580421660.34174,-71.9310292210268,-7.41588464179449,21.6372930495154
1580421660.34576,-58.3810177767605,-11.2001220721752,15.4726482032502
1580421660.34976,-45.9296559090562,-17.0595864805066,9.4300755321583
1580421660.35375,-35.4314488441291,-25.2384222171358,4.18097199969475
1580421660.35774,-27.4357213702601,-36.2859540703441,-0.335698481727377
1580421660.36174,-21.759365224689,-49.7138933394369,-4.11993591210808
1580421660.36573,-15.8388647287709,-63.0197604333562,-7.11070420386045
1580421660.36972,-9.61318379491877,-74.4335088120852,-8.69764248111687
1580421660.37372,-5.40169375143046,-78.5839627679866,-10.0404364080262
1580421660.37771,-4.30304417486832,-71.6868848706797,-11.9935912108033
1580421660.38171,-2.59403372243833,-57.0382238498512,-14.6791790646218
1580421660.3857,2.89921416037237,-38.910505836576,-16.3881895170518
1580421660.38969,10.955977721828,-13.3363851377126,-14.8012512397954
1580421660.39369,16.0219729915311,18.1582360570687,-9.06385900663759
1580421660.39768,13.5805294880597,50.2632181277177,1.43434805828952
1580421660.40167,6.80552376592664,76.8139162279699,16.5102616922254
1580421660.40567,2.47196154726475,91.0963607232779,35.3704127565422
1580421660.40966,5.82894636453807,89.7535667963684,55.0850690470738
1580421660.41365,15.6557564660104,76.3256275272756,72.6634622720685
1580421660.41765,23.4073395895323,59.2965590905619,85.969329365988
1580421660.42164,19.501029983978,46.5400167849239,91.4625772487984
1580421660.42563,0.51880674448762,40.3143358510717,86.152437628748
1580421660.42962,-27.4357213702601,37.9949645227739,71.1985961699856
1580421660.43361,-55.8785381857024,38.8494697489889,54.1695277332719
1580421660.43761,-75.9594110017547,43.7933928435186,43.1219958800639
1580421660.4416,-81.0864423590447,50.8125429159991,39.5208667124436
1580421660.4456,-70.771343556878,53.9864194705119,40.7415884641794
1580421660.44959,-54.9019607843138,51.2397955291062,44.8310063324939
1580421660.45358,-47.3334859235524,45.3803311207751,48.3100633249405
1580421660.45758,-54.8409246967269,37.8728923476003,48.9814602883953
1580421660.46157,-73.0907148851759,30.4875257495994,44.4037537193865
1580421660.46556,-91.0353246356908,26.8253604943923,34.1496910048065
1580421660.46956,-98.0544747081713,29.2057679102768,19.9893186846723
1580421660.47355,-89.0821698329137,37.0183871213853,5.09651331349664
1580421660.47754,-65.2780956740673,46.8451972228579,-8.08728160524902
1580421660.48154,-31.6472114137484,55.3902494850076,-19.0127412832837
1580421660.48553,5.34065766384379,60.5783169298847,-28.4122987716487
1580421660.48952,40.6195162890058,63.2639047837038,-36.4690623331046
1580421660.49352,70.2830548561838,65.6443121995881,-43.3051041428246
1580421660.49751,91.7677576867322,69.7947661554895,-48.7983520256353
1580421660.5015,104.829480430305,75.715266651408,-52.8267338063631
1580421660.50552,110.99412527657,82.4902723735408,-54.9019607843138
1580421660.50952,112.092774853132,89.8756389715422,-54.5967803463798
1580421660.51351,109.590295262074,97.6882581826508,-50.9956511787595
1580421660.5175,105.195696955825,105.989166094454,-42.6337071793698
1580421660.5215,99.4583047226674,113.740749217975,-29.1447318226901
1580421660.52549,91.0353246356908,119.111924925612,-11.5663385976959
1580421660.52948,78.2177462424661,121.370260166324,8.51453421835663
1580421660.53348,61.6769665064467,120.943007553216,28.6564431219958
1580421660.53747,44.3427176317996,118.806744487678,46.2958724345767
1580421660.54147,27.8019378957808,116.182192721446,59.5407034409091
1580421660.54546,11.9325551232166,114.473182269016,67.8416113527123
1580421660.54945,-3.02128633554594,114.045929655909,72.3582818341347
1580421660.55344,-15.8388647287709,113.923857480735,74.2504005493251
1580421660.55744,-25.0553139543754,113.130388342107,74.555580987259
1580421660.56143,-30.8537422751201,111.604486152438,73.3348592355233
1580421660.56543,-35.3093766689556,110.261692225528,71.137560082399
1580421660.56942,-40.5584802014191,109.895475700008,68.3299000534066
1580421660.57341,-46.2348363469903,110.383764400702,65.5832761120014
1580421660.57741,-50.5683985656519,112.092774853132,62.9587243457695
1580421660.5814,-51.9111924925612,115.510795757992,59.7238117036695
1580421660.58539,-49.164568551156,120.332646677348,55.5123216601814
1580421660.58938,-42.7557793545434,125.703822384985,50.5683985656519
1580421660.59337,-33.6614023041125,130.464637216754,44.8310063324939
1580421660.59737,-23.4073395895323,134.309910734722,38.9105058365758
1580421660.60136,-12.8480964370183,136.751354238193,32.8679331654839
1580421660.60536,-3.20439459830618,138.033112077516,27.1305409323261
1580421660.60935,4.91340505073617,138.582436865797,21.8814373998625
1580421660.61334,11.6273746852826,138.582436865797,16.9985503929197
1580421660.61734,17.3037308308537,139.253833829252,12.4818799114976
1580421660.62133,22.613870450904,139.742122529946,8.51453421835663
1580421660.62532,28.1071183337147,140.108339055466,5.40169375143046
1580421660.62932,34.1496910048065,140.840772106508,3.02128633554594
1580421660.63331,40.7415884641794,141.451132982376,1.31227588311594
1580421660.6373,47.4555580987258,142.488746471351,0.457770656900948
1580421660.6413,54.3526359960324,143.6484321355,-1.12916762035547
1580421660.64529,61.0055695429919,144.808117799649,-3.38750286106665
1580421660.64928,67.0481422140842,146.639200427252,-6.25619897764545
1580421660.65328,75.2880140383004,148.77546349279,-30.609597924773
1580421660.65727,82.551308461128,143.404287785153,-40.0701915007248
1580421660.66126,78.3398184176394,153.414206149386,-7.41588464179449
1580421660.66525,71.9310292210271,159.395742732891,3.75371938658736
1580421660.66925,64.7287708857866,147.920958266575,11.810482948043
1580421660.67324,56.6720073243305,144.258793011368,17.4258030060273
1580421660.67723,48.7983520256348,143.221179522393,21.0879682612344
1580421660.68123,40.4974441138322,142.244602121004,23.1631952391851
1580421660.68522,31.5251392385746,141.634241245136,24.5059891660944
1580421660.68921,22.3086900129701,140.901808194095,25.2994583047225
1580421660.69321,13.4584573128861,139.131761654078,25.4215304798961
1580421660.6972,6.25619897764545,136.507209887846,24.8111696040282
1580421660.70119,1.31227588311594,133.272297245746,23.773556115053
1580421660.70519,-1.61745632104976,130.281528953994,22.4307621881437
1580421660.70918,-2.59403372243833,127.656977187762,20.8438239108873
1580421660.71317,-2.34988937209118,125.459678034638,19.3789578088044
1580421660.71717,-1.98367284657047,123.445487144274,18.0971999694818
1580421660.72116,-1.61745632104976,121.736476691844,16.7544060425726
1580421660.72515,-1.67849240863666,120.271610589761,15.4116121156633
1580421660.72915,-2.28885328450451,119.172961013199,13.9467460135804
1580421660.73314,-2.83817807278547,118.867780575265,12.4208438239109
1580421660.73714,-3.57061112382689,118.745708400092,10.955977721828
1580421660.74113,-4.91340505073617,118.501564049745,10.1014724956131
1580421660.74515,-7.04966811627378,117.524986648356,9.55214770733187
1580421660.74914,-9.61318379491877,116.670481422141,9.61318379491877
1580421660.75313,-12.359807736324,115.877012283513,10.2235446707866
1580421660.75713,-14.7402151522087,115.083543144885,11.2611581597619
1580421660.76112,-16.2661173418783,114.045929655909,12.8480964370183
1580421660.76512,-16.937514305333,112.642099641413,14.7402151522087
1580421660.76911,-16.9985503929197,110.200656137942,17.1206225680933
1580421660.7731,-17.1206225680933,107.392996108949,19.7451743343252
1580421660.77709,-16.937514305333,104.34119172961,22.2476539253832
1580421660.78109,-16.3881895170518,101.716639963378,24.8111696040282
1580421660.78508,-14.6181429770352,99.9465934233617,26.9474326695658
1580421660.78908,-11.2611581597619,98.9089799343865,28.6564431219958
1580421660.79307,-6.43930724040592,98.4206912336922,30.3654535744258
1580421660.79706,-0.335698481727377,97.5051499198903,31.5251392385746
1580421660.80106,6.5003433279926,96.1623559929808,32.0744640268558
1580421660.80505,13.1532768749523,94.0871290150303,31.464103150988
1580421660.80904,19.0737773708704,91.7677576867322,29.8771648737315
1580421660.81304,24.5670252536811,89.2042420080875,27.4357213702601
1580421660.81703,29.2668039978637,86.3355458915084,24.2008087281604
1580421660.82102,33.4172579537651,83.0395971618223,20.2334630350194
1580421660.82501,37.0794232089722,79.4995040817885,16.083009079118
1580421660.82901,40.0701915007246,75.2269779507137,11.7494468604561
1580421660.833,41.2298771648736,70.771343556878,7.66002899214163
1580421660.83699,39.948119325551,65.7663843747619,4.48615243762879
1580421660.84099,37.2625314717325,60.5783169298847,1.98367284657047
1580421660.84498,34.3327992675668,55.6343938353548,0.51880674448762
1580421660.84897,32.7458609903103,51.4839398794534,-0.51880674448762
1580421660.85297,32.5017166399632,48.3710994125277,-1.19020370794237
1580421660.85696,33.4172579537651,45.8075837338824,-1.80056458381023
1580421660.86095,34.5159075303272,42.9388876173036,-1.9226367589838
1580421660.86495,35.5535210193025,39.948119325551,-1.73952849622333
1580421660.86894,36.1028458075837,36.530098420691,-1.43434805828952
1580421660.87293,36.2859540703439,32.6848249027237,-0.51880674448762
1580421660.87693,35.9197375448232,27.8019378957808,0.152590218966907
1580421660.88092,34.9431601434346,22.3086900129701,0.579842832074519
1580421660.88491,33.7834744792858,17.1206225680933,0.51880674448762
1580421660.88891,33.1120775158311,12.0546272983902,-0.152590218966907
1580421660.8929,32.5017166399632,7.23277637903402,-1.0681315327688
1580421660.89689,32.0134279392689,1.80056458381023,-2.04470893415737
1580421660.90089,32.0134279392689,-4.18097199969475,-2.89921416037237
1580421660.90488,32.8679331654839,-10.1625085831997,-3.63164721141379
1580421660.90887,34.3327992675668,-15.7167925535973,-4.24200808728165
1580421660.91286,36.1028458075837,-21.3321126115816,-5.03547722590974
1580421660.91686,37.6287479972532,-27.1305409323261,-6.25619897764545
1580421660.92085,39.093614099336,-34.0886549172199,-8.02624551766235
1580421660.92484,41.2298771648736,-42.3895628290227,-10.4066529335469
1580421660.92884,45.5024032959486,-51.4229037918669,-13.1532768749523
1580421660.93283,52.2163729304948,-61.4328221560997,-16.0219729915311
1580421660.93682,60.5783169298847,-72.7244983596552,-19.1348134584573
1580421660.94082,67.170214389258,-84.6875715266651,-22.4917982757304
1580421660.94481,69.7947661554895,-96.4065003433282,-25.9708552681773
1580421660.9488,69.062333104448,-106.782635233082,-29.2057679102768
1580421660.9528,65.0339513237204,-115.449759670405,-32.1965362020296
1580421660.95679,58.8693064774548,-124.055848020142,-35.1262684061953
1580421660.96078,53.0098420691234,-134.859235523003,-38.6663614862289
1580421660.96478,46.9062333104446,-148.226138704509,-43.1219958800641
1580421660.96877,37.384603646906,-160.982681010147,-49.3476768139162
1580421660.97277,22.7969787136644,-167.75768673228,-57.0382238498512
1580421660.97676,5.15754940108332,-168.91737239643,-65.2780956740673
1580421660.98075,-10.4066529335469,-169.039444571603,-73.2738231479361
1580421660.98477,-19.9893186846723,-171.602960250248,-80.8422980086975
1580421660.98877,-21.0879682612344,-175.020981155108,-88.2887006942854
1580421660.99276,-13.8857099259938,-175.509269855802,-95.0637064164189
1580421660.99675,0.51880674448762,-172.33539330129,-100.679026474403
1580421661.00074,22.8580148012511,-168.001831082628,-104.585336079957
1580421661.00474,51.911192492561,-165.987640192264,-106.294346532387
1580421661.00873,86.3965819790951,-164.461738002594,-105.500877393759
1580421661.01273,123.811703669795,-163.241016250858,-102.388036926833
1580421661.01672,159.761959258411,-163.179980163272,-96.0402838178074
1580421661.02071,187.960631723507,-163.241016250858,-85.9693293659875
1580421661.02471,203.158617532617,-163.607232776379,-72.2972457465476
1580421661.0287,200.350957503624,-164.217593652247,-56.3668268863967
1580421661.03269,177.584496833753,-166.598001068132,-40.1312275883117
1580421661.03669,137.850003814755,-172.579537651637,-24.9332417792018
1580421661.04068,87.312123292897,-181.368734264134,-11.6273746852826
1580421661.04467,35.0041962310215,-191.31761654078,-0.70191500724809
1580421661.04867,-10.2845807583733,-200.473029678798,7.72106507972831
1580421661.05266,-43.5492484931717,-206.210421911955,13.2753490501259
1580421661.05665,-64.0573739223316,-207.370107576104,16.5712977798123
1580421661.06065,-73.2127870603495,-205.661097123674,18.2803082322423
1580421661.06464,-73.7010757610437,-203.28068970779,18.9517051956968
1580421661.06863,-68.5130083161669,-201.205462729839,18.646524757763
1580421661.07262,-59.9679560540169,-199.435416189822,16.5712977798123
1580421661.07662,-50.4463263904784,-196.871900511177,12.8480964370183
1580421661.08061,-40.7415884641796,-192.904554818036,8.14831769283592
1580421661.0846,-30.8537422751201,-188.204776073854,3.20439459830618
1580421661.0886,-21.210040436408,-184.420538643473,-1.25123979552905
1580421661.09259,-12.5429159990845,-181.795986877241,-4.60822461280236
1580421661.09658,-5.40169375143046,-179.781795986877,-6.98863202868688
1580421661.10058,0.213626306553806,-177.8286411841,-8.27038986800949
1580421661.10457,5.15754940108332,-175.020981155108,-8.39246204318306
1580421661.10856,9.85732814526591,-171.847104600595,-7.72106507972831
1580421661.11256,14.4350347142747,-168.612191958495,-6.5003433279926
1580421661.11655,18.341344319829,-165.133134966049,-5.03547722590974
1580421661.12054,21.5762569619287,-162.630655374991,-3.81475547417404
1580421661.12454,24.0787365529868,-160.677500572213,-3.38750286106665
1580421661.12853,26.1539635309375,-159.02952620737,-3.50957503624022
1580421661.13253,28.3512626840618,-157.13740749218,-4.18097199969475
1580421661.13652,31.464103150988,-155.001144426642,-5.46272983901736
1580421661.14051,35.1873044937818,-152.803845273518,-6.98863202868688
1580421661.14453,39.1546501869229,-150.850690470741,-8.51453421835663
1580421661.14852,42.9999237048903,-149.385824368658,-10.2845807583733
1580421661.15252,46.2958724345767,-148.531319142443,-11.9935912108033
1580421661.15651,48.493171587701,-148.043030441749,-13.7636377508202
1580421661.1605,49.8359655146105,-147.920958266575,-15.228503852903
1580421661.1645,49.5307850766762,-147.432669565881,-16.6933699549859
1580421661.16849,47.94384679942,-146.8833447776,-17.6699473563745
1580421661.17248,44.4037537193865,-146.150911726558,-18.2192721446554
1580421661.17648,39.5819028000303,-145.235370412757,-18.0971999694818
1580421661.18047,33.6003662165253,-144.258793011368,-17.8530556191347
1580421661.18447,26.8253604943923,-142.977035172045,-17.3647669184404
1580421661.18846,19.3789578088044,-141.451132982376,-16.5102616922254
1580421661.19245,11.5663385976959,-139.559014267185,-15.9609369039445
1580421661.19645,3.02128633554594,-137.117570763714,-15.228503852903
1580421661.20044,-5.82894636453807,-133.638513771267,-14.7402151522087
1580421661.20443,-14.9843595025559,-129.549095902953,-14.5571068894483
1580421661.20843,-24.4449530785075,-124.84931715877,-14.2519264515145
1580421661.21242,-33.783474479286,-119.72228580148,-13.8857099259938
1580421661.21641,-43.183031967651,-114.168001831083,-13.7026016632333
1580421661.22041,-52.6436255436026,-108.491645685512,-13.6415655756466
1580421661.2244,-62.1652552071412,-102.754253452354,-13.5805294880597
1580421661.22839,-72.175173571374,-96.8947890440224,-13.519493400473
1580421661.23238,-82.6123445487144,-91.3405050736246,-13.5805294880597
1580421661.23638,-93.8429846646832,-86.152437628748,-13.8246738384069
1580421661.24037,-105.806057831693,-81.3305867093918,-14.4350347142747
1580421661.24436,-118.135347524224,-76.9359884031433,-14.9843595025559
1580421661.24836,-130.586709391928,-72.6634622720683,-15.8388647287709
1580421661.25235,-142.854962996872,-68.9402609292745,-16.8154421301595
1580421661.25634,-154.268711375601,-65.4001678492409,-17.8530556191347
1580421661.26034,-164.15655756466,-62.0431830319676,-18.5854886701761
1580421661.26433,-172.091248950942,-58.8082703898681,-19.4399938963911
1580421661.26832,-177.401388570993,-55.5123216601817,-19.9893186846723
1580421661.27232,-178.988326848249,-52.0332646677348,-20.1113908598459
1580421661.27631,-177.096208133059,-48.1879911497674,-19.4399938963911
1580421661.2803,-171.17570763714,-43.732356755932,-17.9140917067216
1580421661.2843,-161.532005798428,-38.4832532234684,-15.3505760280766
1580421661.28829,-148.714427405203,-32.4406805523768,-11.3832303349354
1580421661.29228,-133.21126115816,-26.337071793698,-5.95101853971164
1580421661.29628,-115.449759670405,-20.5386434729533,1.0681315327688
1580421661.30027,-95.9182116426339,-14.923323414969,9.4911116197452
1580421661.30426,-75.898374914168,-9.06385900663759,18.4634164950025
1580421661.30825,-56.7940794995041,-2.7771419851988,27.3746852826732
1580421661.31225,-39.1546501869232,4.42511635004189,35.6755931944761
1580421661.31624,-23.8345922026397,11.8715190356297,42.6337071793696
1580421661.32023,-9.67421988250544,20.5386434729533,48.0048828870067
1580421661.32423,4.7913328755626,30.9758144502937,52.1553368429081
1580421661.32822,21.210040436408,42.3895628290225,54.9629968719005
1580421661.33221,41.1688410772867,54.1084916456853,57.4654764629586
1580421661.33621,66.1326009002823,65.6443121995881,60.7003891050581
1580421661.3402,96.2233920805679,76.0814831769285,65.0949874113071
1580421661.34419,130.342565041581,83.3447775997561,70.8934157320518
1580421661.34819,165.072098878462,86.8238345922027,77.8515297169452
1580421661.35218,196.261539635309,87.678339818418,85.2979324025332
1580421661.35618,222.323949034867,87.9224841687651,92.9884794384679
1580421661.36017,243.747615777829,88.4107728694594,100.434882124056
1580421661.36416,260.959792477302,89.1432059205008,106.843671320668
1580421661.36816,269.443808651865,89.6925307087818,111.17723353933
1580421661.37215,259.189745937285,86.6407263294423,112.88624399176
1580421661.37614,219.577325093462,77.9125658045323,110.139620050355
1580421661.38014,148.470283054856,66.7429617761504,102.754253452354
1580421661.38416,59.357595178149,56.5499351491567,91.7677576867322
1580421661.38815,-27.6798657206073,48.1879911497672,80.5981536583508
1580421661.39214,-101.411459525445,39.8870832379644,69.9168383306633
1580421661.39613,-158.358129243916,27.9240100709544,59.6017395284962
1580421661.40013,-197.421225299458,12.4208438239109,49.9580376897839
1580421661.40412,-219.028000305181,-4.05889982452118,41.1688410772867
1580421661.40812,-224.887464713512,-17.5478751812009,32.4406805523765
1580421661.41211,-217.929350728618,-25.2384222171358,22.613870450904
1580421661.4161,-201.93789578088,-26.9474326695658,11.2611581597619
1580421661.4201,-180.148012512398,-24.9332417792018,-0.823987182421661
1580421661.42409,-156.160830090791,-22.3086900129701,-12.4818799114976
1580421661.42808,-132.417792019532,-21.3321126115816,-22.2476539253832
1580421661.43208,-109.590295262074,-25.4215304798961,-29.6330205233844
1580421661.43607,-88.9600976577401,-35.187304493782,-34.2717631799803
1580421661.44006,-71.1375600823987,-46.9672693980317,-36.346990157931
1580421661.44406,-55.3902494850081,-56.6720073243305,-36.4080262455177
1580421661.44805,-40.619516289006,-64.1794460975052,-35.0652323186084
1580421661.45204,-25.482566567483,-72.6634622720683,-31.9523918516825
1580421661.45604,-6.25619897764545,-80.9643701838711,-26.4591439688716
1580421661.46003,16.6933699549859,-82.6733806363011,-18.4023804074159
1580421661.46402,41.2298771648736,-72.9076066224154,-9.73525597009234
1580421661.46801,63.5080491340509,-47.6386663614862,-1.55642023346309
1580421661.47201,80.3540093080037,-14.7402151522087,5.7068741893645
1580421661.476,87.861448081178,19.1348134584573,14.4350347142747
1580421661.47999,80.5371175707637,52.5215533684291,26.5201800564582
1580421661.48399,60.2121004043638,83.1006332494089,42.3285267414358
1580421661.48798,39.5208667124436,106.599526970321,59.90691996643
1580421661.49197,29.6940566109711,113.801785305562,78.1567101548794
1580421661.49597,32.8068970778972,100.434882124056,96.3454642557413
1580421661.49996,41.9623102159151,72.2362096589609,112.581063553826
1580421661.50395,41.7181658655679,43.0609597924772,123.750667582208
1580421661.50795,19.9893186846723,25.3604943923094,124.605172808423
1580421661.51194,-23.4073395895323,21.4541847867551,110.627908751049
1580421661.51593,-73.7010757610437,25.1773861295489,87.0069428549632
1580421661.51993,-113.313496604868,31.9523918516823,66.1936369878695
1580421661.52392,-131.563286793317,38.3001449607079,52.5215533684291
1580421661.52792,-125.703822384985,38.1170366979475,44.7089341573203
1580421661.53191,-106.599526970321,32.9900053406575,39.093614099336
1580421661.5359,-91.7067215991453,29.4499122606239,32.8068970778972
1580421661.5399,-91.0963607232775,24.5670252536811,24.8111696040282
1580421661.54388,-104.34119172961,14.1298542763409,15.228503852903
1580421661.54788,-125.215533684291,2.83817807278547,1.8616006713969
1580421661.55187,-146.700236514839,-2.47196154726475,-14.6791790646218
1580421661.55586,-161.104753185321,0.274662394140478,-32.0134279392691
1580421661.55986,-162.203402761883,8.14831769283592,-46.9672693980317
1580421661.56385,-146.8833447776,16.083009079118,-57.0992599374381
1580421661.56784,-117.586022735943,21.0269321736475,-62.8366521705959
1580421661.57184,-79.7436484321354,23.3463035019454,-64.3625543602654
1580421661.57583,-39.3377584496834,24.7501335164416,-62.4093995574883
1580421661.57983,-3.63164721141379,28.4122987716487,-57.0992599374381
1580421661.58382,21.6372930495154,36.4080262455175,-49.1035324635691
1580421661.58781,35.9807736324101,49.042496375982,-39.8260471503777
1580421661.59181,43.4882124055846,64.9729152361338,-30.9758144502937
1580421661.5958,51.6670481422138,82.8564888990618,-22.613870450904
1580421661.59979,66.010528725109,101.472495613031,-14.2519264515145
1580421661.60379,87.2510872053103,119.172961013199,-4.48615243762879
1580421661.60778,109.346150911726,132.173647669184,6.80552376592664
1580421661.61177,119.417105363546,136.202029449912,20.7217517357137
1580421661.61577,108.430609597925,131.563286793316,37.4456397344929
1580421661.61976,80.6591897459375,122.346837567712,54.7188525215533
1580421661.62378,47.0283054856181,113.313496604868,68.1467917906466
1580421661.62777,17.7309834439611,108.186465247578,75.0438696879532
1580421661.63177,-2.83817807278547,106.965743495842,75.9594110017551
1580421661.63576,-15.0453955901426,107.331960021363,73.2127870603495
1580421661.63975,-21.3931486991683,106.660563057908,68.6350804913409
1580421661.64375,-24.2008087281604,104.768444342718,62.8366521705962
1580421661.64774,-27.0084687571525,102.265964751659,56.8551155870905
1580421661.65173,-30.9758144502937,100.312809948882,51.4839398794534
1580421661.65573,-34.4548714427406,99.885557335775,47.8217746242465
1580421661.65972,-35.492484931716,102.021820401312,45.5634393835353
1580421661.66371,-33.0510414282446,106.233310444801,44.0375371938658
1580421661.66771,-27.1305409323261,111.787594415198,42.8168154421301
1580421661.6717,-17.9140917067216,118.196383611811,41.2298771648736
1580421661.67569,-6.62241550316617,124.361028458076,39.4598306248567
1580421661.67969,5.09651331349664,129.610131990539,37.1404592965589
1580421661.68368,15.4726482032502,133.39436942092,34.4548714427403
1580421661.68767,23.5904478522925,135.469596398871,31.4030670634011
1580421661.69167,29.4499122606239,136.62928206302,28.1681544213016
1580421661.69566,33.9665827420461,137.117570763714,24.9332417792018
1580421661.69966,38.7273975738153,137.117570763714,22.0035095750361
1580421661.70367,44.220645456626,137.056534676127,19.8062104219118
1580421661.70767,50.6904707408253,137.239642938888,18.646524757763
1580421661.71166,57.5875486381319,137.117570763714,18.4634164950025
1580421661.71565,63.5690852216376,136.690318150606,19.501029983978
1580421661.71965,68.2688639658199,136.568245975433,21.3931486991683
1580421661.72364,71.4427405203328,136.934462500953,23.4073395895323
1580421661.72763,72.7855344472423,137.361715114061,25.6656748302432
1580421661.73163,72.3582818341347,137.850003814755,25.7267109178301
1580421661.73562,71.1985961699856,137.178606851301,22.064545662623
1580421661.73962,68.6350804913409,137.300679026474,16.9985503929197
1580421661.74361,68.4519722285804,136.690318150606,-7.41588464179449
1580421661.7476,65.7053482871752,132.722972457465,-6.62241550316617
1580421661.7516,56.0006103608757,142.305638208591,15.777828641184
1580421661.75559,48.8593881132219,143.6484321355,25.0553139543754
1580421661.75958,44.220645456626,138.033112077516,26.9474326695658
1580421661.76358,42.8168154421301,137.300679026474,25.6656748302432
1580421661.76757,43.3051041428243,140.169375143053,25.1163500419623
1580421661.77156,45.1361867704279,144.136720836194,22.4307621881437
1580421661.77556,46.784161135271,146.089875638972,22.2476539253832
1580421661.77955,46.7231250476843,148.531319142443,21.6372930495154
1580421661.78357,45.075150682841,148.104066529335,20.8438239108873
1580421661.78756,41.657129777981,147.06645304036,20.1724269474325
1580421661.79156,36.8352788586251,146.334019989319,19.8062104219118
1580421661.79555,32.0744640268558,145.052262149996,19.6841382467383
1580421661.79954,27.8629739833675,143.221179522393,19.501029983978
1580421661.80354,24.628061341268,140.779736018921,19.4399938963911
1580421661.80753,21.5152208743418,138.216220340276,19.4399938963911
1580421661.81152,18.2192721446554,136.140993362325,19.5620660715647
1580421661.81552,14.923323414969,134.92027161059,19.8672465094987
1580421661.81951,12.1156633859769,133.760585946441,20.2334630350194
1580421661.8235,9.55214770733187,133.028152895399,20.7217517357137
1580421661.8275,7.04966811627378,132.906080720226,21.0879682612344
1580421661.83149,5.09651331349664,132.722972457465,21.5152208743418
1580421661.83548,4.42511635004189,132.722972457465,22.1255817502097
1580421661.83948,5.7068741893645,132.661936369879,22.919050888838
1580421661.84347,8.6366063935302,132.600900282292,23.7125200274661
1580421661.84747,12.2377355611504,132.356755931945,24.8111696040282
1580421661.85146,15.4116121156633,131.990539406424,25.5436026550697
1580421661.85545,17.6089112687876,131.074998092622,26.1539635309375
1580421661.85945,18.7075608453497,129.671168078126,26.337071793698
1580421661.86343,18.9517051956968,127.656977187762,26.337071793698
1580421661.86743,18.4634164950025,124.727244983596,26.4591439688716
1580421661.87142,16.8764782177461,121.370260166324,26.5201800564582
1580421661.87541,15.0453955901426,117.219806210422,26.5201800564582
1580421661.87941,13.8246738384069,112.642099641413,26.5812161440451
1580421661.8834,13.8857099259938,108.918898298619,26.2149996185244
1580421661.88739,15.6557564660104,106.965743495842,25.4215304798961
1580421661.89139,19.3789578088044,106.05020218204,24.322880903334
1580421661.89538,25.1163500419623,105.378805218586,22.613870450904
1580421661.89937,32.1355001144425,104.707408255131,20.2334630350194
1580421661.90337,39.6429388876172,102.815289539941,17.3647669184404
1580421661.90736,46.1127641718165,99.3362325474936,14.4960708018616
1580421661.91136,50.3852903028915,93.7209124895094,11.9325551232166
1580421661.91535,51.4229037918667,86.0914015411613,9.61318379491877
1580421661.91934,49.4697489890896,77.424277103838,7.96520943007545
1580421661.92334,44.8920424200808,68.6350804913409,6.80552376592664
1580421661.92733,39.093614099336,60.7003891050581,5.88998245212474
1580421661.93132,33.0510414282444,53.4981307698176,5.58480201419093
1580421661.93532,28.1681544213016,48.0659189745934,5.40169375143046
1580421661.93931,25.2384222171358,43.9765011062789,5.46272983901736
1580421661.9433,25.482566567483,41.2298771648736,5.46272983901736
1580421661.94729,28.5343709468223,39.0325780117494,5.6458381017776
1580421661.95128,33.2341496910046,37.2625314717325,5.95101853971164
1580421661.95528,38.6663614862287,35.4924849317158,6.19516289005878
1580421661.95927,43.5492484931715,33.0510414282444,6.62241550316617
1580421661.96327,46.784161135271,29.5719844357975,6.98863202868688
1580421661.96726,47.5165941863124,24.5059891660944,6.86655985351331
1580421661.97125,46.6010528725108,17.9751277943083,6.56137941557949
1580421661.97525,44.5258258945601,10.7118333714809,5.88998245212474
1580421661.97924,41.5960936903944,2.7161058976119,4.91340505073617
1580421661.98323,38.6053253986418,-4.91340505073617,3.32646677347975
1580421661.98723,36.530098420691,-11.505302510109,1.25123979552905
1580421661.99122,36.1028458075837,-17.1206225680933,-1.43434805828952
1580421661.99521,37.8728923476003,-21.759365224689,-4.73029678797593
1580421661.99921,41.4740215152208,-25.6046387426566,-8.20935378042259
1580421662.0032,46.4179446097503,-29.0226596475165,-11.5663385976959
1580421662.00719,51.6670481422138,-33.3562218661784,-14.3129625391011
1580421662.01119,56.6720073243305,-40.314335851072,-16.2050812542916
1580421662.01518,61.6769665064467,-50.2632181277181,-17.1206225680933
1580421662.01917,66.6819256885638,-62.5925078202488,-17.5478751812009
1580421662.02319,69.3675135423823,-76.6308079652094,-18.4634164950025
1580421662.02719,68.0247196154728,-90.6080720225832,-19.9893186846723
1580421662.03118,62.4093995574881,-103.242542153048,-22.064545662623
1580421662.03517,54.8409246967267,-113.618677042802,-24.6890974288547
1580421662.03917,46.8451972228579,-122.041657129778,-28.1681544213016
1580421662.04316,39.6429388876172,-127.656977187762,-32.7458609903106
1580421662.04715,34.8210879682611,-132.173647669184,-37.6287479972534
1580421662.05115,32.0134279392689,-138.765545128557,-42.4505989166096
1580421662.05514,30.1823453116654,-147.920958266575,-46.8451972228581
1580421662.05913,28.5343709468223,-159.822995345998,-50.3242542153048
1580421662.06313,26.2149996185244,-171.908140688182,-53.9864194705119
1580421662.06712,23.5294117647059,-180.575265125505,-57.8927290760662
1580421662.07112,20.7827878233004,-187.716487373159,-62.5314717326619
1580421662.07511,19.3179217212175,-195.407034409094,-67.9636835278859
1580421662.0791,20.050354772259,-204.501411459525,-73.9452201113909
1580421662.0831,23.7125200274661,-213.290608072022,-80.2319371328297
1580421662.08709,31.6472114137482,-218.173495078965,-86.152437628748
1580421662.09108,44.7699702449072,-219.760433356222,-90.1197833218889
1580421662.09508,62.6535439078357,-220.55390249485,-91.1573968108644
1580421662.09907,83.8330663004504,-220.737010757611,-89.3873502708475
1580421662.10306,106.233310444801,-218.600747692073,-85.1758602273594
1580421662.10705,127.718013275349,-212.19195849546,-78.4008545052261
1580421662.11104,146.272983901732,-201.327534905012,-69.0012970168611
1580421662.11504,160.311284046692,-187.228198672465,-56.2447547112231
1580421662.11903,168.368047608148,-172.457465476463,-40.6805523765927
1580421662.12302,169.64980544747,-161.287861448081,-23.8345922026397
1580421662.12702,164.400701915007,-155.550469214923,-7.35484855420759
1580421662.13101,151.338979171435,-154.757000076295,7.11070420386045
1580421662.13501,128.938735027085,-156.710154879072,18.8906691081102
1580421662.139,97.6882581826508,-160.189211871519,27.3136491950866
1580421662.14299,61.4938582436862,-164.827954528115,32.7458609903103
1580421662.14699,26.7032883192187,-171.17570763714,35.1873044937818
1580421662.15098,-0.457770656900948,-178.500038147555,34.1496910048065
1580421662.15497,-17.2426947432668,-186.129549095903,29.755092698558
1580421662.15897,-25.2994583047225,-193.270771343557,22.613870450904
1580421662.16296,-29.6940566109711,-198.947127489128,14.4960708018616
1580421662.16695,-34.8210879682613,-202.914473182269,6.68345159075307
1580421662.17095,-42.8168154421303,-204.745555809872,0.51880674448762
1580421662.17494,-52.1553368429084,-204.013122758831,-3.99786373693451
1580421662.17893,-60.7614251926452,-200.900282291905,-6.86655985351331
1580421662.18292,-66.4377813382162,-196.139467460136,-8.02624551766235
1580421662.18691,-68.757152666514,-190.463111314565,-8.02624551766235
1580421662.19091,-68.0857557030595,-184.48157473106,-6.98863202868688
1580421662.1949,-65.7663843747616,-179.35454337377,-5.21858548867021
1580421662.1989,-63.630121309224,-175.448233768215,-3.81475547417404
1580421662.20289,-62.9587243457695,-172.579537651637,-2.96025024795904
1580421662.20688,-64.1794460975052,-170.62638284886,-2.7771419851988
1580421662.21088,-66.4377813382162,-169.222552834363,-3.57061112382689
1580421662.21487,-68.2688639658197,-167.513542381933,-4.73029678797593
1580421662.21886,-68.6350804913404,-165.560387579156,-6.07309071488521
1580421662.22286,-66.9871061264973,-162.874799725338,-7.29381246662092
1580421662.22685,-63.2028686961166,-159.884031433585,-8.75867856870377
1580421662.23084,-57.4654764629588,-156.343938353552,-10.5287251087204
1580421662.23484,-50.4463263904784,-152.254520485237,-12.2377355611504
1580421662.23883,-42.2674906538491,-148.043030441749,-13.8857099259938
1580421662.24283,-33.0510414282446,-144.075684748608,-15.5947203784237
1580421662.24682,-22.9800869764247,-140.718699931334,-16.9985503929197
1580421662.25081,-12.5429159990845,-137.911039902342,-18.2803082322423
1580421662.2548,-2.16678110933094,-135.530632486458,-19.1348134584573
1580421662.2588,7.72106507972831,-132.845044632639,-19.1348134584573
1580421662.26282,16.8154421301595,-129.915312428473,-19.0737773708704
1580421662.26681,24.4449530785075,-126.802471961547,-18.4634164950025
1580421662.2708,30.3654535744258,-123.3234149691,-17.5478751812009
1580421662.2748,33.9665827420461,-119.661249713893,-16.3271534294652
1580421662.27879,35.1262684061951,-115.9380483711,-14.8012512397954
1580421662.28278,33.7224383916989,-112.397955291066,-12.9701686121919
1580421662.28678,29.755092698558,-108.979934386206,-11.0780498970016
1580421662.29077,23.5294117647059,-105.134660868238,-8.88075074387734
1580421662.29476,15.1674677653161,-100.92317082475,-6.86655985351331
1580421662.29876,5.34065766384379,-96.8947890440224,-5.09651331349664
1580421662.30275,-5.6458381017776,-93.0495155260546,-3.44853894865332
1580421662.30675,-17.3647669184404,-89.5094224460211,-2.04470893415737
1580421662.31074,-29.5719844357975,-85.5420767528801,-0.946059357595232
1580421662.31473,-41.6571297779813,-81.3305867093918,-0.0305180437933359
1580421662.31873,-53.8643472953383,-76.752880140383,0.579842832074519
1580421662.32272,-65.8884565499352,-71.5648126955061,0.885023270008332
1580421662.32671,-78.2177462424659,-66.3157091630426,1.31227588311594
1580421662.33071,-90.9742885481039,-60.8834973678188,1.8616006713969
1580421662.3347,-103.852903028916,-55.2681773098345,2.41092545967808
1580421662.33869,-116.914625772488,-49.8359655146105,3.08232242313261
1580421662.34268,-129.488059815366,-44.1596093690396,3.32646677347975
1580421662.34667,-141.145952544442,-38.910505836576,3.32646677347975
1580421662.35067,-151.277943083848,-34.1496910048068,2.89921416037237
1580421662.35466,-159.578850995651,-29.9992370489051,2.22781719691761
1580421662.35866,-165.68245975433,-26.5812161440451,1.80056458381023
1580421662.36265,-169.405661097124,-23.0411230640116,1.49538414587619
1580421662.36664,-170.565346761273,-19.3179217212175,1.73952849622333
1580421662.37064,-168.795300221256,-15.1064316777295,3.14335851071951
1580421662.37463,-163.546196688792,-10.5897611963073,5.58480201419093
1580421662.37862,-154.757000076295,-5.82894636453807,9.36903944457163
1580421662.38262,-142.427710383764,-0.823987182421661,14.3129625391011
1580421662.38661,-126.680399786374,5.09651331349664,19.9282825970854
1580421662.3906,-108.796826123445,11.9325551232166,25.4215304798961
1580421662.3946,-88.7769893949796,19.7451743343252,29.9382009613182
1580421662.39859,-67.2312504768445,28.2291905088882,33.2341496910046
1580421662.40258,-44.1596093690396,37.5066758220796,35.6755931944761
1580421662.40658,-20.1724269474325,46.9062333104446,37.4456397344929
1580421662.41057,3.99786373693451,56.3057907988095,39.1546501869229
1580421662.41456,27.8629739833675,64.7898069733733,41.2298771648736
1580421662.41856,52.3994811932553,71.6868848706799,43.4882124055846
1580421662.42258,78.5839627679866,76.3256275272756,46.6010528725108
1580421662.42657,105.622949568933,77.424277103838,50.6294346532386
1580421662.43056,131.074998092622,74.006256198978,55.8175020981153
1580421662.43456,153.231097886625,66.1326009002823,61.8600747692071
1580421662.43855,173.06782635233,56.6109712367434,67.6585030899523
1580421662.44254,194.674601358053,49.3476768139162,72.480354009308
1580421662.44654,220.309758144503,46.2348363469901,74.3114366369118
1580421662.45053,244.48004882887,47.2724498359653,73.3348592355233
1580421662.45452,251.438162813763,49.5307850766762,69.7947661554895
1580421662.45852,214.938582436866,46.4179446097503,66.4988174258033
1580421662.46251,120.515754940108,30.5485618371861,64.9118791485466
1580421662.4665,-1.98367284657047,12.359807736324,65.0949874113071
1580421662.4705,-109.529259174487,7.35484855420759,66.4377813382166
1580421662.47449,-184.66468299382,11.6884107728695,66.1326009002823
1580421662.47849,-226.962691691463,11.9325551232166,63.3249408712904
1580421662.48248,-240.390630960555,3.44853894865332,59.7848477912562
1580421662.48647,-232.578011749447,-7.7821011673152,57.648584725719
1580421662.49047,-213.595788509956,-15.1674677653161,56.5499351491567
1580421662.49446,-188.693064774548,-16.0219729915311,54.4136720836191
1580421662.49845,-159.395742732891,-11.5663385976959,48.9204242008086
1580421662.50244,-126.253147173266,-3.87579156176093,39.8260471503775
1580421662.50643,-92.2560463874265,4.91340505073617,28.3512626840618
1580421662.51043,-60.212100404364,11.2611581597619,16.8764782177461
1580421662.51442,-32.4406805523768,10.8949416342411,7.41588464179449
1580421662.51841,-10.650797283894,2.53299763485165,0.823987182421661
1580421662.52241,4.8523689631495,-11.3832303349354,-2.96025024795904
1580421662.5264,14.068818188754,-26.0318913557639,-4.54718852521546
1580421662.5304,18.8906691081102,-38.910505836576,-4.24200808728165
1580421662.53439,21.3931486991683,-50.5073624780653,-2.16678110933094
1580421662.53838,25.1773861295489,-61.0055695429924,1.80056458381023
1580421662.54238,31.8913557640954,-68.5130083161669,6.98863202868688
1580421662.54637,38.9105058365758,-75.1659418631266,11.505302510109
1580421662.55036,44.7089341573203,-79.3774319066147,12.359807736324
1580421662.55436,44.7699702449072,-76.447699702449,7.66002899214163
1580421662.55835,40.6195162890058,-68.4519722285802,-1.67849240863666
1580421662.56234,33.2951857785915,-50.873579003586,-12.7260242618447
1580421662.56634,27.0695048447394,-18.646524757763,-21.8204013122759
1580421662.57033,30.7316700999465,19.7451743343252,-25.6656748302432
1580421662.57432,49.7749294270234,52.3994811932553,-22.1255817502097
1580421662.57832,84.5654993514918,71.9310292210271,-11.2001220721752
1580421662.58231,126.924544136721,77.1190966659037,7.96520943007545
1580421662.5863,157.747768368048,69.1844052796218,36.1638818951703
1580421662.59029,150.911726558328,55.0240329594872,67.9636835278861
1580421662.59429,97.016861219196,42.0233463035017,91.4015411612118
1580421662.59828,16.0219729915311,32.3796444647896,95.1247425040056
1580421662.60227,-52.8267338063631,27.8629739833675,79.4384679942018
1580421662.60627,-78.5839627679866,28.5343709468223,59.2355230029752
1580421662.61026,-65.6443121995881,34.027618829633,45.8686198214693
1580421662.61425,-41.9623102159153,48.7983520256348,40.6805523765925
1580421662.61825,-34.9431601434349,63.6911573968109,42.8778515297167
1580421662.62224,-54.7188525215533,65.4001678492409,46.8451972228579
1580421662.62623,-85.297932402533,52.3384451056686,46.7231250476843
1580421662.63023,-108.979934386206,35.7366292820629,38.4222171358815
1580421662.63422,-123.750667582208,25.2384222171358,22.2476539253832
1580421662.63821,-131.990539406424,20.904859998474,2.96025024795904
1580421662.64221,-135.591668574044,19.2568856336309,-14.923323414969
1580421662.6462,-135.896849011978,17.5478751812009,-29.2668039978637
1580421662.65019,-133.333333333333,15.1064316777295,-40.314335851072
1580421662.65419,-127.534905012589,12.359807736324,-48.5542076752881
1580421662.65818,-118.318455786984,11.3221942473488,-54.291599908446
1580421662.6622,-105.500877393759,13.8246738384069,-55.9395742732891
1580421662.66619,-90.1197833218889,21.0269321736475,-52.7656977187762
1580421662.67019,-73.4569314106966,32.0744640268558,-45.9906919966431
1580421662.67418,-56.4888990615702,45.0141145952543,-37.3235675593196
1580421662.67817,-39.1546501869232,58.9303425650414,-27.6798657206073
1580421662.68217,-19.9893186846723,74.0672922865647,-17.792019531548
1580421662.68616,1.37331197070262,89.9366750591289,-8.39246204318306
1580421662.69016,22.6749065384909,104.15808346685,-0.091554131380235
1580421662.69415,38.3611810482946,112.88624399176,7.96520943007545
1580421662.69814,43.0609597924772,113.984893568322,16.7544060425726
1580421662.70214,35.6145571068894,108.857862211032,26.2760357061111
1580421662.70613,20.2334630350194,101.594567788205,35.6145571068894
1580421662.71012,3.69268329900046,95.4299229419394,43.366140230411
1580421662.71412,-9.67421988250544,92.439154650187,49.2256046387424
1580421662.71811,-17.8530556191347,92.1950102998399,53.07087815671
1580421662.7221,-22.4307621881437,93.1715877012284,55.5733577477681
1580421662.7261,-24.7501335164416,93.9040207522698,56.48889906157
1580421662.73009,-25.9098191805904,93.9650568398565,56.0006103608757
1580421662.73408,-25.7267109178301,94.2092011902037,54.6578164339662
1580421662.73808,-23.5904478522925,95.2468146791794,53.4370946822305
1580421662.74206,-19.195849546044,97.6272220950636,52.5215533684291
1580421662.74606,-12.4818799114976,101.411459525445,51.7891203173876
1580421662.75005,-3.38750286106665,106.599526970321,50.7515068284119
1580421662.75405,7.7821011673152,112.520027466239,49.1645685511558
1580421662.75804,19.6841382467383,118.684672312505,47.089341573205
1580421662.76203,31.1589227130539,124.727244983596,44.2816815442129
1580421662.76603,40.8636606393529,129.610131990539,41.2909132524603
1580421662.77002,48.6762798504615,132.906080720226,38.0560006103608
1580421662.77401,54.9629968719005,134.92027161059,35.0041962310215
1580421662.77801,60.0900282291905,136.018921187152,32.6237888151368
1580421662.782,64.5456626230261,136.018921187152,30.9147783627068
1580421662.78599,68.1467917906466,135.286488136111,29.6330205233844
1580421662.78999,70.7103074692914,133.638513771267,28.8395513847561
1580421662.79398,71.3206683451594,132.295719844358,28.900587472343
1580421662.79797,69.7337300679028,130.159456778821,29.5109483482108
1580421662.80197,66.6208896009766,128.633554589151,30.3654535744258
1580421662.80596,62.8976882581828,127.901121538109,31.2199588006408
1580421662.80995,59.357595178149,127.779049362936,31.1589227130539
1580421662.81395,57.4654764629586,128.206301976044,27.2526131074997
1580421662.81794,56.7940794995038,128.999771114672,22.613870450904
1580421662.82193,60.1510643167771,130.647745479515,0.213626306553806
1580421662.82592,63.3859769588771,127.351796749828,-8.69764248111687
1580421662.82992,58.197909514,139.681086442359,17.1816586556802
1580421662.83391,55.2071412222476,144.014648661021,24.322880903334
1580421662.8379,53.1319142442967,136.751354238193,27.4967574578468
1580421662.8419,51.911192492561,137.117570763714,28.5954070344089
1580421662.84589,51.4839398794534,139.864194705119,27.3746852826732
1580421662.84988,51.6060120546272,141.695277332723,24.8111696040282
1580421662.85388,51.3008316166934,144.014648661021,22.8580148012511
1580421662.85787,50.5073624780648,145.052262149996,19.195849546044
1580421662.86187,49.5307850766762,145.296406500343,18.0971999694818
1580421662.86586,47.8828107118331,147.310597390707,18.4634164950025
1580421662.86985,46.1738002594032,147.737850003815,17.9751277943083
1580421662.87384,44.4647898069732,147.310597390707,17.486839093614
1580421662.87784,42.3285267414358,146.8833447776,16.937514305333
1580421662.88183,39.2767223620965,146.272983901732,16.3271534294652
1580421662.88583,35.0652323186082,144.869153887236,15.4116121156633
1580421662.88982,30.4875257495994,142.427710383764,14.1908903639276
1580421662.89381,25.6656748302432,139.681086442359,12.7260242618447
1580421662.89781,21.0269321736475,136.507209887846,11.3832303349354
1580421662.90182,17.1206225680933,133.882658121614,10.5897611963073
1580421662.90582,13.519493400473,132.051575494011,10.1625085831997
1580421662.90981,10.3456168459602,130.586709391928,10.650797283894
1580421662.91381,8.33142595559616,129.97634851606,11.9935912108033
1580421662.9178,8.02624551766235,129.915312428473,14.0077821011673
1580421662.92179,9.91836423285258,130.281528953994,16.4492256046387
1580421662.92579,13.2753490501259,130.403601129168,19.0737773708704
1580421662.92978,17.486839093614,130.464637216754,21.4541847867551
1580421662.93377,21.0269321736475,130.464637216754,23.773556115053
1580421662.93777,23.5904478522925,129.243915465019,25.5436026550697
1580421662.94176,24.628061341268,126.314183260853,27.0084687571525
1580421662.94575,24.3839169909209,122.163729304952,27.6798657206073
1580421662.94975,23.2852674143587,117.769130998703,27.8019378957808
1580421662.95374,21.3931486991683,113.252460517281,27.0084687571525
1580421662.95773,19.1348134584573,109.102006561379,25.2994583047225
1580421662.96173,16.4492256046387,104.951552605478,22.9800869764247
1580421662.96572,13.8857099259938,100.434882124056,20.2944991226061
1580421662.96971,12.359807736324,95.6740672922865,17.2426947432668
1580421662.97371,12.6039520866711,90.4249637598232,14.3129625391011
1580421662.9777,14.923323414969,85.2368963149465,11.5663385976959
1580421662.98169,19.195849546044,80.7812619211109,9.24696726939806
1580421662.98568,25.482566567483,76.7528801403832,7.59899290455473
1580421662.98968,32.9289692530708,73.3958953231099,6.86655985351331
1580421662.99367,40.7415884641794,70.771343556878,6.80552376592664
1580421662.99766,48.6152437628748,68.5740444037538,7.23277637903402
1580421663.00166,55.2071412222476,66.3157091630428,7.90417334248878
1580421663.00565,59.90691996643,64.0573739223319,8.81971465629044
1580421663.00964,61.9211108567938,61.6769665064467,9.30800335698473
1580421663.01364,61.4938582436862,59.2355230029752,9.55214770733187
1580421663.01763,59.0524147402148,56.1837186236362,9.61318379491877
1580421663.02162,54.9019607843134,52.6436255436024,9.24696726939806
1580421663.02562,49.7138933394367,48.9204242008086,8.5755703059433
1580421663.02961,43.9765011062789,44.8310063324939,7.7821011673152
1580421663.0336,39.0325780117494,40.0701915007246,6.5003433279926
1580421663.0376,35.4924849317158,34.4548714427403,5.27962157625689
1580421663.04159,34.4548714427403,27.6798657206073,3.99786373693451
1580421663.04558,35.4314488441289,20.7217517357137,2.83817807278547
1580421663.04958,37.8118562600137,14.4350347142747,1.98367284657047
1580421663.05357,41.4740215152208,8.88075074387734,1.19020370794237
1580421663.05757,45.929655909056,3.57061112382689,0.579842832074519
1580421663.06158,50.8735790035857,-1.25123979552905,0.335698481727377
1580421663.06558,54.6578164339662,-5.7068741893645,0.457770656900948
1580421663.06957,56.6720073243305,-10.1014724956131,0.946059357595232
1580421663.07357,56.6109712367434,-14.0077821011673,1.31227588311594
1580421663.07756,54.8409246967267,-17.6699473563745,1.31227588311594
1580421663.08155,52.0332646677348,-21.0269321736475,0.70191500724809
1580421663.08554,49.3476768139162,-23.7125200274661,-0.762951094834762
1580421663.08954,47.94384679942,-26.0929274433508,-3.08232242313261
1580421663.09353,48.2490272373539,-28.6564431219958,-5.46272983901736
1580421663.09753,49.1645685511558,-33.3562218661784,-7.90417334248878
1580421663.10152,48.6152437628748,-40.619516289006,-9.91836423285258
1580421663.10551,46.4789806973372,-49.9580376897841,-11.2611581597619
1580421663.10951,43.4882124055846,-59.9069199664302,-12.4818799114976
1580421663.1135,40.0701915007246,-69.4285496299688,-13.4584573128861
1580421663.11749,36.7132066834515,-78.5839627679866,-14.9843595025559
1580421663.12149,33.173113603418,-87.6173037308308,-16.9985503929197
1580421663.12548,28.6564431219958,-96.2844281681546,-19.5620660715647
1580421663.12947,21.5762569619287,-103.547722590982,-23.2242313267718
1580421663.13347,11.5663385976959,-107.942320897231,-27.7409018081939
1580421663.13746,-0.579842832074519,-109.4682230869,-32.6848249027239
1580421663.14145,-11.7494468604561,-109.834439612421,-37.8118562600139
1580421663.14544,-18.2192721446554,-111.238269626917,-42.7557793545434
1580421663.14944,-19.2568856336309,-115.083543144885,-47.7607385366598
1580421663.15343,-15.7167925535973,-120.149538414588,-52.582589456016
1580421663.15742,-6.98863202868688,-125.947966735332,-57.3434042877852
1580421663.16142,7.41588464179449,-131.624322880903,-61.921110856794
1580421663.16541,26.4591439688716,-137.788967727169,-66.3767452506295
1580421663.1694,48.7373159380481,-143.587396047913,-70.5271992065309
1580421663.1734,72.9686427100023,-148.104066529335,-73.2127870603495
1580421663.17739,96.5896086060884,-154.08560311284,-74.1283283741511
1580421663.18138,116.792553597315,-160.860608834974,-72.6024261844816
1580421663.18538,131.624322880903,-166.292820630198,-69.1844052796216
1580421663.18937,140.657663843748,-169.954985885405,-63.8132295719845
1580421663.19336,144.197756923781,-171.541924162661,-57.0992599374381
1580421663.19736,144.136720836194,-171.786068513008,-49.5918211642634
1580421663.20135,141.878385595483,-171.236743724727,-40.9246967269398
1580421663.20534,138.582436865797,-170.016021972992,-31.4641031509882
1580421663.20934,134.615091172656,-167.513542381933,-21.0269321736475
1580421663.21333,130.037384603647,-163.118944075685,-9.4300755321583
1580421663.21732,124.788281071184,-157.442587930114,3.32646677347975
1580421663.22131,119.233997100786,-151.766231784542,16.8154421301595
1580421663.22531,112.642099641413,-147.188525215534,30.1823453116654
1580421663.2293,103.669794766156,-144.075684748608,42.3895628290225
1580421663.23329,90.1197833218894,-142.671854734112,52.7046616311891
1580421663.23729,70.1609826810104,-143.46532387274,60.456244754711
1580421663.24128,44.1596093690393,-147.310597390707,64.85084306096
1580421663.24527,14.373998626688,-153.475242236972,65.7663843747619
1580421663.24927,-16.0219729915311,-159.761959258412,63.3859769588771
1580421663.25326,-43.9765011062791,-165.49935149157,58.0758373388262
1580421663.25725,-67.8416113527123,-170.504310673686,50.6904707408253
1580421663.26125,-87.3731593804837,-175.692378118563,41.657129777981
1580421663.26524,-103.303578240635,-181.24666208896,31.4030670634011
1580421663.26923,-116.670481422141,-186.739909971771,20.1724269474325
1580421663.27323,-127.718013275349,-190.218966964218,9.00282291905091
1580421663.27722,-135.28648813611,-190.768291752499,-1.0681315327688
1580421663.28122,-137.788967727169,-188.693064774548,-9.73525597009234
1580421663.28521,-134.676127260243,-184.908827344167,-16.8154421301595
1580421663.2892,-126.924544136721,-180.270084687572,-21.759365224689
1580421663.2932,-116.670481422141,-175.814450293736,-24.5670252536811
1580421663.29719,-106.660563057908,-171.969176775769,-25.7877470054168
1580421663.30121,-98.8479438467996,-168.856336308843,-25.7877470054168
1580421663.3052,-93.9650568398567,-166.414892805371,-25.1773861295489
1580421663.3092,-91.4625772487982,-164.522774090181,-24.7501335164416
1580421663.31319,-90.6080720225832,-163.241016250858,-24.5059891660944
1580421663.31718,-90.4859998474096,-162.203402761883,-24.2618448157473
1580421663.32118,-89.8756389715418,-160.616464484627,-23.8956282902266
1580421663.32517,-88.1666285191118,-158.907454032197,-23.6514839398794
1580421663.32916,-84.6265354390782,-156.099794003204,-23.2852674143587
1580421663.33316,-79.6826123445487,-152.681773098344,-22.5528343633173
1580421663.33715,-72.7244983596552,-148.897535667964,-21.5152208743418
1580421663.34114,-63.9963378347447,-145.052262149996,-20.2334630350194
1580421663.34514,-54.2305638208591,-141.206988632029,-18.9517051956968
1580421663.34913,-43.732356755932,-137.544823376822,-17.4258030060273
1580421663.35312,-32.8068970778975,-134.187838559548,-15.8999008163576
1580421663.35712,-22.3697261005568,-130.952925917449,-14.4350347142747
1580421663.36111,-12.4818799114976,-127.595941100175,-13.0312046997788
1580421663.3651,-3.57061112382689,-124.238956282902,-11.9325551232166
1580421663.3691,4.11993591210808,-120.943007553216,-10.7728694590676
1580421663.37309,10.5897611963073,-117.891203173877,-9.85732814526591
1580421663.37708,15.4116121156633,-114.473182269017,-9.06385900663759
1580421663.38107,18.7075608453497,-110.749980926223,-8.45349813076973
1580421663.38507,20.8438239108873,-106.782635233082,-8.08728160524902
1580421663.38906,21.759365224689,-102.388036926833,-7.7821011673152
1580421663.39305,21.5152208743418,-97.8103303578241,-7.29381246662092
1580421663.39705,20.6607156481268,-92.9884794384679,-6.74448767833974
1580421663.40104,19.195849546044,-88.1666285191118,-6.31723506523235
1580421663.40503,17.1206225680933,-83.4058136873425,-5.58480201419093
1580421663.40903,14.1298542763409,-78.156710154879,-5.03547722590974
1580421663.41302,10.3456168459602,-72.6634622720683,-4.73029678797593
1580421663.41701,5.6458381017776,-66.9871061264973,-4.60822461280236
1580421663.42101,0.091554131380235,-61.3717860685131,-4.7913328755626
1580421663.425,-6.31723506523235,-55.6954299229419,-5.03547722590974
1580421663.42899,-13.3363851377126,-49.8970016021974,-5.6458381017776
1580421663.43299,-21.0269321736475,-44.037537193866,-6.68345159075307
1580421663.43698,-29.0226596475165,-38.2391088731213,-7.96520943007545
1580421663.44097,-36.9573510337989,-32.5017166399634,-9.4911116197452
1580421663.44497,-44.5258258945603,-27.0695048447394,-10.7118333714809
1580421663.44896,-51.3008316166934,-21.759365224689,-11.810482948043
1580421663.45296,-57.3434042877852,-16.5102616922254,-12.664988174258
1580421663.45695,-62.4093995574883,-11.2001220721752,-13.3363851377126
1580421663.46094,-66.6208896009766,-6.07309071488521,-13.6415655756466
1580421663.46493,-70.771343556878,-1.12916762035547,-13.214312962539
1580421663.46892,-75.1049057755397,3.38750286106665,-12.2377355611504
1580421663.47292,-79.9877927824825,7.47692072938116,-10.2845807583733
1580421663.47691,-84.6875715266651,10.8339055466545,-7.66002899214163
1580421663.4809,-89.2042420080872,13.8857099259938,-4.36408026245522
1580421663.4849,-92.6222629129472,16.4492256046387,-0.0305180437933359
1580421663.48889,-93.2326237888151,18.7075608453497,4.42511635004189
1580421663.49288,-89.9366750591287,21.0269321736475,7.96520943007545
1580421663.49688,-81.6357671473259,23.6514839398794,10.2845807583733
1580421663.50087,-69.5506218051423,27.0695048447394,11.9935912108033
1580421663.50487,-55.3902494850081,32.8679331654839,13.7026016632333
1580421663.50886,-41.0467689021134,41.9623102159151,16.083009079118
1580421663.51285,-25.6046387426566,53.3150225070572,19.6841382467383
1580421663.51685,-7.23277637903402,66.3157091630428,24.0177004654001
1580421663.52084,16.083009079118,79.2553597314413,28.900587472343
1580421663.52483,45.075150682841,89.570458533608,34.3938353551537
1580421663.52883,78.2787823300528,95.3688868543527,40.9857328145265
1580421663.53282,113.679713130388,95.3688868543527,48.5542076752877
1580421663.53681,148.287174792096,89.6314946211951,56.1837186236362
1580421663.54083,178.866254673075,78.1567101548794,62.4704356450748
1580421663.54483,203.341725795377,63.14183260853,65.0949874113071
1580421663.54882,220.859082932784,44.5868619821467,63.14183260853
1580421663.55281,229.709315632868,23.2852674143587,57.4044403753719
1580421663.55681,220.065613794156,6.43930724040592,49.9580376897839
1580421663.5608,173.006790264744,-2.59403372243833,42.0843823910886
1580421663.56479,81.3916227969789,-8.08728160524902,37.5677119096665
1580421663.56879,-26.7032883192187,-11.8715190356297,39.0325780117494
1580421663.57278,-112.764171816587,-8.39246204318306,45.3192950331882
1580421663.57677,-161.409933623255,2.22781719691761,51.6060120546272
1580421663.58077,-180.392156862745,10.7118333714809,54.5967803463795
1580421663.58476,-181.918059052415,9.85732814526591,53.4370946822305
1580421663.58875,-173.983367666133,2.59403372243833,50.5073624780648
1580421663.59275,-160.311284046693,-5.52376592660403,47.94384679942
1580421663.59674,-141.512169069963,-10.7118333714809,45.6244754711222
1580421663.60073,-118.135347524224,-12.2987716487373,42.9388876173036
1580421663.60473,-92.2560463874265,-10.7728694590676,38.7273975738153
1580421663.60872,-66.4377813382162,-6.74448767833974,33.0510414282444
1580421663.61272,-43.7933928435189,-1.49538414587619,26.8863965819789
1580421663.61671,-26.4591439688716,3.26543068589308,21.210040436408
1580421663.6207,-13.0312046997788,6.13412680247188,17.2426947432668
1580421663.62469,-1.61745632104976,6.13412680247188,15.2895399404897
1580421663.62868,8.88075074387734,3.26543068589308,15.1674677653161
1580421663.63268,17.1206225680933,-1.31227588311594,16.2050812542916
1580421663.63667,22.1255817502097,-6.86655985351331,17.3647669184404
1580421663.64066,23.4073395895323,-13.1532768749523,18.341344319829
1580421663.64466,21.2710765239947,-20.050354772259,19.5620660715647
1580421663.64865,17.9751277943083,-27.2526131074997,20.9658960860609
1580421663.65264,16.3271534294652,-33.1731136034182,23.1021591515982
1580421663.65664,17.0595864805066,-38.7884336614025,25.3604943923094
1580421663.66063,19.7451743343252,-46.2348363469903,26.7032883192187
1580421663.66462,21.4541847867551,-53.8033112077517,25.9708552681773
1580421663.66862,19.0737773708704,-61.1276417181659,22.064545662623
1580421663.67261,14.0077821011673,-66.7429617761502,14.8622873273823
1580421663.67661,10.5287251087204,-66.6819256885633,5.52376592660403
1580421663.6806,9.06385900663759,-56.000610360876,-4.18097199969475
1580421663.68459,8.45349813076973,-34.5769436179141,-11.4442664225223
1580421663.68859,9.4300755321583,-8.39246204318306,-12.7870603494316
1580421663.69258,12.9701686121919,16.8154421301595,-7.11070420386045
1580421663.69657,16.8154421301595,34.9431601434346,4.97444113832307
1580421663.70056,17.3037308308537,41.4129854276339,21.3931486991683
1580421663.70456,10.8339055466545,36.530098420691,38.239108873121
1580421663.70855,-5.7068741893645,24.8722056916151,50.2632181277177
1580421663.71254,-30.2433813992523,11.9325551232166,53.0098420691234
1580421663.71653,-55.9395742732891,3.14335851071951,46.5400167849239
1580421663.72053,-76.3866636148623,2.96025024795904,35.5535210193025
1580421663.72452,-89.570458533608,10.1625085831997,25.5436026550697
1580421663.72852,-99.580376897841,17.7309834439611,20.6607156481268
1580421663.73251,-110.872053101396,20.9658960860609,20.5386434729533
1580421663.7365,-121.126115815976,20.050354772259,21.8204013122759
1580421663.7405,-125.886930647745,16.937514305333,21.5152208743418
1580421663.74449,-126.070038910506,14.1298542763409,18.2192721446554
1580421663.74848,-125.581750209812,13.6415655756466,12.359807736324
1580421663.75248,-125.337605859464,16.5102616922254,4.73029678797593
1580421663.75647,-124.788281071183,21.4541847867551,-3.57061112382689
1580421663.76046,-122.468909742885,26.2149996185244,-10.7728694590676
1580421663.76446,-116.975661860075,29.5109483482108,-16.083009079118
1580421663.76845,-107.515068284123,31.7692835889218,-19.8062104219118
1580421663.77244,-93.4157320515753,32.9289692530708,-21.6372930495154
