Timestamp_seconds,Gyro_X_s,Gyro_Y_s,Gyro_Z_s
1580421695.92282,-4.8523689631495,-4.73029678797593,-4.24200808728165
1580421695.92681,-4.42511635004189,-4.60822461280236,-4.42511635004189
1580421695.9308,-3.38750286106665,-4.36408026245522,-4.36408026245522
1580421695.9348,-2.04470893415737,-4.11993591210808,-4.42511635004189
1580421695.93879,-0.579842832074519,-4.05889982452118,-4.11993591210808
1580421695.94278,0.457770656900948,-3.69268329900046,-3.93682764934761
1580421695.94678,1.31227588311594,-3.26543068589308,-3.69268329900046
1580421695.95077,1.67849240863666,-2.7771419851988,-3.38750286106665
1580421695.95476,1.80056458381023,-2.22781719691761,-3.14335851071951
1580421695.95876,1.61745632104976,-1.8616006713969,-2.7771419851988
1580421695.96275,1.43434805828952,-1.49538414587619,-2.59403372243833
1580421695.96674,1.0070954451819,-1.25123979552905,-2.28885328450451
1580421695.97076,0.762951094834762,-1.31227588311594,-2.10574502174404
1580421695.97476,0.457770656900948,-1.43434805828952,-1.98367284657047
1580421695.97875,0.335698481727377,-1.73952849622333,-1.8616006713969
1580421695.98274,0.396734569314049,-1.9226367589838,-1.67849240863666
1580421695.98674,0.823987182421661,-2.28885328450451,-1.49538414587619
1580421695.99073,1.43434805828952,-2.7161058976119,-1.37331197070262
1580421695.99472,1.73952849622333,-3.08232242313261,-1.25123979552905
1580421695.99872,2.16678110933094,-3.32646677347975,-0.946059357595232
1580421696.00271,2.34988937209118,-3.44853894865332,-0.762951094834762
1580421696.00671,2.83817807278547,-3.57061112382689,-0.70191500724809
1580421696.0107,3.69268329900046,-3.63164721141379,-0.51880674448762
1580421696.01469,4.66926070038903,-3.38750286106665,-0.640878919661191
1580421696.01869,5.52376592660403,-2.89921416037237,-0.51880674448762
1580421696.02268,6.43930724040592,-2.53299763485165,-0.396734569314049
1580421696.02667,7.29381246662092,-2.34988937209118,-0.457770656900948
1580421696.03067,7.72106507972831,-2.34988937209118,-0.274662394140478
1580421696.03466,8.08728160524902,-2.28885328450451,-0.274662394140478
1580421696.03865,8.14831769283592,-2.47196154726475,-0.091554131380235
1580421696.04265,8.27038986800949,-2.53299763485165,0.0305180437933359
1580421696.04664,8.33142595559616,-2.83817807278547,0.152590218966907
1580421696.05063,8.51453421835663,-3.08232242313261,0.152590218966907
1580421696.05462,8.81971465629044,-3.32646677347975,0.213626306553806
1580421696.05861,9.06385900663759,-3.38750286106665,0.213626306553806
1580421696.06261,9.12489509422448,-3.26543068589308,0.213626306553806
1580421696.0666,8.88075074387734,-3.20439459830618,0.152590218966907
1580421696.0706,8.51453421835663,-2.89921416037237,0.274662394140478
1580421696.07459,8.08728160524902,-2.53299763485165,0.213626306553806
1580421696.07858,7.72106507972831,-2.10574502174404,0.335698481727377
1580421696.08258,7.66002899214163,-1.67849240863666,0.51880674448762
1580421696.08657,8.02624551766235,-1.49538414587619,0.762951094834762
1580421696.09056,8.5755703059433,-1.55642023346309,1.0070954451819
1580421696.09456,8.88075074387734,-1.43434805828952,1.25123979552905
1580421696.09855,8.75867856870377,-1.43434805828952,1.43434805828952
1580421696.10254,7.90417334248878,-1.0070954451819,1.55642023346309
1580421696.10654,6.92759594110021,-0.70191500724809,1.49538414587619
1580421696.11053,6.19516289005878,-0.396734569314049,1.37331197070262
1580421696.11452,5.52376592660403,-0.091554131380235,1.19020370794237
1580421696.11852,4.73029678797593,0.213626306553806,0.823987182421661
1580421696.12251,3.99786373693451,0.091554131380235,0.396734569314049
1580421696.1265,3.44853894865332,-0.091554131380235,-0.0305180437933359
1580421696.13052,2.59403372243833,-0.396734569314049,-0.396734569314049
1580421696.13452,1.8616006713969,-1.0681315327688,-0.885023270008332
1580421696.13851,1.43434805828952,-1.67849240863666,-1.25123979552905
1580421696.1425,1.12916762035547,-2.34988937209118,-1.49538414587619
1580421696.1465,0.946059357595232,-2.89921416037237,-1.55642023346309
1580421696.15049,1.12916762035547,-2.83817807278547,-1.61745632104976
1580421696.15448,1.12916762035547,-2.65506981002522,-1.49538414587619
1580421696.15848,1.37331197070262,-2.47196154726475,-1.55642023346309
1580421696.16247,1.9226367589838,-1.80056458381023,-1.43434805828952
1580421696.16647,2.59403372243833,-1.43434805828952,-1.19020370794237
1580421696.17046,3.08232242313261,-1.31227588311594,-0.70191500724809
1580421696.17445,3.81475547417404,-1.19020370794237,-0.213626306553806
1580421696.17844,4.24200808728165,-1.31227588311594,0.335698481727377
1580421696.18244,4.7913328755626,-1.55642023346309,0.885023270008332
1580421696.18643,5.15754940108332,-1.19020370794237,1.43434805828952
1580421696.19043,5.34065766384379,-0.51880674448762,1.73952849622333
1580421696.19442,5.7068741893645,0.335698481727377,2.10574502174404
1580421696.19841,6.19516289005878,0.885023270008332,2.22781719691761
1580421696.20241,6.68345159075307,1.31227588311594,2.34988937209118
1580421696.2064,7.23277637903402,1.25123979552905,2.28885328450451
1580421696.21039,7.41588464179449,0.70191500724809,2.28885328450451
1580421696.21438,7.23277637903402,-0.213626306553806,2.04470893415737
1580421696.21837,6.98863202868688,-1.37331197070262,1.67849240863666
1580421696.22237,6.86655985351331,-2.10574502174404,1.19020370794237
1580421696.22636,6.5003433279926,-2.89921416037237,0.823987182421661
1580421696.23036,6.5003433279926,-3.57061112382689,0.457770656900948
1580421696.23435,6.80552376592664,-3.99786373693451,0.152590218966907
1580421696.23834,7.11070420386045,-4.42511635004189,-0.152590218966907
1580421696.24234,7.84313725490188,-4.66926070038903,-0.091554131380235
1580421696.24633,8.5755703059433,-4.7913328755626,-0.152590218966907
1580421696.25032,9.4300755321583,-4.91340505073617,0.0305180437933359
1580421696.25432,10.2845807583733,-4.73029678797593,0.335698481727377
1580421696.25831,11.1390859845883,-4.36408026245522,0.579842832074519
1580421696.2623,11.810482948043,-3.87579156176093,0.823987182421661
1580421696.2663,12.1766994735638,-3.50957503624022,1.0681315327688
1580421696.27029,12.1766994735638,-3.26543068589308,1.12916762035547
1580421696.27428,11.810482948043,-3.14335851071951,1.31227588311594
1580421696.27828,11.505302510109,-3.08232242313261,1.43434805828952
1580421696.28227,11.3221942473488,-3.32646677347975,1.55642023346309
1580421696.28626,11.1390859845883,-3.69268329900046,1.49538414587619
1580421696.29025,11.1390859845883,-4.18097199969475,1.37331197070262
1580421696.29425,10.8949416342411,-4.73029678797593,1.25123979552905
1580421696.29824,10.8339055466545,-5.21858548867021,1.0070954451819
1580421696.30223,10.5897611963073,-5.6458381017776,0.946059357595232
1580421696.30623,10.2845807583733,-6.01205462729831,0.51880674448762
1580421696.31022,10.0404364080262,-6.31723506523235,0.274662394140478
1580421696.31421,9.91836423285258,-6.56137941557949,-0.0305180437933359
1580421696.31821,9.97940032043948,-6.56137941557949,-0.274662394140478
1580421696.3222,9.91836423285258,-6.68345159075307,-0.762951094834762
1580421696.32619,9.61318379491877,-6.43930724040592,-0.823987182421661
1580421696.33019,9.30800335698473,-6.31723506523235,-1.12916762035547
1580421696.33418,9.12489509422448,-6.07309071488521,-1.12916762035547
1580421696.33817,9.00282291905091,-5.82894636453807,-0.885023270008332
1580421696.34217,8.6366063935302,-5.27962157625689,-0.70191500724809
1580421696.34616,8.27038986800949,-4.60822461280236,-0.335698481727377
1580421696.35015,7.96520943007545,-3.99786373693451,0.091554131380235
1580421696.35415,7.29381246662092,-3.50957503624022,0.457770656900948
1580421696.35814,6.19516289005878,-3.08232242313261,0.762951094834762
1580421696.36214,4.66926070038903,-2.89921416037237,0.946059357595232
1580421696.36613,2.96025024795904,-2.7161058976119,1.0070954451819
1580421696.37015,1.43434805828952,-2.47196154726475,0.823987182421661
1580421696.37414,0.152590218966907,-2.47196154726475,0.70191500724809
1580421696.37813,-0.70191500724809,-2.59403372243833,0.335698481727377
1580421696.38213,-1.61745632104976,-2.89921416037237,-0.0305180437933359
1580421696.38612,-2.47196154726475,-3.63164721141379,-0.274662394140478
1580421696.39012,-3.50957503624022,-4.30304417486832,-0.51880674448762
1580421696.39411,-4.60822461280236,-4.7913328755626,-0.823987182421661
1580421696.3981,-5.52376592660403,-5.21858548867021,-1.12916762035547
1580421696.40209,-6.07309071488521,-5.46272983901736,-1.19020370794237
1580421696.40609,-6.25619897764545,-5.34065766384379,-1.25123979552905
1580421696.41008,-5.95101853971164,-4.97444113832307,-1.25123979552905
1580421696.41408,-5.34065766384379,-4.36408026245522,-1.25123979552905
1580421696.41807,-4.30304417486832,-3.93682764934761,-1.0681315327688
1580421696.42206,-3.50957503624022,-3.75371938658736,-0.762951094834762
1580421696.42606,-2.7771419851988,-3.26543068589308,-0.396734569314049
1580421696.43005,-2.59403372243833,-2.7161058976119,-0.0305180437933359
1580421696.43404,-2.89921416037237,-2.04470893415737,0.335698481727377
1580421696.43804,-3.32646677347975,-1.19020370794237,0.70191500724809
1580421696.44203,-3.69268329900046,-0.274662394140478,0.823987182421661
1580421696.44602,-3.50957503624022,0.335698481727377,0.823987182421661
1580421696.45001,-3.20439459830618,0.640878919661191,0.823987182421661
1580421696.45401,-2.89921416037237,0.70191500724809,0.885023270008332
1580421696.458,-2.47196154726475,0.274662394140478,0.640878919661191
1580421696.46199,-2.47196154726475,-0.335698481727377,0.396734569314049
1580421696.46599,-2.47196154726475,-1.0070954451819,0.152590218966907
1580421696.46998,-2.65506981002522,-1.43434805828952,-0.091554131380235
1580421696.47397,-3.14335851071951,-1.55642023346309,-0.51880674448762
1580421696.47797,-3.57061112382689,-1.73952849622333,-0.885023270008332
1580421696.48196,-3.81475547417404,-1.8616006713969,-1.12916762035547
1580421696.48595,-3.93682764934761,-1.73952849622333,-1.43434805828952
1580421696.48995,-3.87579156176093,-1.49538414587619,-1.67849240863666
1580421696.49394,-3.38750286106665,-1.25123979552905,-1.73952849622333
1580421696.49793,-3.02128633554594,-0.946059357595232,-1.67849240863666
1580421696.50193,-2.34988937209118,-0.396734569314049,-1.61745632104976
1580421696.50592,-1.67849240863666,-0.0305180437933359,-1.25123979552905
1580421696.50991,-1.0681315327688,0.274662394140478,-0.885023270008332
1580421696.51391,-0.640878919661191,0.885023270008332,-0.274662394140478
1580421696.5179,-0.457770656900948,1.49538414587619,0.213626306553806
1580421696.52189,-0.396734569314049,2.41092545967808,0.640878919661191
1580421696.52589,-0.213626306553806,3.38750286106665,1.25123979552905
1580421696.52988,-0.152590218966907,4.36408026245522,1.49538414587619
1580421696.53387,-0.274662394140478,5.03547722590974,1.67849240863666
1580421696.53786,-0.70191500724809,5.15754940108332,1.80056458381023
1580421696.54186,-1.25123979552905,4.73029678797593,1.61745632104976
1580421696.54585,-1.9226367589838,3.99786373693451,1.37331197070262
1580421696.54984,-2.7771419851988,3.20439459830618,0.946059357595232
1580421696.55384,-3.57061112382689,2.34988937209118,0.396734569314049
1580421696.55783,-4.18097199969475,1.49538414587619,-0.152590218966907
1580421696.56182,-4.66926070038903,1.19020370794237,-0.70191500724809
1580421696.56582,-5.15754940108332,0.946059357595232,-1.19020370794237
1580421696.56981,-5.52376592660403,1.0070954451819,-1.55642023346309
1580421696.5738,-5.58480201419093,1.37331197070262,-1.98367284657047
1580421696.5778,-5.46272983901736,1.55642023346309,-1.98367284657047
1580421696.58179,-4.7913328755626,1.55642023346309,-1.9226367589838
1580421696.58578,-3.81475547417404,1.49538414587619,-1.61745632104976
1580421696.58978,-3.02128633554594,1.43434805828952,-1.12916762035547
1580421696.59377,-2.34988937209118,1.49538414587619,-0.640878919661191
1580421696.59777,-1.8616006713969,1.8616006713969,-0.091554131380235
1580421696.60176,-1.43434805828952,2.41092545967808,0.51880674448762
1580421696.60575,-1.37331197070262,3.20439459830618,1.12916762035547
1580421696.60977,-1.37331197070262,3.81475547417404,1.49538414587619
1580421696.61377,-1.55642023346309,4.18097199969475,1.80056458381023
1580421696.61776,-1.37331197070262,4.24200808728165,1.8616006713969
1580421696.62175,-0.762951094834762,3.75371938658736,1.61745632104976
1580421696.62574,-0.396734569314049,3.02128633554594,1.49538414587619
1580421696.62974,-0.457770656900948,2.22781719691761,1.25123979552905
1580421696.63373,-0.70191500724809,1.49538414587619,1.0681315327688
1580421696.63773,-0.762951094834762,0.70191500724809,0.885023270008332
1580421696.64172,-0.946059357595232,0.0305180437933359,0.579842832074519
1580421696.64571,-0.70191500724809,-0.579842832074519,0.51880674448762
1580421696.64971,-0.335698481727377,-1.0070954451819,0.51880674448762
1580421696.6537,-0.152590218966907,-1.25123979552905,0.640878919661191
1580421696.65769,0.0305180437933359,-1.43434805828952,0.640878919661191
1580421696.66169,0.274662394140478,-1.43434805828952,0.823987182421661
1580421696.66568,0.885023270008332,-1.12916762035547,0.823987182421661
1580421696.66967,1.67849240863666,-0.885023270008332,0.70191500724809
1580421696.67367,2.59403372243833,-0.396734569314049,0.579842832074519
1580421696.67766,3.32646677347975,-0.152590218966907,0.274662394140478
1580421696.68165,3.63164721141379,-0.335698481727377,-0.152590218966907
1580421696.68565,3.75371938658736,-0.457770656900948,-0.457770656900948
1580421696.68964,4.05889982452118,-0.762951094834762,-0.885023270008332
1580421696.69363,4.30304417486832,-1.12916762035547,-1.25123979552905
1580421696.69762,4.42511635004189,-1.37331197070262,-1.0681315327688
1580421696.70162,4.60822461280236,-1.31227588311594,-0.885023270008332
1580421696.70561,4.73029678797593,-1.43434805828952,-0.579842832074519
1580421696.7096,4.8523689631495,-1.31227588311594,-0.152590218966907
1580421696.7136,5.15754940108332,-0.946059357595232,0.640878919661191
1580421696.71759,5.34065766384379,-0.091554131380235,1.19020370794237
1580421696.72158,5.6458381017776,0.579842832074519,1.73952849622333
1580421696.72558,6.19516289005878,1.37331197070262,2.34988937209118
1580421696.72957,6.62241550316617,2.04470893415737,2.59403372243833
1580421696.73356,6.98863202868688,2.41092545967808,2.65506981002522
1580421696.73756,6.80552376592664,2.28885328450451,2.47196154726475
1580421696.74155,6.13412680247188,1.73952849622333,2.28885328450451
1580421696.74554,5.21858548867021,0.640878919661191,2.10574502174404
1580421696.74954,3.99786373693451,-0.579842832074519,1.73952849622333
1580421696.75353,2.83817807278547,-1.80056458381023,1.49538414587619
1580421696.75753,1.8616006713969,-2.53299763485165,1.19020370794237
1580421696.76152,1.19020370794237,-2.41092545967808,1.0070954451819
1580421696.76551,0.823987182421661,-2.16678110933094,0.70191500724809
1580421696.7695,0.946059357595232,-1.67849240863666,0.457770656900948
1580421696.77349,1.0681315327688,-1.25123979552905,0.396734569314049
1580421696.77749,1.25123979552905,-0.946059357595232,0.213626306553806
1580421696.78148,1.49538414587619,-0.885023270008332,0.0305180437933359
1580421696.78547,1.67849240863666,-0.640878919661191,-0.091554131380235
1580421696.78947,2.04470893415737,-0.51880674448762,-0.213626306553806
1580421696.79346,2.59403372243833,-0.396734569314049,-0.091554131380235
1580421696.79745,3.26543068589308,-0.335698481727377,0.0305180437933359
1580421696.80145,3.69268329900046,-0.091554131380235,0.396734569314049
1580421696.80544,3.75371938658736,0.396734569314049,0.51880674448762
1580421696.80943,3.44853894865332,0.885023270008332,0.885023270008332
1580421696.81343,3.02128633554594,1.37331197070262,1.25123979552905
1580421696.81742,3.08232242313261,1.9226367589838,1.67849240863666
1580421696.82142,3.02128633554594,2.47196154726475,1.98367284657047
1580421696.82541,3.26543068589308,2.65506981002522,2.10574502174404
1580421696.8294,3.20439459830618,2.7161058976119,2.22781719691761
1580421696.8334,2.7771419851988,2.65506981002522,2.16678110933094
1580421696.83739,2.10574502174404,2.47196154726475,1.98367284657047
1580421696.84138,1.49538414587619,2.28885328450451,1.73952849622333
1580421696.84538,0.946059357595232,1.9226367589838,1.49538414587619
1580421696.8494,0.457770656900948,1.55642023346309,1.25123979552905
1580421696.85339,0.274662394140478,1.19020370794237,1.0681315327688
1580421696.85738,0.091554131380235,0.823987182421661,0.823987182421661
1580421696.86138,0.091554131380235,0.762951094834762,0.885023270008332
1580421696.86537,0.152590218966907,0.579842832074519,0.885023270008332
1580421696.86936,0.396734569314049,0.579842832074519,0.946059357595232
1580421696.87336,0.823987182421661,0.762951094834762,1.0681315327688
1580421696.87735,1.67849240863666,1.19020370794237,1.37331197070262
1580421696.88134,2.41092545967808,1.43434805828952,1.49538414587619
1580421696.88534,2.89921416037237,1.80056458381023,1.67849240863666
1580421696.88933,3.26543068589308,2.16678110933094,1.73952849622333
1580421696.89332,3.57061112382689,2.47196154726475,1.8616006713969
1580421696.89732,3.38750286106665,2.47196154726475,1.8616006713969
1580421696.90131,3.26543068589308,2.34988937209118,1.80056458381023
1580421696.9053,3.14335851071951,2.28885328450451,1.80056458381023
1580421696.9093,3.14335851071951,2.16678110933094,1.67849240863666
1580421696.91329,3.44853894865332,1.9226367589838,1.55642023346309
1580421696.91728,3.63164721141379,1.61745632104976,1.73952849622333
1580421696.92128,3.93682764934761,1.31227588311594,1.73952849622333
1580421696.92527,4.42511635004189,0.885023270008332,1.8616006713969
1580421696.92926,4.73029678797593,0.762951094834762,1.98367284657047
1580421696.93325,4.97444113832307,0.762951094834762,2.16678110933094
1580421696.93725,5.03547722590974,0.762951094834762,2.28885328450451
1580421696.94124,5.21858548867021,0.640878919661191,2.41092545967808
1580421696.94523,5.52376592660403,0.640878919661191,2.59403372243833
1580421696.94923,5.52376592660403,0.946059357595232,2.53299763485165
1580421696.95322,5.46272983901736,1.37331197070262,2.41092545967808
1580421696.95721,4.91340505073617,1.55642023346309,2.16678110933094
1580421696.96121,4.11993591210808,1.55642023346309,1.9226367589838
1580421696.9652,3.50957503624022,1.31227588311594,1.49538414587619
1580421696.96919,3.02128633554594,0.885023270008332,1.25123979552905
1580421696.97319,2.96025024795904,0.396734569314049,1.0070954451819
1580421696.97718,3.20439459830618,-0.0305180437933359,0.885023270008332
1580421696.98118,3.63164721141379,-0.213626306553806,0.70191500724809
1580421696.98517,4.05889982452118,-0.335698481727377,0.70191500724809
1580421696.98916,4.42511635004189,-0.152590218966907,0.640878919661191
1580421696.99316,4.54718852521546,0.091554131380235,0.823987182421661
1580421696.99715,4.42511635004189,0.457770656900948,0.946059357595232
1580421697.00114,4.36408026245522,0.823987182421661,1.19020370794237
1580421697.00514,4.36408026245522,1.25123979552905,1.19020370794237
1580421697.00916,4.24200808728165,1.49538414587619,1.37331197070262
1580421697.01315,3.99786373693451,1.61745632104976,1.67849240863666
1580421697.01714,3.87579156176093,1.43434805828952,1.9226367589838
1580421697.02113,3.63164721141379,1.25123979552905,2.04470893415737
1580421697.02513,3.14335851071951,1.25123979552905,2.10574502174404
1580421697.02912,2.65506981002522,1.31227588311594,2.28885328450451
1580421697.03312,2.10574502174404,1.31227588311594,2.04470893415737
1580421697.03711,1.49538414587619,1.19020370794237,1.9226367589838
1580421697.0411,0.70191500724809,0.823987182421661,1.73952849622333
1580421697.0451,0.091554131380235,0.51880674448762,1.55642023346309
1580421697.04909,-0.396734569314049,0.396734569314049,1.43434805828952
1580421697.05308,-0.640878919661191,0.274662394140478,1.37331197070262
1580421697.05708,-0.579842832074519,0.396734569314049,1.19020370794237
1580421697.06107,-0.335698481727377,0.457770656900948,1.0070954451819
1580421697.06506,-0.091554131380235,0.640878919661191,1.0681315327688
1580421697.06906,-0.091554131380235,0.946059357595232,0.946059357595232
1580421697.07305,-0.0305180437933359,1.55642023346309,1.0070954451819
1580421697.07704,0.152590218966907,1.98367284657047,1.12916762035547
1580421697.08104,0.579842832074519,2.47196154726475,1.31227588311594
1580421697.08503,1.12916762035547,2.65506981002522,1.55642023346309
1580421697.08902,1.49538414587619,2.53299763485165,1.8616006713969
1580421697.09301,1.61745632104976,2.7161058976119,2.04470893415737
1580421697.09701,1.43434805828952,2.96025024795904,2.16678110933094
1580421697.101,1.19020370794237,3.08232242313261,2.16678110933094
1580421697.10499,0.640878919661191,3.20439459830618,2.10574502174404
1580421697.10899,0.0305180437933359,2.89921416037237,1.8616006713969
1580421697.11298,-1.0070954451819,2.65506981002522,1.61745632104976
1580421697.11697,-2.10574502174404,2.41092545967808,1.25123979552905
1580421697.12097,-3.14335851071951,1.80056458381023,0.885023270008332
1580421697.12496,-3.69268329900046,1.49538414587619,0.762951094834762
1580421697.12895,-3.87579156176093,1.0681315327688,0.457770656900948
1580421697.13295,-3.93682764934761,0.885023270008332,0.152590218966907
1580421697.13694,-3.93682764934761,1.0070954451819,-0.152590218966907
1580421697.14093,-4.30304417486832,0.885023270008332,-0.51880674448762
1580421697.14493,-4.97444113832307,0.823987182421661,-0.762951094834762
1580421697.14892,-5.58480201419093,0.762951094834762,-1.0070954451819
1580421697.15292,-5.7068741893645,0.70191500724809,-1.25123979552905
1580421697.15691,-5.52376592660403,0.640878919661191,-1.49538414587619
1580421697.1609,-5.09651331349664,0.70191500724809,-1.73952849622333
1580421697.1649,-4.42511635004189,1.0070954451819,-1.9226367589838
1580421697.16888,-3.81475547417404,1.43434805828952,-2.10574502174404
1580421697.17288,-3.14335851071951,1.8616006713969,-1.9226367589838
1580421697.17687,-2.47196154726475,1.80056458381023,-1.73952849622333
1580421697.18086,-1.67849240863666,1.55642023346309,-1.43434805828952
1580421697.18486,-1.19020370794237,1.19020370794237,-0.823987182421661
1580421697.18885,-0.51880674448762,0.396734569314049,-0.152590218966907
1580421697.19284,0.091554131380235,-0.0305180437933359,0.51880674448762
1580421697.19684,0.51880674448762,0.091554131380235,1.12916762035547
1580421697.20083,0.885023270008332,1.0681315327688,1.55642023346309
1580421697.20483,1.31227588311594,1.80056458381023,1.73952849622333
1580421697.20882,1.80056458381023,2.22781719691761,1.80056458381023
1580421697.21281,1.98367284657047,2.28885328450451,1.80056458381023
1580421697.21681,1.9226367589838,1.9226367589838,1.49538414587619
1580421697.2208,1.61745632104976,1.43434805828952,1.12916762035547
1580421697.22479,1.80056458381023,0.640878919661191,0.762951094834762
1580421697.22879,1.8616006713969,-0.152590218966907,0.457770656900948
1580421697.23278,1.9226367589838,-0.579842832074519,0.274662394140478
1580421697.23677,2.10574502174404,-0.823987182421661,0.0305180437933359
1580421697.24077,2.34988937209118,-0.51880674448762,0.152590218966907
1580421697.24476,2.47196154726475,-0.091554131380235,0.0305180437933359
1580421697.24878,2.89921416037237,0.396734569314049,0.152590218966907
1580421697.25277,3.38750286106665,0.885023270008332,0.396734569314049
1580421697.25677,4.05889982452118,1.19020370794237,0.640878919661191
1580421697.26076,4.66926070038903,1.49538414587619,0.823987182421661
1580421697.26475,5.52376592660403,1.67849240863666,1.0070954451819
1580421697.26875,6.19516289005878,1.80056458381023,1.19020370794237
1580421697.27274,6.43930724040592,1.9226367589838,1.12916762035547
1580421697.27673,6.74448767833974,1.98367284657047,1.19020370794237
1580421697.28073,6.37827115281902,1.98367284657047,1.12916762035547
1580421697.28472,5.82894636453807,1.67849240863666,0.946059357595232
1580421697.28871,5.27962157625689,1.55642023346309,0.885023270008332
1580421697.29271,4.8523689631495,1.49538414587619,0.946059357595232
1580421697.2967,4.48615243762879,1.0681315327688,1.25123979552905
1580421697.30069,4.36408026245522,0.762951094834762,1.61745632104976
1580421697.30469,4.05889982452118,0.823987182421661,1.9226367589838
1580421697.30868,3.87579156176093,1.43434805828952,2.28885328450451
1580421697.31267,4.18097199969475,2.22781719691761,2.47196154726475
1580421697.31667,4.66926070038903,3.14335851071951,2.53299763485165
1580421697.32066,5.21858548867021,3.75371938658736,2.47196154726475
1580421697.32466,4.54718852521546,3.81475547417404,2.28885328450451
1580421697.32867,2.89921416037237,3.75371938658736,2.22781719691761
1580421697.33267,0.946059357595232,3.57061112382689,1.98367284657047
1580421697.33666,-0.640878919661191,3.57061112382689,1.9226367589838
1580421697.34065,-1.25123979552905,3.44853894865332,1.8616006713969
1580421697.34465,-1.0681315327688,3.57061112382689,2.04470893415737
1580421697.34864,-1.12916762035547,3.57061112382689,2.22781719691761
1580421697.35263,-0.885023270008332,3.63164721141379,2.34988937209118
1580421697.35663,-1.0070954451819,3.69268329900046,2.28885328450451
1580421697.36062,-0.946059357595232,3.69268329900046,2.04470893415737
1580421697.36462,-0.640878919661191,3.38750286106665,1.73952849622333
1580421697.36861,-0.579842832074519,3.14335851071951,1.49538414587619
1580421697.3726,-0.70191500724809,2.7161058976119,1.25123979552905
1580421697.3766,-1.0681315327688,1.9226367589838,0.885023270008332
1580421697.38059,-1.43434805828952,1.12916762035547,0.640878919661191
1580421697.38458,-1.8616006713969,0.457770656900948,0.640878919661191
1580421697.38858,-2.47196154726475,0.396734569314049,0.762951094834762
1580421697.39257,-2.96025024795904,0.51880674448762,0.885023270008332
1580421697.39656,-3.32646677347975,0.457770656900948,1.12916762035547
1580421697.40056,-3.14335851071951,0.396734569314049,1.49538414587619
1580421697.40455,-2.7161058976119,0.70191500724809,1.98367284657047
1580421697.40854,-2.53299763485165,2.16678110933094,2.65506981002522
1580421697.41253,-2.47196154726475,3.63164721141379,3.38750286106665
1580421697.41652,-1.9226367589838,4.48615243762879,4.30304417486832
1580421697.42052,-1.0681315327688,4.54718852521546,5.09651331349664
1580421697.42451,-0.274662394140478,4.54718852521546,6.01205462729831
1580421697.42851,1.19020370794237,4.18097199969475,6.86655985351331
1580421697.4325,3.08232242313261,3.08232242313261,7.7821011673152
1580421697.43649,4.73029678797593,0.762951094834762,8.51453421835663
1580421697.44049,4.60822461280236,-2.28885328450451,9.00282291905091
1580421697.44448,2.34988937209118,-5.95101853971164,8.94178683146401
1580421697.44847,-1.61745632104976,-10.5287251087204,8.20935378042259
1580421697.45247,-6.86655985351331,-15.8999008163576,6.98863202868688
1580421697.45646,-12.0546272983902,-20.9658960860609,5.34065766384379
1580421697.46045,-16.5102616922254,-24.7501335164416,3.08232242313261
1580421697.46445,-19.9893186846723,-26.8863965819789,0.457770656900948
1580421697.46844,-21.5762569619287,-27.4357213702601,-2.28885328450451
1580421697.47243,-20.1724269474325,-26.5812161440451,-4.97444113832307
1580421697.47643,-15.7167925535973,-24.8111696040282,-6.98863202868688
1580421697.48042,-8.88075074387734,-23.0411230640116,-8.08728160524902
1580421697.48441,-1.55642023346309,-21.759365224689,-8.81971465629044
1580421697.48843,4.30304417486832,-20.7217517357137,-8.75867856870377
1580421697.49243,8.5755703059433,-19.7451743343252,-8.08728160524902
1580421697.49642,10.8949416342411,-18.5854886701761,-7.29381246662092
1580421697.50041,11.6273746852826,-17.1206225680933,-6.37827115281902
1580421697.50441,10.955977721828,-14.923323414969,-5.6458381017776
1580421697.5084,9.06385900663759,-12.4208438239109,-5.03547722590974
1580421697.51239,6.62241550316617,-10.4676890211338,-4.73029678797593
1580421697.51639,4.48615243762879,-8.81971465629044,-4.36408026245522
1580421697.52038,3.20439459830618,-7.35484855420759,-3.99786373693451
1580421697.52437,2.65506981002522,-5.82894636453807,-3.38750286106665
1580421697.52837,2.83817807278547,-4.91340505073617,-2.83817807278547
1580421697.53236,3.20439459830618,-4.30304417486832,-2.22781719691761
1580421697.53636,3.02128633554594,-4.11993591210808,-1.61745632104976
1580421697.54035,2.41092545967808,-4.18097199969475,-1.12916762035547
1580421697.54434,1.43434805828952,-4.48615243762879,-0.640878919661191
1580421697.54834,-0.0305180437933359,-4.42511635004189,-0.396734569314049
1580421697.55233,-1.43434805828952,-4.18097199969475,-0.70191500724809
1580421697.55632,-2.34988937209118,-3.57061112382689,-1.19020370794237
1580421697.56032,-2.47196154726475,-2.65506981002522,-1.8616006713969
1580421697.56431,-1.80056458381023,-1.43434805828952,-2.65506981002522
1580421697.5683,-1.12916762035547,-0.457770656900948,-2.96025024795904
1580421697.57229,-0.274662394140478,0.213626306553806,-3.50957503624022
1580421697.57628,0.51880674448762,0.396734569314049,-3.87579156176093
1580421697.58028,1.25123979552905,0.70191500724809,-4.42511635004189
1580421697.58427,2.16678110933094,1.19020370794237,-4.8523689631495
1580421697.58827,3.50957503624022,1.8616006713969,-5.21858548867021
1580421697.59226,5.15754940108332,2.65506981002522,-5.40169375143046
1580421697.59625,7.11070420386045,3.20439459830618,-5.46272983901736
1580421697.60025,9.12489509422448,3.32646677347975,-5.34065766384379
1580421697.60424,10.7118333714809,3.32646677347975,-5.34065766384379
1580421697.60823,11.9935912108033,3.26543068589308,-5.27962157625689
1580421697.61223,12.7870603494316,2.89921416037237,-5.46272983901736
1580421697.61622,13.3363851377126,2.41092545967808,-5.46272983901736
1580421697.62021,13.7026016632333,1.67849240863666,-5.40169375143046
1580421697.62421,14.068818188754,1.25123979552905,-5.46272983901736
1580421697.6282,14.4350347142747,0.885023270008332,-5.52376592660403
1580421697.63219,14.8012512397954,0.579842832074519,-5.58480201419093
1580421697.63619,14.8622873273823,0.274662394140478,-5.82894636453807
1580421697.64018,14.8622873273823,-0.152590218966907,-6.25619897764545
1580421697.64417,14.6181429770352,-0.70191500724809,-6.98863202868688
1580421697.64816,13.9467460135804,-1.25123979552905,-7.41588464179449
1580421697.65216,12.9701686121919,-2.10574502174404,-8.08728160524902
1580421697.65615,11.9325551232166,-3.32646677347975,-8.39246204318306
1580421697.66014,10.8339055466545,-4.48615243762879,-8.94178683146401
1580421697.66414,9.4911116197452,-5.7068741893645,-9.61318379491877
1580421697.66813,8.14831769283592,-6.86655985351331,-10.3456168459602
1580421697.67212,7.35484855420759,-8.08728160524902,-10.8339055466545
1580421697.67612,7.35484855420759,-9.18593118181116,-11.4442664225223
1580421697.68011,8.02624551766235,-10.2845807583733,-11.7494468604561
1580421697.6841,9.55214770733187,-11.3832303349354,-12.1156633859769
1580421697.6881,11.3832303349354,-12.2987716487373,-12.2987716487373
1580421697.69209,13.3974212252995,-13.1532768749523,-12.6039520866711
1580421697.69608,15.1064316777295,-14.0077821011673,-12.9091325246052
1580421697.70008,16.1440451667047,-15.1674677653161,-13.1532768749523
1580421697.70407,16.632333867399,-16.3881895170518,-13.2753490501259
1580421697.70807,16.8154421301595,-17.3037308308537,-13.2753490501259
1580421697.71206,16.937514305333,-18.341344319829,-13.3363851377126
1580421697.71605,17.2426947432668,-19.3789578088044,-13.5805294880597
1580421697.72005,17.9140917067216,-20.5386434729533,-14.068818188754
1580421697.72404,18.646524757763,-21.8204013122759,-14.373998626688
1580421697.72806,19.0737773708704,-23.2242313267718,-15.0453955901426
1580421697.73205,19.5620660715647,-24.9332417792018,-15.8388647287709
1580421697.73604,20.1724269474325,-26.7643244068054,-16.632333867399
1580421697.74004,20.9658960860609,-28.8395513847561,-17.4258030060273
1580421697.74403,22.3086900129701,-31.1589227130539,-18.2803082322423
1580421697.74802,23.773556115053,-34.1496910048068,-19.1348134584573
1580421697.75202,25.7267109178301,-37.750820172427,-20.050354772259
1580421697.75601,27.191577019913,-42.2064545662624,-21.0269321736475
1580421697.76001,27.8019378957808,-47.6997024490731,-22.4307621881437
1580421697.764,27.0695048447394,-54.1084916456855,-24.0177004654001
1580421697.76799,24.8111696040282,-60.9445334554055,-25.5436026550697
1580421697.77199,21.5152208743418,-68.6350804913404,-27.3746852826732
1580421697.77598,17.792019531548,-76.6308079652094,-29.3278400854504
1580421697.77997,14.0077821011673,-84.3823910887311,-31.2809948882277
1580421697.78397,10.7118333714809,-92.0119020370794,-32.7458609903106
1580421697.78796,8.27038986800949,-98.7869077592127,-33.6003662165256
1580421697.79195,7.17174029144735,-105.134660868238,-33.9055466544596
1580421697.79595,7.66002899214163,-110.81101701381,-33.4172579537653
1580421697.79994,9.4911116197452,-115.693904020752,-32.8679331654841
1580421697.80393,12.0546272983902,-120.149538414588,-32.074464026856
1580421697.80792,14.9843595025559,-124.422064545663,-31.8303196765089
1580421697.81191,17.5478751812009,-129.121843289845,-31.769283588922
1580421697.81591,19.3789578088044,-135.591668574044,-32.1965362020296
1580421697.8199,20.9658960860609,-144.747081712062,-32.928969253071
1580421697.8239,22.6749065384909,-157.381551842527,-33.9665827420463
1580421697.82789,24.2618448157473,-174.41062027924,-34.7600518806746
1580421697.83188,24.8722056916151,-194.979781795987,-35.187304493782
1580421697.83588,23.6514839398794,-215.304798962386,-34.8210879682613
1580421697.83987,20.355535210193,-227.267872129397,-34.3938353551539
1580421697.84386,17.1206225680933,-226.901655603876,-33.6003662165256
1580421697.84786,15.3505760280766,-216.647592889296,-32.3796444647899
1580421697.85185,15.0453955901426,-200.106813153277,-30.2433813992523
1580421697.85584,16.1440451667047,-181.551842526894,-27.2526131074997
1580421697.85984,17.5478751812009,-165.86556801709,-23.2242313267718
1580421697.86383,19.195849546044,-153.475242236972,-18.9517051956968
1580421697.86783,19.9282825970854,-144.075684748608,-15.5947203784237
1580421697.87182,17.9751277943083,-137.544823376822,-13.6415655756466
1580421697.87581,13.0312046997788,-133.699549858854,-13.1532768749523
1580421697.8798,6.43930724040592,-133.272297245747,-14.3129625391011
1580421697.8838,1.37331197070262,-134.309910734722,-16.3881895170518
1580421697.88782,2.16678110933094,-134.615091172656,-18.8296330205233
1580421697.89181,11.810482948043,-133.39436942092,-21.4541847867551
1580421697.8958,29.6330205233844,-131.197070267796,-24.322880903334
1580421697.8998,50.4463263904781,-125.947966735332,-27.3136491950866
1580421697.90379,69.428549629969,-116.914625772488,-29.6940566109711
1580421697.90778,83.4668497749294,-106.355382619974,-30.9758144502937
1580421697.91178,91.0963607232779,-95.7961394674603,-31.0978866254673
1580421697.91577,92.3781185626003,-86.2745098039215,-30.4875257495994
1580421697.91976,87.8004119935913,-77.5463492790111,-29.4499122606239
1580421697.92376,79.3774319066151,-69.8558022430761,-28.2291905088882
1580421697.92775,69.6726939803161,-63.8742656595712,-27.0695048447394
1580421697.93175,59.357595178149,-60.3341725795376,-25.9708552681773
1580421697.93574,49.042496375982,-58.9303425650417,-25.1163500419623
1580421697.93973,38.1170366979475,-58.7472343022812,-23.9566643778132
1580421697.94373,26.7643244068054,-58.6861982146945,-22.9800869764247
1580421697.94772,15.2895399404897,-58.5641260395209,-21.5762569619287
1580421697.95171,4.18097199969475,-58.6861982146945,-20.1724269474325
1580421697.95571,-6.74448767833974,-58.9913786526283,-19.0127412832837
1580421697.9597,-17.6699473563745,-59.357595178149,-17.7309834439611
1580421697.96369,-28.9616235599296,-59.6627756160831,-16.6933699549859
1580421697.96768,-40.4364080262455,-59.7238117036698,-15.9609369039445
1580421697.97167,-51.9722285801481,-59.9069199664302,-15.3505760280766
1580421697.97567,-63.9353017471581,-60.0289921416038,-14.6791790646218
1580421697.97966,-76.0204470893416,-59.9069199664302,-13.8246738384069
1580421697.98366,-88.1055924315251,-59.7848477912567,-13.0922407873654
1580421697.98765,-99.3362325474939,-59.4186312657359,-11.810482948043
1580421697.99164,-109.712367437247,-59.0524147402152,-10.5287251087204
1580421697.99564,-118.989852750439,-58.7472343022812,-9.06385900663759
1580421697.99963,-126.802471961547,-58.3199816891738,-7.53795681696806
1580421698.00362,-133.028152895399,-57.4654764629588,-5.95101853971164
1580421698.00762,-137.422751201648,-56.1226825360495,-4.11993591210808
1580421698.01161,-140.535591668574,-54.7188525215533,-2.59403372243833
1580421698.0156,-142.610818646525,-53.3150225070574,-1.19020370794237
1580421698.0196,-143.892576485847,-51.8501564049745,0.091554131380235
1580421698.02359,-144.441901274128,-50.3242542153048,1.0681315327688
1580421698.02758,-143.770504310674,-48.7983520256353,1.67849240863666
1580421698.03158,-141.634241245136,-46.7841611352712,2.04470893415737
1580421698.03557,-137.850003814755,-44.7699702449074,2.22781719691761
1580421698.03956,-132.539864194705,-42.4505989166096,2.28885328450451
1580421698.04356,-126.070038910506,-39.6429388876174,2.28885328450451
1580421698.04755,-118.623636224918,-36.2859540703441,2.47196154726475
1580421698.05154,-110.749980926223,-32.6848249027239,2.7161058976119
1580421698.05553,-102.021820401312,-28.7174792095825,3.14335851071951
1580421698.05953,-93.2936598764018,-24.628061341268,3.81475547417404
1580421698.06352,-84.6875715266651,-20.5996795605402,4.66926070038903
1580421698.06751,-76.3256275272754,-16.8154421301595,5.7068741893645
1580421698.07151,-67.9636835278859,-13.1532768749523,6.74448767833974
1580421698.0755,-59.357595178149,-9.55214770733187,7.7821011673152
1580421698.07949,-50.6904707408255,-6.19516289005878,8.75867856870377
1580421698.08349,-41.9623102159153,-2.96025024795904,9.73525597009234
1580421698.08748,-33.8445105668727,-0.0305180437933359,10.8339055466545
1580421698.09148,-26.5201800564582,2.53299763485165,11.7494468604561
1580421698.09547,-20.355535210193,4.30304417486832,12.664988174258
1580421698.09946,-14.9843595025559,4.97444113832307,13.3363851377126
1580421698.10345,-9.97940032043948,4.60822461280236,14.068818188754
1580421698.10745,-5.34065766384379,3.93682764934761,14.4350347142747
1580421698.11144,-0.762951094834762,2.34988937209118,14.8012512397954
1580421698.11544,3.99786373693451,0.51880674448762,14.9843595025559
1580421698.11943,8.94178683146401,-1.61745632104976,15.0453955901426
1580421698.12342,14.068818188754,-3.63164721141379,15.228503852903
1580421698.12744,19.3179217212175,-5.52376592660403,15.2895399404897
1580421698.13143,24.2618448157473,-6.80552376592664,15.3505760280766
1580421698.13543,29.0836957351032,-7.66002899214163,15.5336842908368
1580421698.13942,33.7834744792858,-8.20935378042259,15.7167925535973
1580421698.14341,38.4222171358815,-8.39246204318306,16.083009079118
1580421698.14741,43.1830319676508,-8.02624551766235,16.6933699549859
1580421698.1514,47.3334859235522,-7.11070420386045,17.3037308308537
1580421698.1554,50.9346150911724,-5.95101853971164,17.9751277943083
1580421698.15939,53.6812390325777,-4.30304417486832,18.646524757763
1580421698.16338,56.1837186236362,-2.83817807278547,19.0737773708704
1580421698.16738,58.9913786526281,-1.98367284657047,19.501029983978
1580421698.17137,62.4704356450748,-2.16678110933094,19.9282825970854
1580421698.17536,65.9494926375223,-3.26543068589308,19.9893186846723
1580421698.17936,68.5740444037538,-5.6458381017776,19.9282825970854
1580421698.18335,69.6116578927295,-8.5755703059433,19.0127412832837
1580421698.18734,68.7571526665142,-11.3832303349354,18.0361638818952
1580421698.19134,66.7429617761504,-14.2519264515145,16.5712977798123
1580421698.19533,63.8132295719847,-17.1816586556802,14.9843595025559
1580421698.19932,60.2121004043638,-19.8062104219118,13.3974212252995
1580421698.20332,56.1226825360491,-22.0035095750361,11.7494468604561
1580421698.20731,51.6670481422138,-24.0787365529868,10.2845807583733
1580421698.2113,46.8451972228579,-25.3604943923094,9.12489509422448
1580421698.21529,41.2909132524603,-25.6656748302432,7.66002899214163
1580421698.21929,34.5159075303272,-25.2384222171358,6.25619897764545
1580421698.22328,26.337071793698,-24.2618448157473,4.54718852521546
1580421698.22727,17.3037308308537,-22.7359426260775,2.7161058976119
1580421698.23127,8.6366063935302,-20.5996795605402,1.12916762035547
1580421698.23526,1.43434805828952,-18.1582360570687,0.152590218966907
1580421698.23925,-4.30304417486832,-16.2050812542916,-0.274662394140478
1580421698.24325,-9.79629205767901,-14.8012512397954,-0.152590218966907
1580421698.24724,-16.083009079118,-13.6415655756466,0.457770656900948
1580421698.25123,-23.468375677119,-12.4818799114976,1.12916762035547
1580421698.25523,-31.4641031509882,-11.1390859845883,1.73952849622333
1580421698.25922,-38.7884336614025,-9.73525597009234,2.28885328450451
1580421698.26321,-45.1361867704281,-7.96520943007545,2.53299763485165
1580421698.26721,-49.8359655146105,-5.95101853971164,2.83817807278547
1580421698.2712,-52.9488059815367,-4.36408026245522,3.26543068589308
1580421698.27519,-54.5357442587931,-3.26543068589308,3.81475547417404
1580421698.27919,-55.0850690470741,-2.89921416037237,4.66926070038903
1580421698.28318,-55.2681773098345,-3.08232242313261,5.6458381017776
1580421698.28723,-54.5967803463798,-3.57061112382689,6.62241550316617
1580421698.29122,-52.7046616311895,-4.36408026245522,7.47692072938116
1580421698.29522,-48.9814602883955,-5.03547722590974,8.39246204318306
1580421698.29921,-43.6713206683453,-5.52376592660403,9.67421988250544
1580421698.30321,-38.1780727855346,-5.52376592660403,11.3832303349354
1580421698.3072,-32.7458609903106,-4.91340505073617,13.3363851377126
1580421698.31119,-27.8019378957808,-4.48615243762879,16.083009079118
1580421698.31519,-22.4917982757304,-4.54718852521546,19.5620660715647
1580421698.31918,-16.3881895170518,-6.19516289005878,23.468375677119
1580421698.32317,-9.24696726939806,-9.06385900663759,27.2526131074997
1580421698.32717,-0.274662394140478,-13.214312962539,30.5485618371861
1580421698.33116,11.2001220721752,-19.3179217212175,33.6003662165253
1580421698.33515,24.8722056916151,-27.6798657206073,35.8587014572365
1580421698.33915,36.0418097199968,-35.7976653696498,36.8963149462118
1580421698.34314,37.384603646906,-42.328526741436,36.2859540703439
1580421698.34713,23.7125200274661,-47.3945220111391,33.6003662165253
1580421698.35113,-3.63164721141379,-48.5542076752881,28.8395513847561
1580421698.35512,-36.346990157931,-41.9012741283284,22.3697261005568
1580421698.35911,-65.1560234988938,-26.8863965819789,15.5336842908368
1580421698.36311,-83.2227054245823,-7.35484855420759,9.12489509422448
1580421698.36706,-88.6549172198061,11.9325551232166,4.36408026245522
1580421698.37106,-82.8564888990616,27.9240100709544,2.10574502174404
1580421698.37505,-68.8181887541009,38.4222171358815,2.04470893415737
1580421698.37905,-49.9580376897841,44.8920424200808,3.44853894865332
1580421698.38304,-27.9240100709544,49.7138933394367,5.09651331349664
1580421698.38703,-1.98367284657047,55.0850690470738,7.11070420386045
1580421698.39103,29.0836957351032,60.8834973678186,9.67421988250544
1580421698.39502,63.752193484398,66.55985351339,14.1298542763409
1580421698.39901,96.6506446936751,72.7855344472423,21.3931486991683
1580421698.40301,118.928816662852,79.133287556268,31.8303196765087
1580421698.407,122.041657129778,83.2227054245823,43.9154650186922
1580421698.41099,103.120469977875,83.7109941252766,55.0240329594872
1580421698.41499,69.062333104448,81.8799114976732,63.6911573968109
1580421698.41898,33.6003662165253,81.0864423590451,70.0389105058366
1580421698.42297,8.75867856870377,83.4668497749294,75.4711223010609
1580421698.42697,-0.823987182421661,86.3355458915084,80.3540093080037
1580421698.43096,1.61745632104976,88.7159533073932,83.4668497749294
1580421698.43495,9.91836423285258,91.3405050736251,83.2227054245823
1580421698.43895,18.9517051956968,95.3688868543527,79.1943236438547
1580421698.44294,26.1539635309375,99.6414129854279,72.3582818341347
1580421698.44693,29.755092698558,102.143892576486,63.9353017471581
1580421698.45092,30.2433813992523,100.862134737164,54.9629968719005
1580421698.45492,29.6330205233844,95.5519951171132,46.2348363469901
1580421698.45891,29.8161287861446,88.2276646066989,37.8118562600137
1580421698.4629,31.8913557640954,80.476081483177,29.9992370489051
1580421698.4669,34.1496910048065,73.9452201113909,23.0411230640116
1580421698.47089,33.9055466544594,70.2220187685971,17.0595864805066
1580421698.47488,29.6330205233844,70.4051270313576,12.1156633859769
1580421698.47888,22.4917982757304,74.2504005493251,8.51453421835663
1580421698.48287,14.923323414969,80.2319371328299,6.31723506523235
1580421698.48687,9.73525597009234,86.2745098039218,6.13412680247188
1580421698.49086,8.14831769283592,91.4625772487984,7.47692072938116
1580421698.49485,9.91836423285258,95.0026703288322,10.1625085831997
1580421698.49884,14.068818188754,96.9558251316093,13.5805294880597
1580421698.50284,19.3179217212175,97.8713664454108,17.1816586556802
1580421698.50683,23.9566643778132,98.0544747081713,20.1724269474325
1580421698.51083,26.0929274433508,97.3220416571298,22.4917982757304
1580421698.51482,25.1163500419623,96.2844281681546,23.5294117647059
1580421698.51881,22.3086900129701,95.7351033798736,24.0787365529868
1580421698.52281,19.9282825970854,95.7961394674603,24.2008087281604
1580421698.52679,19.3179217212175,96.2233920805679,24.0787365529868
1580421698.53079,20.7217517357137,96.6506446936751,24.1397726405737
1580421698.53478,22.8580148012511,96.6506446936751,24.4449530785075
1580421698.53877,24.2618448157473,96.7727168688489,25.2994583047225
1580421698.54277,24.5059891660944,97.566186007477,26.2149996185244
1580421698.54676,24.3839169909209,98.6648355840393,27.6798657206073
1580421698.55076,24.2618448157473,99.6414129854279,29.3278400854504
1580421698.55475,23.6514839398794,100.74006256199,30.9147783627068
1580421698.55874,22.3086900129701,102.265964751659,32.7458609903103
1580421698.56274,20.4776073853666,104.585336079957,34.2107270923932
1580421698.56673,18.5244525825894,107.209887846189,35.6145571068894
1580421698.57072,17.3037308308537,109.529259174487,36.6521705958646
1580421698.57472,17.1816586556802,111.238269626917,37.2014953841458
1580421698.57871,18.0361638818952,112.458991378653,37.2014953841458
1580421698.5827,19.2568856336309,112.947280079347,36.8963149462118
1580421698.5867,20.1113908598459,113.130388342107,36.4690623331044
1580421698.59069,20.4776073853666,113.008316166934,35.6755931944761
1580421698.59468,19.9893186846723,113.069352254521,34.5769436179139
1580421698.59868,19.3179217212175,112.947280079347,33.4172579537651
1580421698.60267,19.1348134584573,112.520027466239,31.8303196765087
1580421698.60669,18.5854886701761,111.604486152438,30.1213092240787
1580421698.61068,17.7309834439611,109.834439612421,28.2902265964751
1580421698.61468,15.9609369039445,108.125429159991,26.2760357061111
1580421698.61867,13.2753490501259,106.660563057908,23.8956282902266
1580421698.62266,10.3456168459602,105.378805218586,21.0879682612344
1580421698.62666,8.39246204318306,103.974975204089,18.0971999694818
1580421698.63065,8.02624551766235,102.571145189594,15.0453955901426
1580421698.63464,8.5755703059433,101.594567788205,12.359807736324
1580421698.63864,9.67421988250544,100.373846036469,10.1014724956131
1580421698.64263,10.4066529335469,99.3972686350808,8.14831769283592
1580421698.64662,10.5897611963073,98.7869077592127,6.86655985351331
1580421698.65062,10.5287251087204,98.5427634088655,5.88998245212474
1580421698.65461,10.7728694590676,98.6037994964522,5.27962157625689
1580421698.6586,11.5663385976959,98.6037994964522,4.8523689631495
1580421698.6626,13.3974212252995,98.7869077592127,5.03547722590974
1580421698.66659,14.923323414969,99.0310521095598,5.09651331349664
1580421698.67058,16.3881895170518,99.0310521095598,5.09651331349664
1580421698.67458,17.4258030060273,99.2141603723203,4.48615243762879
1580421698.67857,18.646524757763,99.3972686350808,5.03547722590974
1580421698.68257,20.5996795605402,99.7634851606012,4.11993591210808
1580421698.68655,23.4073395895323,99.5803768978408,4.7913328755626
1580421698.69055,26.4591439688716,100.495918211643,6.31723506523235
1580421698.69454,29.9992370489051,101.045242999924,6.43930724040592
1580421698.69853,33.2341496910046,100.862134737164,4.24200808728165
1580421698.70253,35.2483405813687,101.350423437858,3.44853894865332
1580421698.70652,35.9197375448232,102.571145189594,-0.946059357595232
1580421698.71052,34.6990157930875,102.998397802701,1.12916762035547
1580421698.71451,31.2809948882275,105.683985656519,5.27962157625689
1580421698.7185,26.5201800564582,105.378805218586,6.43930724040592
1580421698.72249,21.210040436408,104.585336079957,6.98863202868688
1580421698.72649,15.9609369039445,105.073624780652,7.04966811627378
1580421698.73048,10.5897611963073,105.806057831693,6.98863202868688
1580421698.73448,5.58480201419093,106.294346532387,6.98863202868688
1580421698.73847,1.19020370794237,106.721599145495,7.41588464179449
1580421698.74246,-2.22781719691761,107.209887846189,7.96520943007545
1580421698.74646,-4.73029678797593,107.087815671016,8.94178683146401
1580421698.75045,-6.56137941557949,106.965743495842,10.4066529335469
1580421698.75444,-8.08728160524902,105.806057831693,12.0546272983902
1580421698.75844,-9.79629205767901,104.585336079957,14.0077821011673
1580421698.76243,-12.4818799114976,103.486686503395,15.777828641184
1580421698.76645,-16.5712977798123,102.510109102006,17.5478751812009
1580421698.77044,-22.613870450904,101.350423437858,19.0737773708704
1580421698.77444,-30.1213092240787,100.556954299229,20.2944991226061
1580421698.77843,-37.750820172427,100.190737773709,20.9658960860609
1580421698.78242,-43.6102845807584,100.251773861296,21.3931486991683
1580421698.78642,-46.2958724345769,100.801098649576,21.3931486991683
1580421698.79041,-45.746547646296,101.838712138552,21.210040436408
1580421698.7944,-42.4505989166096,102.815289539941,21.210040436408
1580421698.7984,-37.4456397344932,103.181506065461,21.4541847867551
1580421698.80239,-31.5861753261618,102.815289539941,21.5152208743418
1580421698.80638,-25.7267109178301,100.984206912337,21.5152208743418
1580421698.81038,-21.0269321736475,98.0544747081713,21.1490043488211
1580421698.81437,-17.7309834439611,94.5754177157246,20.5386434729533
1580421698.81836,-15.2895399404897,91.2184328984513,19.6231021591516
1580421698.82236,-12.7870603494316,87.678339818418,18.4634164950025
1580421698.82635,-9.36903944457163,84.1992828259708,17.3647669184404
1580421698.83034,-5.15754940108332,80.4150453955904,16.2661173418783
1580421698.83434,-0.946059357595232,76.3866636148623,15.228503852903
1580421698.83833,3.14335851071951,72.7244983596552,13.8246738384069
1580421698.84232,6.80552376592664,69.3675135423823,12.5429159990845
1580421698.84631,10.1014724956131,66.3157091630428,11.2611581597619
1580421698.85031,13.2753490501259,63.0807965209433,10.4676890211338
1580421698.8543,15.777828641184,59.6627756160829,9.97940032043948
1580421698.85829,17.486839093614,56.0006103608757,9.4911116197452
1580421698.86229,17.9751277943083,52.4605172808419,8.81971465629044
1580421698.86628,17.3647669184404,48.6762798504615,7.72106507972831
1580421698.87027,15.4116121156633,44.6478980697336,6.07309071488521
1580421698.87427,12.5429159990845,40.7415884641794,3.87579156176093
1580421698.87826,9.91836423285258,37.7508201724268,1.49538414587619
1580421698.88225,8.6366063935302,35.1873044937818,-0.70191500724809
1580421698.88625,9.36903944457163,32.7458609903103,-2.65506981002522
1580421698.89024,12.2377355611504,30.1823453116654,-4.05889982452118
1580421698.89423,16.937514305333,27.0084687571525,-4.73029678797593
1580421698.89823,22.8580148012511,22.7969787136644,-5.15754940108332
1580421698.90222,29.0226596475165,18.5854886701761,-5.34065766384379
1580421698.90622,34.5159075303272,15.3505760280766,-5.09651331349664
1580421698.91021,38.6663614862287,13.0312046997788,-4.8523689631495
1580421698.9142,41.1688410772867,11.3221942473488,-4.30304417486832
1580421698.9182,42.6947432669565,8.69764248111687,-3.44853894865332
1580421698.92219,43.7323567559317,4.60822461280236,-2.53299763485165
1580421698.92618,45.075150682841,-1.0070954451819,-1.73952849622333
1580421698.93017,46.1738002594032,-7.17174029144735,-1.37331197070262
1580421698.93417,46.6010528725108,-13.3974212252995,-1.67849240863666
1580421698.93816,46.0517280842296,-19.9893186846723,-2.59403372243833
1580421698.94215,45.6244754711222,-26.7643244068054,-4.30304417486832
1580421698.94614,46.1127641718165,-34.0276188296332,-6.43930724040592
1580421698.95014,47.7607385366596,-40.8636606393532,-8.94178683146401
1580421698.95413,50.6904707408253,-46.9672693980317,-12.0546272983902
1580421698.95813,55.0850690470738,-53.8033112077517,-14.7402151522087
1580421698.96212,60.3341725795376,-63.8132295719845,-16.632333867399
1580421698.96611,64.9118791485466,-76.0814831769283,-18.4634164950025
1580421698.97011,67.5364309147785,-88.2887006942854,-20.4165712977797
1580421698.9741,68.2688639658199,-98.9089799343863,-22.919050888838
1580421698.97809,68.2078278782333,-107.820248722057,-26.2760357061111
1580421698.98209,68.7571526665142,-115.632867933165,-30.7927061875332
1580421698.98608,70.5271992065309,-121.675440604257,-36.346990157931
1580421698.99007,72.6634622720685,-125.764858472572,-42.9999237048905
1580421698.99407,74.7997253376061,-128.328374151217,-50.5683985656519
1580421698.99806,76.9970244907304,-129.97634851606,-58.0148012512398
1580421699.00205,80.3540093080037,-131.624322880903,-65.4612039368276
1580421699.00607,84.8096437018389,-134.737163347829,-72.4193179217211
1580421699.01007,89.0821698329137,-139.436942092012,-78.5839627679866
1580421699.01406,91.9508659494927,-146.334019989319,-83.2837415121689
1580421699.01805,92.9274433508813,-155.550469214923,-86.0303654535744
1580421699.02205,92.8664072632946,-167.025253681239,-86.5796902418554
1580421699.02604,90.9132524605175,-180.392156862745,-84.9927519645989
1580421699.03003,87.9835202563518,-194.369420920119,-81.879911497673
1580421699.03403,85.4200045777065,-205.844205386435,-77.607385366598
1580421699.03802,84.443427176318,-212.497138933394,-72.6634622720683
1580421699.04201,85.0537880521861,-215.304798962386,-66.4988174258031
1580421699.04601,86.7627985046161,-215.182726787213,-59.4796673533226
1580421699.05,90.6691081101703,-214.023041123064,-51.9722285801481
1580421699.05399,95.7961394674603,-212.802319371328,-44.2816815442131
1580421699.05799,100.92317082475,-210.849164568551,-36.1028458075839
1580421699.06198,103.913939116503,-209.323262378882,-27.8629739833675
1580421699.06597,102.998397802701,-209.933623254749,-19.8672465094987
1580421699.06997,97.6882581826508,-212.924391546502,-12.5429159990845
1580421699.07396,89.570458533608,-216.403448538949,-5.46272983901736
1580421699.07796,80.3540093080037,-217.929350728618,1.0070954451819
1580421699.08195,70.771343556878,-215.671015487907,6.31723506523235
1580421699.08594,60.3341725795376,-210.910200656138,10.1014724956131
1580421699.08993,47.5165941863124,-204.745555809872,12.664988174258
1580421699.09392,32.1355001144425,-198.214694438087,14.1908903639276
1580421699.09792,15.4726482032502,-191.866941329061,15.5947203784237
1580421699.10191,0.213626306553806,-186.37369344625,17.0595864805066
1580421699.1059,-11.9325551232166,-181.124589913787,17.792019531548
1580421699.1099,-21.5152208743418,-176.791027695125,17.1206225680933
1580421699.11389,-29.9992370489051,-174.349584191653,15.6557564660104
1580421699.11788,-38.3001449607082,-174.22751201648,13.6415655756466
1580421699.12188,-45.0141145952546,-175.570305943389,12.0546272983902
1580421699.12587,-48.0659189745938,-177.523460746166,11.3832303349354
1580421699.12987,-46.4179446097505,-178.683146410315,12.1766994735638
1580421699.13386,-41.474021515221,-178.500038147555,14.373998626688
1580421699.13785,-35.2483405813689,-177.401388570993,17.3647669184404
1580421699.14185,-29.3888761730373,-175.387197680629,20.5386434729533
1580421699.14584,-24.9332417792018,-173.250934615091,23.0411230640116
1580421699.14983,-21.0879682612344,-171.053635461967,24.4449530785075
1580421699.15383,-17.3647669184404,-168.490119783322,24.2008087281604
1580421699.15782,-13.0312046997788,-165.68245975433,21.9424734874494
1580421699.16181,-8.02624551766235,-162.874799725338,18.2192721446554
1580421699.1658,-2.65506981002522,-160.128175783932,13.214312962539
1580421699.1698,2.96025024795904,-157.381551842527,7.59899290455473
1580421699.17379,8.14831769283592,-154.818036163882,1.98367284657047
1580421699.17778,12.8480964370183,-152.254520485237,-3.69268329900046
1580421699.18178,15.8388647287709,-149.691004806592,-8.45349813076973
1580421699.18577,16.9985503929197,-147.676813916228,-12.2987716487373
1580421699.18976,16.2661173418783,-145.723659113451,-15.6557564660104
1580421699.19376,13.8857099259938,-143.709468223087,-18.1582360570687
1580421699.19775,10.5897611963073,-141.695277332723,-19.6231021591516
1580421699.20174,7.04966811627378,-139.070725566491,-20.355535210193
1580421699.20574,3.32646677347975,-136.385137712673,-20.355535210193
1580421699.20973,-0.823987182421661,-133.333333333333,-19.6841382467383
1580421699.21372,-5.52376592660403,-130.098420691234,-18.7075608453497
1580421699.21772,-11.0780498970016,-126.802471961547,-17.6699473563745
1580421699.22171,-18.1582360570687,-123.628595407034,-16.5102616922254
1580421699.2257,-26.5201800564582,-120.515754940108,-15.2895399404897
1580421699.2297,-35.9807736324103,-116.792553597315,-14.8012512397954
1580421699.23369,-45.9296559090562,-112.275883115892,-14.4960708018616
1580421699.23768,-55.8175020981155,-107.026779583429,-14.3129625391011
1580421699.24168,-65.7053482871747,-101.228351262684,-14.0077821011673
1580421699.2457,-75.2880140383002,-95.1857785915925,-13.6415655756466
1580421699.24969,-84.8096437018387,-89.0821698329137,-12.8480964370183
1580421699.25368,-94.2092011902039,-82.9785610742351,-11.9935912108033
1580421699.25768,-103.852903028916,-77.0580605783168,-10.8949416342411
1580421699.26167,-113.740749217975,-71.4427405203326,-9.67421988250544
1580421699.26566,-123.994811932555,-66.193636987869,-8.45349813076973
1580421699.26966,-134.798199435416,-61.5548943312733,-7.59899290455473
1580421699.27365,-146.395056076905,-57.5265125505455,-6.56137941557949
1580421699.27764,-158.358129243916,-53.8033112077517,-5.46272983901736
1580421699.28164,-170.62638284886,-50.4463263904784,-4.30304417486832
1580421699.28563,-183.016708628977,-47.0893415732053,-2.96025024795904
1580421699.28962,-194.491493095293,-43.8544289311055,-1.0681315327688
1580421699.29362,-204.440375371939,-40.619516289006,1.37331197070262
1580421699.29761,-211.703669794766,-37.3235675593196,4.42511635004189
1580421699.30161,-214.572365911345,-33.6003662165256,8.6366063935302
1580421699.3056,-211.215381094072,-29.1447318226901,13.4584573128861
1580421699.30959,-200.961318379492,-22.5528343633173,18.7075608453497
1580421699.31359,-184.725719081407,-13.1532768749523,23.7125200274661
1580421699.31758,-162.935835812925,-1.19020370794237,27.5577935454337
1580421699.32157,-135.835812924392,13.3974212252995,30.4875257495994
1580421699.32556,-103.303578240635,29.6940566109711,32.1965362020294
1580421699.32956,-65.5222400244145,47.1503776607917,33.0510414282444
1580421699.33355,-23.6514839398794,65.0949874113071,34.3938353551537
1580421699.33754,21.9424734874494,82.3071641107808,36.530098420691
1580421699.34153,70.4051270313576,97.1999694819565,40.0701915007246
1580421699.34553,119.53917753872,108.430609597925,45.1361867704279
1580421699.34952,165.560387579156,114.290074006256,51.3008316166934
1580421699.35352,204.806591897459,114.656290531777,58.2589456015867
1580421699.35751,235.324635690852,111.238269626917,64.9729152361338
1580421699.3615,257.114518959335,106.721599145495,70.8934157320518
1580421699.3655,272.495613031205,101.594567788205,75.3490501258871
1580421699.36949,282.07827878233,93.2936598764022,78.4008545052266
1580421699.37348,282.566567483024,81.8799114976732,80.4150453955904
1580421699.37748,267.307545586328,69.428549629969,81.2695506218051
1580421699.38147,230.197604333562,59.1744869153886,79.3774319066151
1580421699.38546,169.710841535058,51.7891203173876,73.2738231479366
1580421699.38946,90.9132524605175,41.2909132524603,63.752193484398
1580421699.39345,4.91340505073617,23.1021591515982,53.3150225070572
1580421699.39744,-75.7763027389944,1.12916762035547,43.7323567559317
1580421699.40144,-137.911039902342,-20.7827878233004,36.1028458075837
1580421699.40543,-173.067826352331,-38.4222171358817,30.8537422751201
1580421699.40942,-181.124589913787,-48.7983520256353,27.4967574578468
1580421699.41341,-169.710841535058,-50.7515068284124,25.7267109178301
1580421699.41741,-147.24956130312,-44.4037537193867,24.322880903334
1580421699.4214,-119.050888838025,-33.1120775158313,22.6749065384909
1580421699.42539,-88.1055924315251,-22.0035095750361,20.1113908598459
1580421699.42939,-57.8927290760662,-14.4350347142747,16.3271534294652
1580421699.43338,-30.6706340123596,-11.2611581597619,11.6884107728695
1580421699.43737,-8.5755703059433,-12.0546272983902,6.56137941557949
1580421699.44137,7.90417334248878,-17.1816586556802,1.55642023346309
1580421699.44536,18.4023804074159,-26.0318913557639,-2.7771419851988
1580421699.44935,24.0787365529868,-37.0794232089725,-6.68345159075307
1580421699.45335,27.6188296330204,-47.6997024490731,-9.97940032043948
1580421699.45734,31.464103150988,-56.1837186236362,-12.9701686121919
1580421699.46133,35.1262684061951,-61.1886778057526,-16.1440451667047
1580421699.46533,37.8118562600137,-61.921110856794,-19.0127412832837
1580421699.46932,39.5819028000303,-59.2965590905624,-20.2944991226061
1580421699.47332,39.948119325551,-53.0708781567103,-18.7685969329366
1580421699.47731,37.0183871213853,-39.5819028000305,-13.5805294880597
1580421699.4813,24.0787365529868,-19.6841382467383,-5.46272983901736
1580421699.48532,-2.65506981002522,3.75371938658736,5.52376592660403
1580421699.48931,-33.8445105668727,29.3888761730373,19.3789578088044
1580421699.49331,-56.3057907988098,51.5449759670405,35.4924849317158
1580421699.4973,-62.3483634699016,62.592507820249,52.0943007553215
1580421699.50129,-51.9111924925612,60.3341725795376,65.8884565499352
1580421699.50529,-30.1213092240787,50.3852903028915,74.0672922865647
1580421699.50928,-6.01205462729831,42.5726710917829,74.6776531624323
1580421699.51327,9.18593118181116,40.8636606393529,67.4143587396052
1580421699.51727,9.00282291905091,43.366140230411,53.3760585946438
1580421699.52126,-6.43930724040592,47.8217746242465,36.4080262455175
1580421699.52526,-29.0226596475165,53.620202944991,23.4073395895323
1580421699.52925,-47.7607385366598,60.5172808422976,20.355535210193
1580421699.53324,-53.3150225070574,65.9494926375223,26.7643244068054
1580421699.53724,-48.1879911497674,67.7805752651257,36.8352788586251
1580421699.54123,-42.5116350041963,63.5080491340509,45.3192950331882
1580421699.54522,-44.8310063324941,53.620202944991,49.4087129015029
1580421699.54922,-57.7706569008926,41.2298771648736,47.94384679942
1580421699.55321,-78.461890592813,29.6940566109711,40.1922636758982
1580421699.5572,-99.4583047226674,21.210040436408,26.5812161440451
1580421699.5612,-112.642099641413,19.2568856336309,9.24696726939806
1580421699.56518,-112.214847028305,24.1397726405737,-9.06385900663759
1580421699.56918,-95.9182116426339,31.9523918516823,-24.9942778667887
1580421699.57317,-66.8039978637369,38.7273975738153,-37.5066758220798
1580421699.57717,-30.3044174868389,42.9388876173036,-46.0517280842298
1580421699.58116,6.25619897764545,45.3803311207751,-50.5073624780653
1580421699.58515,34.4548714427403,48.0659189745934,-50.9956511787595
1580421699.58915,49.5918211642634,53.4370946822305,-48.4931715877012
1580421699.59314,53.8033112077514,62.3483634699014,-43.6102845807584
1580421699.59713,53.4370946822305,73.8841840238042,-37.5677119096667
1580421699.60113,55.2071412222476,86.2134737163351,-29.9382009613182
1580421699.60512,61.3717860685128,98.2986190585184,-20.1113908598459
1580421699.60911,70.588235294118,108.735790035859,-7.47692072938116
1580421699.61311,78.4008545052266,115.938048371099,7.47692072938116
1580421699.6171,79.0722514686809,118.806744487678,23.7125200274661
1580421699.62109,69.428549629969,118.196383611811,39.948119325551
1580421699.62509,53.1319142442967,115.877012283513,53.9253833829248
1580421699.62908,36.8963149462118,112.947280079347,64.4846265354395
1580421699.63307,26.0929274433508,110.99412527657,70.9544518196385
1580421699.63707,20.8438239108873,110.627908751049,73.8231479362175
1580421699.64106,19.1348134584573,111.787594415198,73.4569314106966
1580421699.64508,18.7685969329366,113.313496604868,70.771343556878
1580421699.64907,18.5854886701761,114.839398794537,66.4377813382166
1580421699.65307,16.5102616922254,116.182192721446,61.249713893339
1580421699.65706,11.4442664225223,116.670481422141,55.9395742732891
1580421699.66105,4.11993591210808,116.487373159381,50.8735790035857
1580421699.66505,-2.96025024795904,116.060120546273,46.1127641718165
1580421699.66904,-7.66002899214163,116.792553597315,41.4129854276339
1580421699.67303,-8.88075074387734,118.745708400092,36.7132066834515
1580421699.67703,-6.62241550316617,122.041657129778,31.7082475013351
1580421699.68102,-2.41092545967808,126.070038910506,27.1305409323261
1580421699.68501,2.59403372243833,130.037384603647,22.6749065384909
1580421699.68901,7.17174029144735,133.638513771267,18.7685969329366
1580421699.693,11.2611581597619,136.202029449912,15.4726482032502
1580421699.697,14.4960708018616,138.216220340276,13.0922407873654
1580421699.70099,17.3037308308537,139.864194705119,11.505302510109
1580421699.70498,20.1113908598459,141.878385595483,11.0170138094147
1580421699.70898,23.1021591515982,143.892576485847,11.6884107728695
1580421699.71297,26.337071793698,145.784695201038,13.0922407873654
1580421699.71696,29.4499122606239,147.615777828641,14.8622873273823
1580421699.72096,31.9523918516823,149.507896543832,17.2426947432668
1580421699.72494,33.7224383916989,151.583123521782,20.050354772259
1580421699.72894,35.1262684061951,152.925917448692,23.0411230640116
1580421699.73293,35.6145571068894,153.475242236972,25.7267109178301
1580421699.73692,35.0652323186082,153.536278324559,27.7409018081939
1580421699.74092,33.5393301289387,153.231097886625,28.900587472343
1580421699.74491,31.2199588006408,153.292133974212,27.9850461585411
1580421699.74891,29.2057679102768,153.109025711452,18.0971999694818
1580421699.7529,28.6564431219958,150.972762645914,0.0305180437933359
1580421699.75689,30.3654535744258,147.615777828641,-18.8296330205233
1580421699.76089,25.1163500419623,156.893263141832,8.75867856870377
1580421699.76488,18.646524757763,162.874799725338,16.5712977798123
1580421699.76887,14.1298542763409,151.461051346609,18.2803082322423
1580421699.77287,12.359807736324,149.813076981765,19.0737773708704
1580421699.77686,11.6884107728695,153.231097886625,18.7075608453497
1580421699.78085,10.955977721828,154.573891813535,18.1582360570687
1580421699.78485,9.97940032043948,152.803845273518,16.5102616922254
1580421699.78884,7.96520943007545,149.691004806592,14.7402151522087
1580421699.79283,5.76791027695117,146.944380865186,12.5429159990845
1580421699.79683,4.66926070038903,144.136720836194,10.8339055466545
1580421699.80082,5.95101853971164,141.390096894789,9.06385900663759
1580421699.80481,9.4911116197452,138.155184252689,7.41588464179449
1580421699.8088,14.1298542763409,135.530632486458,6.68345159075307
1580421699.8128,18.7685969329366,134.554055085069,6.43930724040592
1580421699.81679,22.064545662623,135.347524223697,6.92759594110021
1580421699.82078,23.6514839398794,137.666895551995,8.02624551766235
1580421699.82478,23.8956282902266,141.268024719615,9.85732814526591
1580421699.82877,23.0411230640116,145.601586938277,11.9935912108033
1580421699.83276,21.6983291371023,149.629968719005,14.4960708018616
1580421699.83676,20.5996795605402,152.376592660411,17.3647669184404
1580421699.84075,19.7451743343252,152.559700923171,20.7217517357137
1580421699.84474,19.0127412832837,149.935149156939,24.3839169909209
1580421699.84874,17.0595864805066,145.418478675517,27.8629739833675
1580421699.85273,13.3363851377126,141.390096894789,30.7927061875332
1580421699.85672,8.5755703059433,137.483787289235,32.9900053406575
1580421699.86072,4.42511635004189,132.967116807813,34.4548714427403
1580421699.86471,2.22781719691761,127.412832837415,35.6145571068894
1580421699.86871,4.05889982452118,121.492332341497,36.1028458075837
1580421699.8727,9.79629205767901,115.571831845579,35.7366292820629
1580421699.87669,18.0971999694818,109.590295262074,34.3327992675668
1580421699.88069,26.0929274433508,103.608758678569,31.7692835889218
1580421699.88473,31.0978866254673,97.6272220950636,28.2291905088882
1580421699.88873,32.6237888151368,91.2184328984513,24.3839169909209
1580421699.89272,32.0744640268558,84.443427176318,20.2334630350194
1580421699.89671,31.5861753261615,77.6684214541851,16.2050812542916
1580421699.90071,32.1355001144425,71.6258487830933,12.359807736324
1580421699.9047,33.7224383916989,66.55985351339,9.24696726939806
1580421699.9087,35.4314488441289,62.2262912947276,6.98863202868688
1580421699.91269,37.5066758220796,57.7706569008924,5.58480201419093
1580421699.91668,39.1546501869229,52.7046616311891,5.34065766384379
1580421699.92068,40.3143358510717,47.2724498359653,5.95101853971164
1580421699.92467,40.4974441138322,42.2064545662622,7.11070420386045
1580421699.92866,40.1922636758982,37.3235675593194,8.39246204318306
1580421699.93266,40.3143358510717,32.3796444647896,9.36903944457163
1580421699.93665,41.4129854276339,27.5577935454337,9.4300755321583
1580421699.94064,43.0609597924772,22.9800869764247,8.81971465629044
1580421699.94464,45.4413672083617,18.7685969329366,7.23277637903402
1580421699.94863,47.8828107118331,15.2895399404897,5.03547722590974
1580421699.95262,50.0801098649576,12.0546272983902,2.53299763485165
1580421699.95662,51.8501564049743,9.18593118181116,-0.274662394140478
1580421699.96061,53.07087815671,5.88998245212474,-3.20439459830618
1580421699.9646,53.5591668574043,2.16678110933094,-6.01205462729831
1580421699.96859,54.5357442587929,-1.19020370794237,-8.69764248111687
1580421699.97259,55.3902494850076,-3.81475547417404,-10.7728694590676
1580421699.97658,55.8175020981153,-7.7821011673152,-12.4208438239109
1580421699.98057,56.1837186236362,-13.5805294880597,-13.3974212252995
1580421699.98457,56.4278629739833,-20.1113908598459,-14.3129625391011
1580421699.98856,57.0992599374376,-26.1539635309375,-15.1064316777295
1580421699.99255,59.0524147402148,-32.4406805523768,-16.632333867399
1580421699.99655,62.8976882581828,-39.8870832379646,-18.7075608453497
1580421700.00054,68.2688639658199,-48.6762798504617,-21.8204013122759
1580421700.00453,74.3724727244985,-58.1979095140002,-25.8487830930037
1580421700.00853,78.8891432059208,-68.0857557030595,-30.7927061875332
1580421700.01252,78.4008545052266,-77.5463492790111,-35.7976653696498
1580421700.01652,72.9686427100023,-85.6031128404668,-39.8260471503777
1580421700.02051,63.8132295719847,-95.6130312046998,-42.3895628290227
1580421700.0245,51.4229037918667,-107.209887846189,-43.8544289311055
1580421700.02849,36.2859540703439,-117.097734035248,-45.2582589456017
1580421700.03249,21.0879682612344,-123.689631494621,-47.2724498359655
1580421700.03648,9.24696726939806,-129.304951552605,-49.8970016021974
1580421700.04048,1.9226367589838,-134.676127260243,-53.1319142442969
1580421700.04446,-2.59403372243833,-139.314869916838,-56.3668268863967
1580421700.04846,-5.34065766384379,-144.380865186542,-59.9679560540169
1580421700.05245,-6.92759594110021,-150.179293507286,-64.1184100099183
1580421700.05644,-7.17174029144735,-155.855649652857,-68.6961165789273
1580421700.06044,-5.52376592660403,-160.921644922561,-73.3958953231097
1580421700.06443,-0.946059357595232,-165.68245975433,-77.7294575417716
1580421700.06842,8.33142595559616,-169.893949797818,-81.0864423590447
1580421700.07242,22.3086900129701,-173.189898527505,-82.7954528114747
1580421700.07641,38.8494697489889,-177.096208133059,-81.879911497673
1580421700.0804,56.0616464484624,-180.697337300679,-78.3398184176394
1580421700.0844,73.5790035858704,-181.673914702068,-72.4193179217211
1580421700.08839,90.6691081101703,-181.185626001373,-64.8508430609597
1580421700.09239,104.890516517891,-182.528419928283,-55.146105134661
1580421700.09638,110.872053101396,-183.504997329671,-43.9765011062791
1580421700.10037,104.219119554436,-185.091935606928,-32.1965362020296
1580421700.10437,82.0630197604337,-186.800946059358,-20.6607156481268
1580421700.10836,46.1127641718165,-188.998245212482,-10.5287251087204
1580421700.11235,2.10574502174404,-193.698023956664,-2.41092545967808
1580421700.11635,-41.9012741283284,-201.57167925536,2.53299763485165
1580421700.12034,-78.6449988555732,-210.177767605097,4.36408026245522
1580421700.12436,-102.815289539941,-216.708628976882,3.81475547417404
1580421700.12835,-112.214847028305,-219.333180743115,2.04470893415737
1580421700.13235,-108.613717860685,-219.089036392767,0.579842832074519
1580421700.13634,-97.016861219196,-217.807278553445,-0.274662394140478
1580421700.14033,-83.5278858625161,-216.220340276188,-1.31227588311594
1580421700.14433,-72.6024261844816,-214.206149385824,-3.26543068589308
1580421700.14832,-64.9729152361333,-210.543984130617,-6.25619897764545
1580421700.15231,-58.5641260395209,-205.35591668574,-9.91836423285258
1580421700.15631,-50.8125429159991,-199.679560540169,-13.8246738384069
1580421700.1603,-40.8026245517663,-195.345998321508,-17.6699473563745
1580421700.16429,-28.7174792095825,-192.416266117342,-20.4165712977797
1580421700.16829,-14.923323414969,-190.096894789044,-21.4541847867551
1580421700.17228,-0.091554131380235,-187.228198672465,-20.4165712977797
1580421700.17627,14.6181429770352,-183.321889066911,-17.3647669184404
1580421700.18027,27.6188296330204,-178.866254673075,-12.9701686121919
1580421700.18426,37.384603646906,-174.41062027924,-7.35484855420759
1580421700.18825,43.1830319676508,-170.62638284886,-1.43434805828952
1580421700.19225,45.7465476462958,-167.818722819867,4.48615243762879
1580421700.19624,46.8451972228579,-165.68245975433,9.85732814526591
1580421700.20023,48.1879911497672,-164.15655756466,14.0077821011673
1580421700.20422,50.6904707408253,-162.325474937057,17.1816586556802
1580421700.20822,54.5967803463795,-160.250247959106,19.195849546044
1580421700.21221,60.0289921416033,-158.419165331502,19.8062104219118
1580421700.2162,65.6443121995881,-156.710154879072,19.2568856336309
1580421700.2202,71.137560082399,-155.001144426642,17.3647669184404
1580421700.22419,76.1425192645152,-153.536278324559,14.5571068894483
1580421700.22818,80.3540093080037,-152.071412222477,11.2611581597619
1580421700.23218,83.8330663004504,-150.240329594873,8.14831769283592
1580421700.23617,86.2745098039218,-148.165102616922,4.97444113832307
1580421700.24016,87.4341954680708,-146.211947814145,2.53299763485165
1580421700.24416,86.8238345922027,-144.075684748608,0.640878919661191
1580421700.24815,84.1992828259708,-142.183566033417,-1.0681315327688
1580421700.25214,79.3774319066151,-140.4135194934,-2.04470893415737
1580421700.25614,72.1141374837875,-138.70450904097,-2.47196154726475
1580421700.26013,62.7756160830095,-136.568245975433,-2.7771419851988
1580421700.26413,51.4839398794534,-133.638513771267,-3.08232242313261
1580421700.26812,38.3611810482946,-129.915312428473,-3.44853894865332
1580421700.27211,23.5904478522925,-125.703822384985,-3.75371938658736
1580421700.27611,7.66002899214163,-120.943007553216,-4.11993591210808
1580421700.2801,-9.18593118181116,-115.571831845579,-4.66926070038903
1580421700.28409,-26.5201800564582,-109.773403524834,-5.27962157625689
1580421700.28808,-44.2206454566262,-103.486686503395,-5.88998245212474
1580421700.29207,-61.921110856794,-97.3220416571298,-6.5003433279926
1580421700.29607,-79.5605401693751,-90.7911802853437,-7.11070420386045
1580421700.30006,-97.1999694819563,-84.443427176318,-7.84313725490188
1580421700.30405,-114.900434882124,-78.461890592813,-8.6366063935302
1580421700.30805,-132.295719844358,-73.029678797589,-9.55214770733187
1580421700.31204,-149.691004806592,-68.2688639658197,-10.7118333714809
1580421700.31604,-167.330434119173,-64.7287708857862,-11.7494468604561
1580421700.32003,-184.66468299382,-62.1652552071412,-12.4208438239109
1580421700.32402,-201.144426642252,-60.0900282291905,-12.8480964370183
1580421700.32802,-215.60997940032,-58.0758373388267,-12.7260242618447
1580421700.33201,-227.084763866636,-55.4512855725948,-12.2987716487373
1580421700.336,-234.775310902571,-51.728084229801,-11.0780498970016
1580421700.34,-237.399862668803,-47.0283054856184,-9.18593118181116
1580421700.34399,-234.22598611429,-41.2909132524605,-6.68345159075307
1580421700.34798,-224.460212100405,-34.332799267567,-4.11993591210808
1580421700.35198,-207.919432364385,-25.6046387426566,-1.19020370794237
1580421700.35597,-185.275043869688,-15.228503852903,2.41092545967808
1580421700.35996,-157.747768368048,-2.83817807278547,7.04966811627378
1580421700.36398,-127.046616311894,11.1390859845883,12.6039520866711
1580421700.36798,-95.002670328832,26.5812161440451,18.4023804074159
1580421700.37197,-62.8366521705959,42.6337071793696,23.5294117647059
1580421700.37596,-31.2199588006408,57.8927290760662,28.4122987716487
1580421700.37996,0.70191500724809,70.0389105058366,32.8679331654839
1580421700.38395,32.9289692530708,76.9359884031437,37.5066758220796
1580421700.38794,63.6911573968109,78.2177462424661,42.7557793545432
1580421700.39194,91.3405050736251,74.3114366369118,48.0659189745934
1580421700.39593,114.778362706951,67.4143587396052,53.0098420691234
1580421700.39992,133.455405508507,61.066605630579,56.7330434119172
1580421700.40392,148.104066529335,55.6954299229419,59.0524147402148
1580421700.40791,158.480201419089,50.1411459525443,60.1510643167771
1580421700.4119,161.898222323949,44.5868619821467,60.7003891050581
1580421700.4159,154.451819638361,42.0233463035017,61.4938582436862
1580421700.41989,133.39436942092,45.1361867704279,62.7756160830095
1580421700.42388,98.4206912336922,53.0098420691234,64.2404821850923
1580421700.42788,53.6812390325777,62.5314717326623,65.461203936828
1580421700.43187,5.27962157625689,69.2454413672085,65.8274204623485
1580421700.43587,-39.2767223620967,68.3909361409937,65.0949874113071
1580421700.43986,-75.1049057755397,61.4938582436862,63.5080491340509
1580421700.44385,-98.9700160219732,50.7515068284119,62.4093995574881
1580421700.44784,-109.040970473793,37.2014953841458,62.6535439078357
1580421700.45183,-106.660563057908,22.4917982757304,63.5690852216376
1580421700.45583,-95.857175555047,9.24696726939806,63.8742656595714
1580421700.45982,-82.0019836728466,1.12916762035547,62.1042191195543
1580421700.46381,-68.9402609292745,-0.579842832074519,57.4044403753719
1580421700.46781,-57.5265125505455,2.65506981002522,49.8359655146105
1580421700.4718,-47.6997024490731,6.92759594110021,40.8636606393529
1580421700.4758,-39.8260471503777,8.81971465629044,31.0978866254673
1580421700.47979,-33.1120775158313,5.6458381017776,20.6607156481268
1580421700.48378,-26.5812161440451,-2.41092545967808,10.1625085831997
1580421700.48778,-20.5996795605402,-13.214312962539,-0.091554131380235
1580421700.49177,-16.3271534294652,-25.0553139543754,-9.91836423285258
1580421700.49576,-14.6181429770352,-38.4832532234684,-19.3789578088044
1580421700.49976,-15.777828641184,-54.1695277332724,-28.1681544213016
1580421700.50375,-18.1582360570687,-71.5037766079195,-36.2859540703441
1580421700.50774,-20.6607156481268,-91.7677576867322,-42.4505989166096
1580421700.51174,-19.8062104219118,-114.656290531777,-45.3803311207753
1580421700.51573,-15.8388647287709,-131.074998092622,-44.2816815442131
1580421700.51972,-10.7728694590676,-131.990539406424,-40.314335851072
1580421700.52374,-5.09651331349664,-114.77836270695,-35.0652323186084
1580421700.52774,3.20439459830618,-81.0864423590447,-29.4499122606239
1580421700.53173,15.5336842908368,-38.2391088731213,-23.1631952391851
1580421700.53572,31.7692835889218,5.82894636453807,-14.7402151522087
1580421700.53972,52.9488059815362,46.0517280842296,-2.28885328450451
1580421700.54371,78.2787823300528,78.0346379797056,14.7402151522087
1580421700.5477,101.289387350271,101.289387350271,34.5159075303272
1580421700.5517,117.83016708629,111.543450064851,55.5733577477681
1580421700.55569,127.534905012589,107.820248722057,77.7294575417718
1580421700.55968,129.7932402533,93.0495155260551,99.3362325474936
1580421700.56368,118.379491874571,71.9920653086137,116.731517509728
1580421700.56767,83.2837415121694,51.4839398794534,123.689631494621
1580421700.57166,25.0553139543754,37.0794232089722,114.961470969711
1580421700.57566,-39.5819028000305,31.3420309758144,93.2936598764022
1580421700.57965,-91.6456855115587,33.7224383916989,70.0389105058366
1580421700.58364,-122.713054093233,43.4271763179979,53.4981307698176
1580421700.58764,-133.699549858854,52.2774090180819,44.9530785076674
1580421700.59163,-131.929503318837,50.0190737773705,41.7181658655679
1580421700.59563,-125.703822384985,39.948119325551,38.6663614862287
1580421700.59962,-121.61440451667,30.1823453116654,32.5627527275501
1580421700.60361,-125.886930647745,22.3086900129701,23.3463035019454
1580421700.6076,-140.169375143053,15.4726482032502,11.7494468604561
1580421700.61159,-157.686732280461,11.505302510109,-1.25123979552905
1580421700.61559,-169.10048065919,13.7026016632333,-14.4960708018616
1580421700.61958,-167.818722819867,21.4541847867551,-26.5201800564582
1580421700.62357,-152.498664835584,31.8303196765087,-36.1638818951706
1580421700.62757,-123.14030670634,41.4740215152208,-43.5492484931717
1580421700.63156,-81.6357671473259,48.8593881132219,-48.7983520256353
1580421700.63556,-32.3186083772032,54.4747081712062,-51.6670481422141
1580421700.63955,16.083009079118,59.9679560540167,-52.2774090180819
1580421700.64354,54.9019607843134,67.2312504768447,-51.1177233539331
1580421700.64753,80.2319371328299,77.2411688410775,-49.164568551156
1580421700.65153,94.4533455405508,88.8990615701537,-46.7231250476846
1580421700.65552,102.021820401312,101.289387350271,-43.7933928435189
1580421700.65952,106.782635233082,113.313496604868,-38.9715419241627
1580421700.66351,109.407186999314,123.323414969101,-30.9758144502937
1580421700.6675,106.721599145495,128.633554589151,-18.7685969329366
1580421700.6715,93.9040207522698,128.145265888456,-1.61745632104976
1580421700.67549,70.4661631189442,122.896162355993,18.8296330205233
1580421700.67948,41.5350576028075,115.877012283513,38.6663614862287
1580421700.68347,14.0077821011673,110.444800488289,53.6812390325777
1580421700.68746,-7.41588464179449,108.247501335165,63.0197604333566
1580421700.69146,-21.6372930495154,108.064393072404,68.2688639658199
1580421700.69545,-30.4875257495994,108.491645685512,70.771343556878
1580421700.69945,-35.3704127565425,108.674753948272,71.137560082399
1580421700.70344,-37.5677119096667,108.369573510338,69.5506218051423
1580421700.70743,-38.7884336614025,108.674753948272,66.8650339513238
1580421700.71143,-39.3377584496834,109.956511787595,63.752193484398
1580421700.71542,-38.605325398642,112.153810940719,61.1886778057524
1580421700.71941,-35.5535210193027,115.205615320058,58.8693064774548
1580421700.72341,-29.6330205233844,118.684672312505,56.3668268863962
1580421700.7274,-21.8814373998625,122.590981918059,52.8267338063629
1580421700.73139,-12.359807736324,126.680399786374,48.3710994125277
1580421700.73539,-1.9226367589838,130.647745479515,42.8778515297167
1580421700.73938,8.6366063935302,134.126802471962,37.1404592965589
1580421700.74337,19.195849546044,136.934462500953,31.2199588006408
1580421700.74737,28.5343709468223,139.253833829252,25.6656748302432
1580421700.75136,36.4690623331044,140.779736018921,20.8438239108873
1580421700.75535,42.6947432669565,141.817349507896,16.937514305333
1580421700.75935,47.5776302738993,142.793926909285,13.7636377508202
1580421700.76337,51.4229037918667,143.526359960326,12.0546272983902
1580421700.76736,54.5967803463795,143.770504310673,11.505302510109
1580421700.77135,57.2213321126114,143.892576485847,12.0546272983902
1580421700.77535,58.9913786526281,144.502937361715,13.3363851377126
1580421700.77934,59.5407034409091,145.235370412756,15.228503852903
1580421700.78333,59.6017395284962,146.456092164492,12.9701686121919
1580421700.78733,59.2355230029752,147.554741741054,10.7118333714809
1580421700.79132,62.6535439078357,148.836499580377,-18.2803082322423
1580421700.79531,62.8366521705962,146.578164339666,-11.0170138094147
1580421700.79931,56.5499351491567,161.532005798428,16.2050812542916
1580421700.8033,53.8033112077514,163.546196688792,24.8111696040282
1580421700.80729,52.3994811932553,156.099794003204,30.1823453116654
1580421700.81129,51.8501564049743,156.954299229419,31.0368505378804
1580421700.81528,52.2774090180819,159.334706645304,30.4875257495994
1580421700.81927,52.8267338063629,161.654077973602,28.1071183337147
1580421700.82327,52.7046616311891,162.020294499122,27.0084687571525
1580421700.82726,50.8125429159991,162.081330586709,26.0318913557639
1580421700.83126,48.0048828870067,159.456778820478,24.2618448157473
1580421700.83525,44.3427176317996,154.879072251469,22.064545662623
1580421700.83924,39.948119325551,150.972762645914,20.1113908598459
1580421700.84323,34.3327992675668,147.06645304036,18.0361638818952
1580421700.84722,28.2291905088882,143.343251697566,16.3881895170518
1580421700.85122,22.3697261005568,139.742122529946,15.0453955901426
1580421700.85521,17.6089112687876,136.263065537499,14.1908903639276
1580421700.85921,14.8622873273823,133.699549858854,13.6415655756466
1580421700.8632,13.7026016632333,132.112611581598,13.3363851377126
1580421700.86719,14.4960708018616,130.769817654688,13.4584573128861
1580421700.87118,16.7544060425726,129.610131990539,13.7636377508202
1580421700.87518,19.7451743343252,129.243915465019,13.9467460135804
1580421700.87917,23.5904478522925,129.671168078126,14.1298542763409
1580421700.88317,28.2291905088882,130.952925917449,14.4960708018616
1580421700.88716,33.6614023041122,132.173647669184,15.0453955901426
1580421700.89115,38.3001449607079,132.845044632639,15.777828641184
1580421700.89515,40.802624551766,132.784008545052,16.6933699549859
1580421700.89914,40.2532997634851,132.112611581598,18.0361638818952
1580421700.90313,37.6287479972532,131.258106355383,19.4399938963911
1580421700.90713,33.6003662165253,129.732204165713,20.8438239108873
1580421700.91112,29.5719844357975,126.985580224308,22.064545662623
1580421700.91511,25.2994583047225,123.323414969101,23.0411230640116
1580421700.91911,21.210040436408,118.623636224918,23.4073395895323
1580421700.92309,17.6699473563745,114.351110093843,23.5904478522925
1580421700.92709,15.5947203784237,110.872053101396,23.3463035019454
1580421700.93108,16.2661173418783,107.454032196536,22.6749065384909
1580421700.93508,19.8672465094987,103.852903028916,21.759365224689
1580421700.93907,25.5436026550697,100.129701686122,20.5996795605402
1580421700.94306,31.7082475013351,96.4065003433279,19.0737773708704
1580421700.94706,36.4690623331044,92.7443350881208,17.3037308308537
1580421700.95105,39.5208667124436,89.021133745327,14.9843595025559
1580421700.95504,41.5960936903944,85.2979324025332,12.359807736324
1580421700.95904,43.9154650186922,81.1474784466318,9.4300755321583
1580421700.96303,46.2958724345767,76.8749523155566,6.56137941557949
1580421700.96702,47.089341573205,71.8699931334404,3.81475547417404
1580421700.97102,44.5258258945601,66.1326009002823,1.73952849622333
1580421700.97501,37.6897840848401,59.90691996643,0.70191500724809
1580421700.979,27.6188296330204,53.2539864194705,0.70191500724809
1580421700.983,16.8154421301595,46.784161135271,1.67849240863666
1580421700.98699,7.41588464179449,41.2298771648736,3.14335851071951
1580421700.99098,1.67849240863666,36.4080262455175,4.36408026245522
1580421700.99498,0.457770656900948,32.3796444647896,4.7913328755626
1580421700.99897,3.02128633554594,28.7174792095825,4.30304417486832
1580421701.00299,7.90417334248878,25.7267109178301,3.38750286106665
1580421701.00698,13.8857099259938,22.1255817502097,2.28885328450451
1580421701.01098,20.355535210193,16.632333867399,1.55642023346309
1580421701.01497,27.191577019913,9.4300755321583,0.823987182421661
1580421701.01896,34.5769436179139,2.41092545967808,-0.274662394140478
1580421701.02296,42.4505989166094,-3.32646677347975,-1.73952849622333
1580421701.02695,50.3852903028915,-7.72106507972831,-4.05889982452118
1580421701.03094,56.9771877622643,-12.0546272983902,-6.86655985351331
1580421701.03494,61.9211108567938,-17.6089112687876,-9.79629205767901
1580421701.03893,64.85084306096,-24.2008087281604,-12.6039520866711
1580421701.04292,66.9260700389109,-31.1589227130539,-14.923323414969
1580421701.04692,69.6116578927295,-39.2767223620967,-16.6933699549859
1580421701.05091,72.9686427100023,-49.3476768139162,-18.5854886701761
1580421701.05491,75.9594110017551,-60.8224612802319,-20.7217517357137
1580421701.0589,76.5087357900361,-72.5413900968947,-23.7125200274661
1580421701.06289,74.3114366369118,-82.9175249866482,-27.0084687571525
1580421701.06689,70.2220187685971,-92.5612268253603,-30.1213092240787
1580421701.07088,65.461203936828,-103.913939116503,-32.8068970778975
1580421701.07487,59.9679560540167,-116.609445334554,-35.3704127565425
1580421701.07887,53.620202944991,-128.633554589151,-38.3001449607082
1580421701.08285,47.089341573205,-139.803158617533,-41.4129854276341
1580421701.08685,42.0843823910886,-149.385824368658,-45.0141145952546
1580421701.09084,40.0701915007246,-155.61150530251,-49.1035324635691
1580421701.09484,40.1922636758982,-158.541237506676,-53.7422751201648
1580421701.09883,41.1688410772867,-161.715114061189,-58.3810177767605
1580421701.10282,42.7557793545432,-167.269398031586,-62.5314717326619
1580421701.10682,45.7465476462958,-176.180666819257,-66.3157091630426
1580421701.11081,49.2256046387424,-186.251621271077,-69.8558022430761
1580421701.1148,51.36186770428,-194.73563744564,-73.0907148851759
1580421701.1188,51.9722285801477,-200.289921416037,-76.3256275272754
1580421701.12279,52.5215533684291,-203.952086671244,-78.6449988555732
1580421701.12678,54.4136720836191,-207.186999313344,-78.2787823300525
1580421701.13078,58.8693064774548,-211.459525444419,-74.4335088120852
1580421701.13477,68.3299000534066,-215.2437628748,-66.9260700389104
1580421701.13876,84.5654993514918,-213.656824597543,-56.6720073243305
1580421701.14276,106.843671320668,-204.440375371939,-44.2206454566262
1580421701.14675,131.50225070573,-190.768291752499,-30.7316700999465
1580421701.15074,151.827267872129,-178.622110322728,-15.8388647287709
1580421701.15474,160.982681010147,-169.893949797818,0.457770656900948
1580421701.15873,156.160830090791,-164.888990615702,17.8530556191347
1580421701.16272,140.108339055466,-164.034485389487,34.5159075303272
1580421701.16671,115.877012283513,-166.720073243305,48.2490272373539
1580421701.17071,85.1758602273594,-171.725032425422,57.5875486381319
1580421701.1747,51.2397955291062,-179.049362935836,62.0431830319676
1580421701.17869,18.5244525825894,-189.97482261387,61.7380025940333
1580421701.18269,-10.1014724956131,-202.548256656748,56.8551155870905
1580421701.18668,-32.8068970778975,-213.90096894789,48.0048828870067
1580421701.19067,-49.8359655146105,-221.347371633478,37.0794232089722
1580421701.19467,-62.8366521705959,-223.666742961776,25.6656748302432
1580421701.19866,-72.9686427100023,-221.835660334173,16.0219729915311
1580421701.20265,-81.2085145342182,-218.417639429312,9.55214770733187
1580421701.20665,-87.861448081178,-214.816510261692,6.37827115281902
1580421701.21064,-92.6222629129472,-211.398489356832,5.21858548867021
1580421701.21463,-94.3923094529641,-208.285648889906,5.7068741893645
1580421701.21863,-92.0729381246661,-205.233844510567,6.62241550316617
1580421701.22262,-86.152437628748,-201.75478751812,7.29381246662092
1580421701.22662,-78.461890592813,-197.848477912566,7.84313725490188
1580421701.23061,-72.480354009308,-194.491493095293,7.35484855420759
1580421701.2346,-69.8558022430761,-191.50072480354,6.31723506523235
1580421701.2386,-70.7103074692911,-188.815136949722,4.7913328755626
1580421701.24261,-73.2127870603495,-186.434729533837,2.83817807278547
1580421701.24661,-75.7152666514075,-184.176394293126,1.0070954451819
1580421701.2506,-77.2411688410773,-181.612878614481,-0.640878919661191
1580421701.2546,-77.0580605783168,-178.561074235142,-2.28885328450451
1580421701.25859,-74.738689250019,-175.020981155108,-3.93682764934761
1580421701.26258,-70.9544518196383,-171.17570763714,-5.40169375143046
1580421701.26657,-65.2170595864804,-167.513542381933,-7.17174029144735
1580421701.27057,-58.3199816891738,-164.034485389487,-9.00282291905091
1580421701.27456,-49.9580376897841,-161.043717097734,-10.8339055466545
1580421701.27856,-41.0467689021134,-158.236057068742,-12.4818799114976
1580421701.28255,-31.7082475013353,-156.099794003204,-13.5805294880597
1580421701.28654,-22.5528343633173,-154.146639200427,-14.1298542763409
1580421701.29054,-13.8246738384069,-151.888303959716,-13.9467460135804
1580421701.29453,-5.6458381017776,-149.019607843137,-13.1532768749523
1580421701.29852,1.80056458381023,-145.479514763104,-11.9325551232166
1580421701.30252,8.08728160524902,-141.451132982376,-10.5287251087204
1580421701.30651,13.2753490501259,-137.056534676127,-9.06385900663759
1580421701.3105,16.9985503929197,-132.234683756771,-7.47692072938116
1580421701.3145,19.3789578088044,-127.168688487068,-6.13412680247188
1580421701.31849,20.5386434729533,-121.675440604257,-4.7913328755626
1580421701.32248,20.8438239108873,-115.999084458686,-3.69268329900046
1580421701.32647,19.9893186846723,-109.65133134966,-2.41092545967808
1580421701.33047,18.4634164950025,-102.510109102007,-1.37331197070262
1580421701.33446,16.2661173418783,-94.9416342412453,-0.213626306553806
1580421701.33845,13.3974212252995,-87.1290150301365,0.946059357595232
1580421701.34245,9.4911116197452,-79.1943236438544,2.04470893415737
1580421701.34644,4.36408026245522,-71.3817044327459,3.08232242313261
1580421701.35043,-2.10574502174404,-63.1418326085297,4.18097199969475
1580421701.35443,-10.4676890211338,-54.9629968719005,5.34065766384379
1580421701.35842,-20.7217517357137,-46.7841611352712,6.37827115281902
1580421701.36241,-32.5017166399634,-39.0325780117496,6.92759594110021
1580421701.36641,-45.746547646296,-32.0134279392691,7.29381246662092
1580421701.3704,-60.3952086671245,-25.6046387426566,6.86655985351331
1580421701.37439,-76.0204470893416,-20.5386434729533,5.82894636453807
1580421701.37839,-92.3781185626001,-16.6933699549859,4.54718852521546
1580421701.38238,-108.674753948272,-14.1908903639276,3.32646677347975
1580421701.38637,-124.971389333944,-12.5429159990845,2.22781719691761
1580421701.39037,-140.962844281682,-10.8949416342411,1.19020370794237
1580421701.39436,-156.527046616312,-9.4300755321583,0.396734569314049
1580421701.39836,-172.51850156405,-7.47692072938116,0.274662394140478
1580421701.40237,-188.509956511788,-4.7913328755626,0.885023270008332
1580421701.40637,-203.402761882963,-1.37331197070262,1.67849240863666
1580421701.41036,-214.206149385824,2.47196154726475,1.73952849622333
1580421701.41435,-216.891737239643,6.86655985351331,1.0070954451819
1580421701.41835,-208.285648889906,12.4818799114976,-0.152590218966907
1580421701.42234,-186.984054322118,20.8438239108873,-0.70191500724809
1580421701.42633,-153.536278324559,32.6848249027237,0.274662394140478
1580421701.43033,-109.163042648966,47.3945220111389,2.53299763485165
1580421701.43432,-56.4278629739833,63.752193484398,5.52376592660403
1580421701.43831,1.37331197070262,79.6215762569623,9.67421988250544
1580421701.44231,60.2121004043638,92.8053711757079,15.1064316777295
1580421701.4463,113.984893568322,99.9465934233617,22.4307621881437
1580421701.4503,156.832227054246,98.8479438467994,32.1355001144425
1580421701.45429,185.885404745556,90.1197833218894,43.2440680552374
1580421701.45828,204.318303196765,75.3490501258871,54.9019607843134
1580421701.46228,220.431830319676,57.5875486381319,65.0339513237204
1580421701.46627,240.939955748836,42.5726710917829,71.8699931334404
1580421701.47026,264.560921644922,34.6990157930875,74.555580987259
1580421701.47426,278.355077439536,38.7273975738153,72.846570534829
1580421701.47825,262.973983367666,49.5918211642634,66.8650339513238
1580421701.48224,187.167162584878,49.8970016021972,62.2873273823147
1580421701.48623,50.9956511787591,28.2291905088882,62.9587243457695
1580421701.49022,-91.1573968108644,1.55642023346309,68.0247196154728
1580421701.49422,-192.782482642863,-10.8339055466545,73.8841840238042
1580421701.49821,-239.719233997101,-14.3129625391011,77.9736018921189
1580421701.50221,-242.465857938506,-21.2710765239947,79.4995040817885
1580421701.5062,-218.966964217594,-28.4733348592354,79.4384679942018
1580421701.51019,-187.106126497292,-27.8019378957808,79.5605401693751
1580421701.51419,-155.367360952163,-15.8999008163576,79.4384679942018
1580421701.51818,-122.529945830472,3.50957503624022,77.7294575417718
1580421701.52217,-85.4810406652932,25.1773861295489,73.2738231479366
1580421701.52617,-47.6386663614862,43.6102845807582,65.7053482871752
1580421701.53016,-15.8999008163576,53.0098420691234,55.2071412222476
1580421701.53415,4.18097199969475,49.1645685511558,42.9388876173036
1580421701.53815,12.9701686121919,34.1496910048065,29.6940566109711
1580421701.54214,16.4492256046387,13.6415655756466,16.632333867399
1580421701.54613,20.7217517357137,-8.20935378042259,5.21858548867021
1580421701.55013,27.9850461585411,-30.4264896620125,-3.63164721141379
1580421701.55412,37.6287479972532,-57.8316929884795,-8.81971465629044
1580421701.55812,44.4037537193865,-85.5420767528801,-9.73525597009234
1580421701.5621,44.0985732814524,-108.369573510338,-8.51453421835663
1580421701.5661,35.0041962310215,-118.867780575265,-9.24696726939806
1580421701.57009,11.2611581597619,-114.656290531777,-14.6791790646218
1580421701.57408,-29.1447318226901,-102.204928664073,-23.4073395895323
1580421701.57808,-80.8422980086975,-70.1609826810102,-29.8771648737315
1580421701.58207,-121.858548867018,-17.9751277943083,-30.609597924773
1580421701.58606,-125.947966735332,36.9573510337987,-27.0084687571525
1580421701.59006,-81.879911497673,76.5697718776228,-19.3179217212175
1580421701.59405,-0.579842832074519,93.4767681391622,-5.03547722590974
1580421701.59804,92.0119020370794,90.1197833218894,21.0879682612344
1580421701.60204,160.677500572213,70.8934157320518,62.3483634699014
1580421701.60603,168.429083695735,48.493171587701,108.003356984817
1580421701.61002,100.007629510948,33.7834744792858,138.277256427863
1580421701.61402,-15.5947203784237,26.6422522316318,137.850003814755
1580421701.61801,-113.679713130388,22.064545662623,109.956511787595
1580421701.62201,-147.127489127947,23.5294117647059,74.4945448996723
1580421701.626,-122.224765392538,30.7316700999465,49.5918211642634
1580421701.62999,-72.7244983596552,44.7699702449072,36.8963149462118
1580421701.63399,-25.5436026550697,58.0758373388262,35.0041962310215
1580421701.63798,-12.4208438239109,51.36186770428,38.239108873121
1580421701.642,-32.623788815137,32.5627527275501,36.5911345082779
1580421701.64599,-53.0098420691234,23.5294117647059,25.2994583047225
1580421701.64998,-62.6535439078355,26.4591439688716,5.82894636453807
1580421701.65398,-66.9871061264973,30.9147783627068,-14.6181429770352
1580421701.65797,-71.5648126955061,30.4875257495994,-31.0978866254673
1580421701.66196,-77.7294575417716,24.7501335164416,-43.0609597924774
1580421701.66596,-85.2368963149461,19.2568856336309,-52.8877698939498
1580421701.66995,-91.2184328984511,16.4492256046387,-61.1886778057526
1580421701.67395,-90.9742885481039,16.632333867399,-67.4143587396047
1580421701.67794,-82.1240558480201,20.7827878233004,-69.4285496299688
1580421701.68193,-64.2404821850919,29.0226596475165,-66.0105287251088
1580421701.68593,-40.4364080262455,40.6805523765925,-57.5875486381324
1580421701.68992,-14.8622873273823,54.0474555580986,-46.0517280842298
1580421701.69391,9.18593118181116,68.5740444037538,-33.2951857785918
1580421701.69791,30.9758144502937,85.3589684901199,-20.2334630350194
1580421701.7019,51.2397955291062,103.547722590982,-7.66002899214163
1580421701.70589,69.428549629969,119.356069275959,4.60822461280236
1580421701.70989,82.0019836728466,128.816662851911,16.8154421301595
1580421701.71388,83.2227054245823,130.098420691234,28.6564431219958
1580421701.71788,70.1609826810104,124.361028458076,39.3377584496832
1580421701.72186,45.6855115587089,115.388723582818,48.1879911497672
1580421701.72586,17.1206225680933,106.843671320668,54.1084916456853
1580421701.72985,-7.41588464179449,101.472495613031,57.4044403753719
1580421701.73384,-23.9566643778132,100.007629510948,58.3199816891733
1580421701.73784,-32.5017166399634,100.312809948882,57.5265125505452
1580421701.74183,-35.187304493782,99.9465934233617,55.329213397421
1580421701.74582,-35.1262684061953,98.6648355840393,52.0332646677348
1580421701.74982,-35.3093766689556,97.2610055695432,48.1269550621805
1580421701.75381,-36.5911345082782,96.7727168688489,44.7699702449072
1580421701.7578,-36.896314946212,98.0544747081713,41.7181658655679
1580421701.7618,-34.6990157930877,101.411459525445,38.8494697489889
1580421701.76579,-29.4499122606239,106.172274357214,36.2249179827572
1580421701.76978,-21.2710765239947,112.153810940719,33.7834744792858
1580421701.77378,-11.2001220721752,118.684672312505,31.7692835889218
1580421701.77777,-0.457770656900948,125.337605859464,29.755092698558
1580421701.78176,9.67421988250544,131.197070267796,28.046082246128
1580421701.78576,18.0361638818952,135.408560311284,26.3981078812847
1580421701.78975,23.8956282902266,137.911039902342,24.7501335164416
1580421701.79375,27.5577935454337,139.009689478904,23.1631952391851
1580421701.79774,29.8161287861446,139.559014267185,21.6372930495154
1580421701.80173,31.7692835889218,139.620050354772,20.2334630350194
1580421701.80572,34.6379797055008,139.375906004425,19.0737773708704
1580421701.80971,38.9105058365758,139.253833829252,18.4634164950025
1580421701.81371,44.6478980697336,139.253833829252,18.2803082322423
1580421701.8177,51.7280842298005,139.559014267185,15.4726482032502
1580421701.82169,59.4796673533224,139.009689478904,11.9935912108033
1580421701.82569,69.5506218051423,141.695277332723,-14.923323414969
1580421701.82968,79.4384679942018,135.835812924392,-27.4967574578468
1580421701.83367,76.6918440527966,149.874113069352,6.43930724040592
1580421701.83767,74.2504005493251,157.442587930113,17.8530556191347
1580421701.84166,70.6492713817047,148.531319142443,24.7501335164416
1580421701.84566,67.5974670023652,146.761272602426,27.2526131074997
1580421701.84965,64.9118791485466,148.897535667963,27.8629739833675
1580421701.85364,62.7145799954224,150.057221332112,27.0084687571525
1580421701.85764,61.066605630579,149.874113069352,25.6046387426566
1580421701.86163,59.6017395284962,150.118257419699,24.8111696040282
1580421701.86562,58.5030899519338,149.935149156939,23.9566643778132
1580421701.86962,57.8316929884791,149.202716105898,22.7969787136644
1580421701.87361,57.4044403753719,149.446860456245,21.4541847867551
1580421701.8776,56.7330434119172,150.423437857633,20.355535210193
1580421701.88162,55.8785381857019,151.094834821088,19.2568856336309
1580421701.88561,54.2305638208591,151.033798733501,17.9751277943083
1580421701.88961,51.36186770428,150.240329594873,16.3881895170518
1580421701.8936,47.1503776607917,148.836499580377,14.6181429770352
1580421701.8976,42.2064545662622,147.188525215533,12.7870603494316
1580421701.90159,37.2014953841458,145.601586938277,10.955977721828
1580421701.90558,32.5017166399632,144.686045624475,9.55214770733187
1580421701.90958,28.7174792095825,144.136720836194,8.51453421835663
1580421701.91357,25.9708552681773,143.526359960326,8.51453421835663
1580421701.91756,24.2618448157473,142.549782558938,9.12489509422448
1580421701.92156,22.9800869764247,142.000457770657,10.2845807583733
1580421701.92555,22.1866178377966,141.695277332723,11.7494468604561
1580421701.92954,21.8204013122759,141.512169069963,13.5805294880597
1580421701.93354,21.6372930495154,141.390096894789,15.5947203784237
1580421701.93753,21.5152208743418,140.352483405813,17.3037308308537
1580421701.94152,21.3931486991683,138.33829251545,18.646524757763
1580421701.94552,21.2710765239947,135.469596398871,19.3789578088044
1580421701.94951,21.3931486991683,131.563286793316,19.7451743343252
1580421701.95351,21.6983291371023,127.290760662242,19.2568856336309
1580421701.9575,21.759365224689,122.041657129778,18.1582360570687
1580421701.96149,21.5152208743418,116.609445334554,16.5102616922254
1580421701.96548,20.5386434729533,110.872053101396,14.4960708018616
1580421701.96947,19.0737773708704,105.622949568933,12.2987716487373
1580421701.97347,17.3647669184404,101.411459525445,9.85732814526591
1580421701.97746,15.777828641184,98.3596551461051,7.53795681696806
1580421701.98145,14.7402151522087,95.857175555047,5.7068741893645
1580421701.98545,15.2895399404897,93.3546959639889,3.87579156176093
1580421701.98944,17.1816586556802,90.5470359349965,2.28885328450451
1580421701.99343,20.1113908598459,87.0679789425499,1.0070954451819
1580421701.99743,23.4073395895323,83.7109941252766,-0.70191500724809
1580421702.00142,26.7643244068054,79.9877927824828,-2.10574502174404
1580421702.00541,29.6330205233844,75.6542305638209,-3.32646677347975
1580421702.00941,31.9523918516823,71.3206683451594,-4.11993591210808
1580421702.0134,33.0510414282444,67.0481422140842,-4.24200808728165
1580421702.0174,33.0510414282444,62.592507820249,-3.75371938658736
1580421702.02139,32.0744640268558,58.0148012512395,-3.08232242313261
1580421702.02538,30.4875257495994,54.0474555580986,-1.98367284657047
1580421702.02938,29.3888761730373,50.4463263904781,-0.70191500724809
1580421702.03337,29.6330205233844,46.6010528725108,0.762951094834762
1580421702.03736,31.1589227130539,42.6337071793696,2.04470893415737
1580421702.04135,33.1120775158311,38.9715419241625,3.02128633554594
1580421702.04534,34.9431601434346,35.3093766689553,3.20439459830618
1580421702.04934,37.1404592965589,31.1589227130539,3.14335851071951
1580421702.05333,39.8260471503775,27.2526131074997,2.65506981002522
1580421702.05732,42.0843823910886,23.7125200274661,1.98367284657047
1580421702.06132,43.9154650186922,19.6841382467383,1.43434805828952
1580421702.06531,46.2348363469901,14.2519264515145,1.19020370794237
1580421702.06931,49.8359655146105,7.35484855420759,1.0681315327688
1580421702.0733,55.1461051346605,-0.091554131380235,0.640878919661191
1580421702.07729,61.9211108567938,-7.29381246662092,-0.274662394140478
1580421702.08129,68.0247196154728,-14.5571068894483,-1.8616006713969
1580421702.08528,71.8699931334404,-22.5528343633173,-3.81475547417404
1580421702.08927,72.9076066224156,-29.9382009613182,-6.19516289005878
1580421702.09327,71.8699931334404,-37.0183871213856,-8.81971465629044
1580421702.09726,69.3064774547952,-44.037537193866,-11.2611581597619
1580421702.10125,67.170214389258,-51.1177233539331,-13.0312046997788
1580421702.10525,66.2546730754561,-57.8927290760662,-13.7636377508202
1580421702.10924,65.7053482871752,-64.6066987106126,-13.8857099259938
1580421702.11323,64.1184100099185,-73.2738231479361,-12.9701686121919
1580421702.11723,60.3952086671243,-84.6875715266651,-11.4442664225223
1580421702.12125,54.5357442587929,-97.6272220950639,-10.0404364080262
1580421702.12524,47.2114137483786,-110.261692225528,-9.91836423285258
1580421702.12923,39.1546501869229,-121.370260166323,-11.810482948043
1580421702.13323,31.1589227130539,-128.694590676738,-16.0219729915311
1580421702.13722,24.7501335164416,-132.295719844358,-21.759365224689
1580421702.14121,22.613870450904,-133.455405508507,-28.7174792095825
1580421702.14521,24.2008087281604,-136.507209887846,-36.5300984206913
1580421702.1492,27.8629739833675,-141.512169069963,-44.9530785076677
1580421702.15319,31.7692835889218,-148.287174792096,-53.4981307698176
1580421702.15719,35.3093766689553,-155.916685740444,-62.6535439078355
1580421702.16118,39.1546501869229,-164.461738002594,-71.5648126955061
1580421702.16517,44.8920424200808,-173.495078965438,-80.1098649576561
1580421702.16917,50.9956511787591,-180.697337300679,-87.4952315556573
1580421702.17316,58.1368734264133,-186.434729533837,-91.8898298619058
1580421702.17716,67.5364309147785,-191.927977416648,-92.5001907377737
1580421702.18115,77.2411688410775,-195.956359197375,-89.3873502708475
1580421702.18514,85.5420767528803,-198.092622262913,-82.9785610742351
1580421702.18914,91.279468986038,-200.839246204318,-74.2504005493247
1580421702.19313,93.1105516136417,-203.341725795377,-63.9353017471581
1580421702.19712,90.180819409476,-201.022354467079,-52.8877698939498
1580421702.20111,85.1758602273594,-192.660410467689,-41.3519493400474
1580421702.2051,83.2837415121694,-180.270084687572,-29.5719844357975
1580421702.2091,86.5796902418556,-167.147325856413,-17.1206225680933
1580421702.21309,93.5378042267494,-154.818036163882,-2.96025024795904
1580421702.21708,99.7024490730146,-143.770504310674,12.7870603494316
1580421702.22108,100.312809948882,-136.202029449912,28.4122987716487
1580421702.22507,92.3170824750136,-133.516441596094,41.0467689021132
1580421702.22906,76.0814831769285,-135.28648813611,49.1035324635691
1580421702.23306,54.3526359960324,-140.169375143053,52.6436255436024
1580421702.23705,29.9992370489051,-147.188525215534,52.2774090180819
1580421702.24105,4.05889982452118,-154.879072251469,49.2256046387424
1580421702.24504,-23.4073395895323,-162.44754711223,44.5258258945601
1580421702.24903,-51.1177233539331,-168.490119783322,38.6663614862287
1580421702.25303,-76.5087357900359,-172.88471808957,32.5627527275501
1580421702.25702,-97.3220416571298,-175.387197680629,26.337071793698
1580421702.26101,-112.88624399176,-175.570305943389,20.6607156481268
1580421702.26501,-122.835126268406,-173.861295490959,15.3505760280766
1580421702.269,-128.694590676738,-170.931563286793,10.4676890211338
1580421702.27299,-131.197070267796,-168.001831082628,5.76791027695117
1580421702.27699,-131.563286793317,-165.621423666743,1.55642023346309
1580421702.281,-130.830853742275,-163.729304951553,-2.34988937209118
1580421702.285,-129.732204165713,-162.325474937057,-5.88998245212474
1580421702.28899,-128.938735027085,-161.348897535668,-8.81971465629044
1580421702.29299,-128.328374151217,-161.287861448081,-11.2001220721752
1580421702.29698,-127.779049362936,-161.959258411536,-13.3974212252995
1580421702.30097,-127.779049362936,-162.691691462577,-15.3505760280766
1580421702.30497,-128.26733806363,-162.752727550164,-17.1206225680933
1580421702.30896,-128.206301976043,-161.776150148776,-18.4023804074159
1580421702.31295,-126.802471961547,-159.945067521172,-19.4399938963911
1580421702.31695,-123.201342793927,-156.771190966659,-19.9893186846723
1580421702.32094,-116.670481422141,-153.536278324559,-20.2944991226061
1580421702.32493,-108.186465247578,-149.874113069352,-20.050354772259
1580421702.32893,-97.6882581826505,-146.150911726558,-19.9893186846723
1580421702.33292,-85.8472571908139,-143.160143434806,-19.4399938963911
1580421702.33692,-73.029678797589,-140.23041123064,-18.8296330205233
1580421702.34091,-59.6627756160831,-137.483787289235,-17.8530556191347
1580421702.3449,-46.0517280842298,-134.981307698177,-16.5712977798123
1580421702.34889,-32.2575722896163,-132.845044632639,-15.228503852903
1580421702.35289,-19.2568856336309,-130.403601129168,-13.2753490501259
1580421702.35688,-7.53795681696806,-127.473868925002,-11.3832303349354
1580421702.3609,2.47196154726475,-123.933775844968,-9.06385900663759
1580421702.36489,10.4676890211338,-119.90539406424,-6.62241550316617
1580421702.36889,16.632333867399,-115.571831845579,-4.30304417486832
1580421702.37288,21.2710765239947,-110.566872663462,-2.10574502174404
1580421702.37687,24.322880903334,-105.378805218586,-0.152590218966907
1580421702.38087,26.2760357061111,-100.434882124056,1.25123979552905
1580421702.38486,27.4357213702601,-95.1857785915925,2.22781719691761
1580421702.38885,27.6188296330204,-89.9366750591287,2.83817807278547
1580421702.39285,27.3746852826732,-84.6875715266651,3.14335851071951
1580421702.39684,26.5201800564582,-79.4995040817882,3.14335851071951
1580421702.40084,25.482566567483,-74.189364461738,2.7771419851988
1580421702.40483,24.1397726405737,-69.1233691920347,2.10574502174404
1580421702.40882,22.5528343633173,-64.0573739223316,1.49538414587619
1580421702.41282,20.8438239108873,-58.8693064774548,0.396734569314049
1580421702.41681,18.7075608453497,-54.0474555580988,-0.51880674448762
1580421702.4208,15.7167925535973,-49.2866407263296,-1.8616006713969
1580421702.4248,11.3832303349354,-44.2816815442131,-3.32646677347975
1580421702.42879,5.6458381017776,-39.0325780117496,-5.15754940108332
1580421702.43278,-1.37331197070262,-34.0886549172199,-7.17174029144735
1580421702.43678,-9.4911116197452,-29.8161287861446,-9.12489509422448
1580421702.44076,-18.2803082322423,-26.337071793698,-11.2611581597619
1580421702.44476,-27.2526131074997,-23.2852674143587,-13.1532768749523
1580421702.44875,-35.9197375448234,-20.7827878233004,-14.8622873273823
1580421702.45275,-44.6478980697339,-18.9517051956968,-15.8388647287709
1580421702.45674,-52.582589456016,-17.486839093614,-16.0219729915311
1580421702.46073,-59.9069199664302,-15.9609369039445,-15.5947203784237
1580421702.46473,-66.1326009002823,-14.1908903639276,-13.7636377508202
1580421702.46872,-70.6492713817045,-11.6884107728695,-10.7728694590676
1580421702.47271,-73.2127870603495,-8.14831769283592,-6.68345159075307
1580421702.47671,-73.5179674982833,-3.44853894865332,-1.73952849622333
1580421702.4807,-71.5648126955061,2.7161058976119,4.05889982452118
1580421702.48469,-67.7805752651254,10.2845807583733,10.4676890211338
1580421702.48869,-63.0807965209431,18.4634164950025,16.6933699549859
1580421702.49268,-58.9303425650417,26.6422522316318,21.9424734874494
1580421702.49667,-56.8551155870909,35.0041962310215,25.4215304798961
1580421702.50067,-58.503089951934,43.8544289311053,27.5577935454337
1580421702.50466,-63.2639047837033,52.9488059815362,29.1447318226901
1580421702.50865,-68.5740444037538,61.5548943312733,30.9147783627068
1580421702.51265,-70.4051270313573,69.428549629969,33.2341496910046
1580421702.51664,-63.5080491340505,76.9970244907304,36.4080262455175
1580421702.52066,-44.9530785076677,83.2227054245823,40.0091554131379
1580421702.52465,-14.3129625391011,87.1290150301365,44.4037537193865
1580421702.52865,26.3981078812847,87.1900511177237,50.0801098649576
1580421702.53264,72.6634622720685,82.7954528114751,56.7330434119172
1580421702.53663,118.806744487678,73.3958953231099,63.752193484398
1580421702.54063,158.480201419089,61.4328221560995,70.2830548561838
1580421702.54462,188.998245212482,48.3710994125277,74.4945448996723
1580421702.54861,210.666056305791,33.7224383916989,75.6542305638209
1580421702.55261,221.835660334173,18.646524757763,73.1517509727628
1580421702.5566,213.290608072023,7.53795681696806,68.1467917906466
1580421702.5606,163.9734493019,-0.823987182421661,63.5080491340509
1580421702.56459,65.7663843747619,-13.6415655756466,61.0055695429919
1580421702.56858,-48.9204242008088,-30.3044174868389,61.4938582436862
1580421702.57258,-137.117570763714,-38.6663614862289,64.85084306096
1580421702.57657,-181.673914702068,-35.0652323186084,69.2454413672085
1580421702.58056,-188.937209124895,-27.3136491950866,71.9310292210271
1580421702.58456,-175.448233768215,-21.2710765239947,71.6868848706799
1580421702.58855,-154.329747463187,-15.4116121156633,69.1233691920352
1580421702.59254,-133.455405508507,-8.75867856870377,65.4001678492409
1580421702.59654,-113.435568780041,-2.47196154726475,60.8834973678186
1580421702.60052,-92.1950102998396,3.20439459830618,55.0850690470738
1580421702.60452,-68.2688639658197,7.41588464179449,47.3334859235522
1580421702.60851,-44.1596093690396,9.79629205767901,37.6287479972532
1580421702.6125,-24.2008087281604,9.73525597009234,27.191577019913
1580421702.6165,-10.7728694590676,7.17174029144735,17.2426947432668
1580421702.62049,-3.08232242313261,1.98367284657047,8.94178683146401
1580421702.62449,1.43434805828952,-5.03547722590974,3.02128633554594
1580421702.62848,4.97444113832307,-13.5805294880597,-0.213626306553806
1580421702.63247,8.69764248111687,-22.2476539253832,-1.61745632104976
1580421702.63647,12.7260242618447,-29.5109483482108,-1.61745632104976
1580421702.64046,17.6699473563745,-35.6755931944763,-0.640878919661191
1580421702.64445,23.4073395895323,-40.1312275883117,1.25123979552905
1580421702.64845,30.1823453116654,-42.9388876173039,4.8523689631495
1580421702.65244,37.6287479972532,-43.8544289311055,9.91836423285258
1580421702.65643,45.3192950331882,-41.2909132524605,16.8154421301595
1580421702.66043,51.36186770428,-34.6990157930877,24.4449530785075
1580421702.66442,56.3668268863962,-27.1305409323261,31.1589227130539
1580421702.66841,60.1510643167771,-21.210040436408,35.6755931944761
1580421702.67241,59.4186312657357,-17.486839093614,37.0183871213853
1580421702.6764,54.77988860914,-17.6089112687876,34.8210879682611
1580421702.68039,49.7749294270234,-18.5854886701761,29.2668039978637
1580421702.68438,46.1738002594032,-15.0453955901426,21.1490043488211
1580421702.68838,43.3051041428243,-3.50957503624022,12.4818799114976
1580421702.69237,40.2532997634851,12.6039520866711,6.13412680247188
1580421702.69636,38.3001449607079,27.4357213702601,5.09651331349664
1580421702.70036,35.9197375448232,35.8587014572365,9.91836423285258
1580421702.70435,29.2668039978637,36.1638818951703,19.9893186846723
1580421702.70834,14.8012512397954,29.8771648737315,32.0744640268558
1580421702.71234,-10.1014724956131,20.1724269474325,40.6805523765925
1580421702.71633,-42.3895628290227,10.7118333714809,40.8636606393529
1580421702.72032,-74.3114366369116,4.73029678797593,32.0134279392689
1580421702.72432,-97.9934386205846,4.66926070038903,19.3179217212175
1580421702.72831,-111.116197451743,9.4911116197452,8.5755703059433
1580421702.7323,-117.280842298009,14.4350347142747,2.53299763485165
