Timestamp_seconds,Accel_X_g,Accel_Y_g,Accel_Z_g
1580421695.92282,-0.96217288471809,0.0471198596169984,-0.275150682841231
1580421695.92681,-0.957778286411841,0.044678416113527,-0.278568703746091
1580421695.9308,-0.959731441214618,0.0437018387121384,-0.281010147249562
1580421695.9348,-0.961684596017395,0.0466315709163041,-0.287846189059282
1580421695.93879,-0.964126039520867,0.0476081483176927,-0.284916456855116
1580421695.94278,-0.967055771725033,0.0471198596169984,-0.289311055161365
1580421695.94678,-0.964614328221561,0.0500495918211641,-0.287357900358588
1580421695.95077,-0.970473792629893,0.0505378805218584,-0.294193942168308
1580421695.95476,-0.969985503929198,0.0500495918211641,-0.302983138780805
1580421695.95876,-0.964126039520867,0.0461432822156098,-0.301029983978028
1580421695.96275,-0.960219729915313,0.0456549935149155,-0.294682230869002
1580421695.96674,-0.962661173418784,0.0417486839093613,-0.289311055161365
1580421695.97076,-0.964126039520867,0.0402838178072784,-0.288334477759976
1580421695.97476,-0.963637750820173,0.0393072404058898,-0.288334477759976
1580421695.97875,-0.964614328221561,0.0363775082017241,-0.280521858548868
1580421695.98274,-0.96559090562295,0.0354009308003356,-0.271244373235676
1580421695.98674,-0.967055771725033,0.034424353398947,-0.273197528038454
1580421695.99073,-0.969497215228504,0.0329594872968642,-0.267826352330816
1580421695.99472,-0.970473792629893,0.034424353398947,-0.269779507133594
1580421695.99872,-0.969497215228504,0.031006332494087,-0.275150682841231
1580421696.00271,-0.970962081330587,0.0300297550926985,-0.271244373235676
1580421696.00671,-0.968032349126421,0.0295414663920042,-0.275638971541925
1580421696.0107,-0.964126039520867,0.0290531776913099,-0.282963302052339
1580421696.01469,-0.961684596017395,0.0339360646982527,-0.282963302052339
1580421696.01869,-0.961196307316701,0.037842374303807,-0.277103837644008
1580421696.02268,-0.962661173418784,0.0393072404058898,-0.275638971541925
1580421696.02667,-0.961684596017395,0.037842374303807,-0.277103837644008
1580421696.03067,-0.963637750820173,0.0422369726100555,-0.273685816739148
1580421696.03466,-0.966567483024338,0.0437018387121384,-0.266361486228734
1580421696.03865,-0.967544060425727,0.0471198596169984,-0.262943465323874
1580421696.04265,-0.966567483024338,0.0441901274128327,-0.257084000915542
1580421696.04664,-0.963637750820173,0.0461432822156098,-0.260013733119708
1580421696.05063,-0.967055771725033,0.0485847257190812,-0.255130846112765
1580421696.05462,-0.962661173418784,0.0510261692225527,-0.250247959105822
1580421696.05861,-0.964614328221561,0.0515144579232469,-0.249759670405126
1580421696.06261,-0.963149462119478,0.0544441901274126,-0.260990310521096
1580421696.0666,-0.961684596017395,0.0549324788281069,-0.270267795834288
1580421696.0706,-0.961684596017395,0.0563973449301898,-0.277592126344702
1580421696.07459,-0.957289997711147,0.0554207675288012,-0.285404745555811
1580421696.07858,-0.957289997711147,0.0593270771343555,-0.296635385671779
1580421696.08258,-0.956801709010453,0.0607919432364383,-0.302983138780805
1580421696.08657,-0.958266575112535,0.063721675440604,-0.304936293583582
1580421696.09056,-0.96217288471809,0.0666514076447697,-0.308354314488442
1580421696.09456,-0.968032349126421,0.0681162737468526,-0.304448004882888
1580421696.09855,-0.968032349126421,0.0686045624475469,-0.302494850080111
1580421696.10254,-0.967055771725033,0.0700694285496297,-0.289799343862059
1580421696.10654,-0.965102616922255,0.0666514076447697,-0.288334477759976
1580421696.11053,-0.963149462119478,0.0627450980392155,-0.275150682841231
1580421696.11452,-0.961684596017395,0.0617685206378269,-0.265384908827345
1580421696.11852,-0.95875486381323,0.0593270771343555,-0.261478599221791
1580421696.12251,-0.957289997711147,0.0529793240253298,-0.255130846112765
1580421696.1265,-0.956313420309758,0.0510261692225527,-0.251224536507211
1580421696.13052,-0.957778286411841,0.0510261692225527,-0.246341649500266
1580421696.13452,-0.96217288471809,0.0485847257190812,-0.237552452887769
1580421696.13851,-0.963149462119478,0.0490730144197755,-0.237552452887769
1580421696.1425,-0.965102616922255,0.0520027466239412,-0.242923628595406
1580421696.1465,-0.964126039520867,0.0461432822156098,-0.246341649500266
1580421696.15049,-0.964126039520867,0.0471198596169984,-0.251712825207905
1580421696.15448,-0.966567483024338,0.0422369726100555,-0.263920042725262
1580421696.15848,-0.96559090562295,0.0407721065079727,-0.271244373235676
1580421696.16247,-0.96900892652781,0.0417486839093613,-0.274662394140536
1580421696.16647,-0.970962081330587,0.0437018387121384,-0.279545281147479
1580421696.17046,-0.973891813534753,0.0402838178072784,-0.281498435950256
1580421696.17445,-0.978774700541695,0.037842374303807,-0.287357900358588
1580421696.17844,-0.97926298924239,0.0363775082017241,-0.291752498664836
1580421696.18244,-0.980239566643778,0.0407721065079727,-0.295658808270391
1580421696.18643,-0.976821545738918,0.0402838178072784,-0.299076829175251
1580421696.19043,-0.974380102235447,0.0427252613107498,-0.301029983978028
1580421696.19442,-0.973891813534753,0.0422369726100555,-0.290287632562753
1580421696.19841,-0.970962081330587,0.0427252613107498,-0.278568703746091
1580421696.20241,-0.96900892652781,0.0397955291065841,-0.266361486228734
1580421696.2064,-0.970962081330587,0.0368657969024184,-0.254154268711376
1580421696.21039,-0.970962081330587,0.0305180437933927,-0.240482185091935
1580421696.21438,-0.971938658731975,0.0271000228885327,-0.233646143282215
1580421696.21837,-0.967544060425727,0.0285648889906156,-0.226810101472495
1580421696.22237,-0.968520637827115,0.0197756923781185,-0.221438925764858
1580421696.22636,-0.968520637827115,0.0231937132829785,-0.216556038757915
1580421696.23036,-0.974380102235447,0.0197756923781185,-0.228763256275272
1580421696.23435,-0.972915236133364,0.0251468680857556,-0.237064164187075
1580421696.23834,-0.976333257038224,0.0256351567864499,-0.239505607690546
1580421696.24234,-0.978774700541695,0.027588311589227,-0.249271381704432
1580421696.24633,-0.980727855344472,0.0280766002899213,-0.255130846112765
1580421696.25032,-0.981216144045167,0.027588311589227,-0.261478599221791
1580421696.25432,-0.978774700541695,0.0305180437933927,-0.260990310521096
1580421696.25831,-0.97926298924239,0.0305180437933927,-0.264408331425956
1580421696.2623,-0.97926298924239,0.0256351567864499,-0.264896620126651
1580421696.2663,-0.97926298924239,0.0231937132829785,-0.270756084534982
1580421696.27029,-0.980239566643778,0.0222171358815899,-0.267826352330816
1580421696.27428,-0.97584496833753,0.0227054245822842,-0.265384908827345
1580421696.27828,-0.978774700541695,0.0227054245822842,-0.260013733119708
1580421696.28227,-0.978774700541695,0.0222171358815899,-0.254642557412071
1580421696.28626,-0.978286411841001,0.0217288471808956,-0.245853360799572
1580421696.29025,-0.971938658731975,0.024170290684367,-0.239505607690546
1580421696.29425,-0.971450370031281,0.0266117341878385,-0.232669565880826
1580421696.29824,-0.968520637827115,0.0266117341878385,-0.225833524071106
1580421696.30223,-0.967055771725033,0.0280766002899213,-0.226321812771801
1580421696.30623,-0.963149462119478,0.0271000228885327,-0.222415503166246
1580421696.31022,-0.964126039520867,0.0295414663920042,-0.226810101472495
1580421696.31421,-0.959243152513924,0.0339360646982527,-0.225345235370412
1580421696.31821,-0.958266575112535,0.0407721065079727,-0.238040741588463
1580421696.3222,-0.963637750820173,0.0485847257190812,-0.243900205996795
1580421696.32619,-0.965102616922255,0.0544441901274126,-0.250736247806516
1580421696.33019,-0.966567483024338,0.0622568093385212,-0.264896620126651
1580421696.33418,-0.970473792629893,0.0725108720531011,-0.266849774929428
1580421696.33817,-0.974380102235447,0.0832532234683754,-0.271244373235676
1580421696.34217,-0.978286411841001,0.0900892652780954,-0.273197528038454
1580421696.34616,-0.981216144045167,0.0935072861829553,-0.272709239337759
1580421696.35015,-0.978286411841001,0.0969253070878153,-0.274174105439842
1580421696.35415,-0.97926298924239,0.0974135957885096,-0.276127260242619
1580421696.35814,-0.981216144045167,0.0939955748836496,-0.270756084534982
1580421696.36214,-0.975356679636835,0.0881361104753182,-0.267826352330816
1580421696.36613,-0.969497215228504,0.0871595330739297,-0.258548867017625
1580421696.37015,-0.962661173418784,0.0827649347676811,-0.247806515602349
1580421696.37414,-0.960708018616007,0.0764171816586554,-0.241458762493323
1580421696.37813,-0.959243152513924,0.070557717250324,-0.238040741588463
1580421696.38213,-0.95875486381323,0.0681162737468526,-0.233646143282215
1580421696.38612,-0.956313420309758,0.0617685206378269,-0.232669565880826
1580421696.39012,-0.959731441214618,0.0593270771343555,-0.232181277180132
1580421696.39411,-0.956801709010453,0.0559090562294955,-0.233646143282215
1580421696.3981,-0.95533684290837,0.0510261692225527,-0.242435339894712
1580421696.40209,-0.953383688105593,0.0485847257190812,-0.252201113908599
1580421696.40609,-0.952407110704204,0.0456549935149155,-0.262943465323874
1580421696.41008,-0.954848554207675,0.0471198596169984,-0.267338063630122
1580421696.41408,-0.95875486381323,0.0437018387121384,-0.270267795834288
1580421696.41807,-0.963149462119478,0.0485847257190812,-0.269779507133594
1580421696.42206,-0.968520637827115,0.048096437018387,-0.275638971541925
1580421696.42606,-0.970962081330587,0.0471198596169984,-0.276127260242619
1580421696.43005,-0.968520637827115,0.0485847257190812,-0.276127260242619
1580421696.43404,-0.96559090562295,0.0461432822156098,-0.275150682841231
1580421696.43804,-0.963637750820173,0.0407721065079727,-0.271732661936371
1580421696.44203,-0.960219729915313,0.0363775082017241,-0.265384908827345
1580421696.44602,-0.955825131609064,0.0407721065079727,-0.257572289616236
1580421696.45001,-0.95875486381323,0.0358892195010299,-0.255619134813459
1580421696.45401,-0.953871976806287,0.0334477759975584,-0.244876783398183
1580421696.458,-0.956801709010453,0.0266117341878385,-0.242435339894712
1580421696.46199,-0.957289997711147,0.0227054245822842,-0.236087586785686
1580421696.46599,-0.956313420309758,0.0173342488746471,-0.231692988479438
1580421696.46998,-0.956313420309758,0.0173342488746471,-0.231692988479438
1580421696.47397,-0.95875486381323,0.0109864957656214,-0.229739833676661
1580421696.47797,-0.955825131609064,0.0153810940718699,-0.23999389639124
1580421696.48196,-0.95533684290837,0.0129396505683985,-0.2434119172961
1580421696.48595,-0.954848554207675,0.0144045166704814,-0.247318226901655
1580421696.48995,-0.957289997711147,0.0168459601739528,-0.257084000915542
1580421696.49394,-0.959243152513924,0.0231937132829785,-0.265384908827345
1580421696.49793,-0.95875486381323,0.027588311589227,-0.267826352330816
1580421696.50193,-0.966079194323644,0.0358892195010299,-0.275150682841231
1580421696.50592,-0.964614328221561,0.0461432822156098,-0.280521858548868
1580421696.50991,-0.966079194323644,0.0510261692225527,-0.285404745555811
1580421696.51391,-0.967544060425727,0.0593270771343555,-0.287846189059282
1580421696.5179,-0.966079194323644,0.0681162737468526,-0.287846189059282
1580421696.52189,-0.964614328221561,0.067139696345464,-0.290775921263448
1580421696.52589,-0.965102616922255,0.0676279850461583,-0.284428168154422
1580421696.52988,-0.966079194323644,0.0725108720531011,-0.278568703746091
1580421696.53387,-0.962661173418784,0.0690928511482412,-0.267826352330816
1580421696.53786,-0.964614328221561,0.0622568093385212,-0.253665980010682
1580421696.54186,-0.963149462119478,0.063721675440604,-0.244876783398183
1580421696.54585,-0.962661173418784,0.0534676127260241,-0.237552452887769
1580421696.54984,-0.962661173418784,0.0500495918211641,-0.235599298084992
1580421696.55384,-0.96559090562295,0.0432135500114441,-0.226321812771801
1580421696.55783,-0.964614328221561,0.0388189517051956,-0.225345235370412
1580421696.56182,-0.961196307316701,0.0363775082017241,-0.232669565880826
1580421696.56582,-0.961684596017395,0.0354009308003356,-0.238529030289158
1580421696.56981,-0.961196307316701,0.0358892195010299,-0.241458762493323
1580421696.5738,-0.962661173418784,0.034424353398947,-0.249271381704432
1580421696.5778,-0.964126039520867,0.0354009308003356,-0.257084000915542
1580421696.58179,-0.966079194323644,0.041260395208667,-0.257572289616236
1580421696.58578,-0.967055771725033,0.0437018387121384,-0.268314641031511
1580421696.58978,-0.970962081330587,0.0456549935149155,-0.271244373235676
1580421696.59377,-0.971450370031281,0.0500495918211641,-0.275638971541925
1580421696.59777,-0.977309834439613,0.0524910353246355,-0.279056992446785
1580421696.60176,-0.976333257038224,0.0520027466239412,-0.281986724650951
1580421696.60575,-0.980239566643778,0.0529793240253298,-0.283939879453728
1580421696.60977,-0.978286411841001,0.0476081483176927,-0.273197528038454
1580421696.61377,-0.982192721446555,0.0466315709163041,-0.263920042725262
1580421696.61776,-0.986587319752804,0.0417486839093613,-0.254154268711376
1580421696.62175,-0.984145876249332,0.0388189517051956,-0.238040741588463
1580421696.62574,-0.98951705195697,0.0334477759975584,-0.228763256275272
1580421696.62974,-0.989028763256275,0.0285648889906156,-0.223880369268329
1580421696.63373,-0.985610742351415,0.0266117341878385,-0.215579461356526
1580421696.63773,-0.984145876249332,0.0246585793850613,-0.212649729152361
1580421696.64172,-0.985122453650721,0.0217288471808956,-0.213626306553749
1580421696.64571,-0.983169298847944,0.0212405584802013,-0.216067750057221
1580421696.64971,-0.982192721446555,0.0217288471808956,-0.215579461356526
1580421696.6537,-0.978286411841001,0.0231937132829785,-0.218020904859998
1580421696.65769,-0.981216144045167,0.0236820019836728,-0.218997482261386
1580421696.66169,-0.975356679636835,0.0261234454871442,-0.217044327458609
1580421696.66568,-0.97242694743267,0.0256351567864499,-0.218997482261386
1580421696.66967,-0.970473792629893,0.0231937132829785,-0.218020904859998
1580421696.67367,-0.970473792629893,0.024170290684367,-0.219485770962081
1580421696.67766,-0.973403524834058,0.0217288471808956,-0.223392080567635
1580421696.68165,-0.976333257038224,0.0231937132829785,-0.227298390173189
1580421696.68565,-0.979751277943084,0.0295414663920042,-0.225833524071106
1580421696.68964,-0.976821545738918,0.0290531776913099,-0.232181277180132
1580421696.69363,-0.979751277943084,0.0354009308003356,-0.242435339894712
1580421696.69762,-0.981704432745861,0.0388189517051956,-0.248294804303043
1580421696.70162,-0.98609903105211,0.0461432822156098,-0.250736247806516
1580421696.70561,-0.990981918059052,0.0539559014267184,-0.254642557412071
1580421696.7096,-0.995376516365301,0.0632333867399097,-0.259037155718319
1580421696.7136,-0.990493629358358,0.0676279850461583,-0.257572289616236
1580421696.71759,-0.98951705195697,0.0734874494544897,-0.257084000915542
1580421696.72158,-0.982192721446555,0.0764171816586554,-0.257572289616236
1580421696.72558,-0.974868390936141,0.0769054703593497,-0.257084000915542
1580421696.72957,-0.96900892652781,0.0754406042572668,-0.24682993820096
1580421696.73356,-0.96900892652781,0.0710460059510183,-0.240482185091935
1580421696.73756,-0.969985503929198,0.0646982528419926,-0.228763256275272
1580421696.74155,-0.972915236133364,0.0622568093385212,-0.219485770962081
1580421696.74554,-0.974380102235447,0.0583504997329669,-0.216067750057221
1580421696.74954,-0.973403524834058,0.0554207675288012,-0.209719996948195
1580421696.75353,-0.974868390936141,0.0510261692225527,-0.212161440451666
1580421696.75753,-0.974380102235447,0.0476081483176927,-0.209719996948195
1580421696.76152,-0.971450370031281,0.0490730144197755,-0.217532616159303
1580421696.76551,-0.970962081330587,0.0466315709163041,-0.218509193560692
1580421696.7695,-0.968032349126421,0.0466315709163041,-0.223880369268329
1580421696.77349,-0.966567483024338,0.0422369726100555,-0.225345235370412
1580421696.77749,-0.96559090562295,0.0441901274128327,-0.231204699778743
1580421696.78148,-0.967544060425727,0.0422369726100555,-0.238529030289158
1580421696.78547,-0.968032349126421,0.0456549935149155,-0.236087586785686
1580421696.78947,-0.967055771725033,0.0466315709163041,-0.242923628595406
1580421696.79346,-0.973891813534753,0.0500495918211641,-0.244388494697489
1580421696.79745,-0.977309834439613,0.0568856336308841,-0.252201113908599
1580421696.80145,-0.977309834439613,0.0598153658350498,-0.258548867017625
1580421696.80544,-0.978286411841001,0.0627450980392155,-0.264408331425956
1580421696.80943,-0.974380102235447,0.0651865415426869,-0.267826352330816
1580421696.81343,-0.976821545738918,0.0627450980392155,-0.265384908827345
1580421696.81742,-0.974380102235447,0.063721675440604,-0.260013733119708
1580421696.82142,-0.970962081330587,0.0568856336308841,-0.253665980010682
1580421696.82541,-0.972915236133364,0.0544441901274126,-0.24682993820096
1580421696.8294,-0.971938658731975,0.0520027466239412,-0.247318226901655
1580421696.8334,-0.969985503929198,0.0451667048142212,-0.238529030289158
1580421696.83739,-0.970473792629893,0.0417486839093613,-0.230716411078049
1580421696.84138,-0.970473792629893,0.0349126420996413,-0.231692988479438
1580421696.84538,-0.972915236133364,0.0373540856031127,-0.225833524071106
1580421696.8494,-0.973891813534753,0.0407721065079727,-0.228763256275272
1580421696.85339,-0.974380102235447,0.0383306630045013,-0.229251544975966
1580421696.85738,-0.974868390936141,0.0388189517051956,-0.228763256275272
1580421696.86138,-0.976821545738918,0.041260395208667,-0.227786678873883
1580421696.86537,-0.977309834439613,0.0441901274128327,-0.234622720683603
1580421696.86936,-0.975356679636835,0.0461432822156098,-0.2434119172961
1580421696.87336,-0.97584496833753,0.0441901274128327,-0.248294804303043
1580421696.87735,-0.974868390936141,0.0485847257190812,-0.249759670405126
1580421696.88134,-0.978774700541695,0.0461432822156098,-0.248294804303043
1580421696.88534,-0.97584496833753,0.0471198596169984,-0.253665980010682
1580421696.88933,-0.974380102235447,0.0495613031204698,-0.250736247806516
1580421696.89332,-0.973891813534753,0.0451667048142212,-0.248294804303043
1580421696.89732,-0.973403524834058,0.0427252613107498,-0.248783093003738
1580421696.90131,-0.971450370031281,0.0417486839093613,-0.244388494697489
1580421696.9053,-0.971450370031281,0.0422369726100555,-0.242923628595406
1580421696.9093,-0.971450370031281,0.0393072404058898,-0.236087586785686
1580421696.91329,-0.974380102235447,0.0363775082017241,-0.238040741588463
1580421696.91728,-0.97242694743267,0.0354009308003356,-0.238529030289158
1580421696.92128,-0.976333257038224,0.0339360646982527,-0.235599298084992
1580421696.92527,-0.981216144045167,0.0334477759975584,-0.235111009384298
1580421696.92926,-0.984145876249332,0.0329594872968642,-0.241947051194018
1580421696.93325,-0.984145876249332,0.0383306630045013,-0.240482185091935
1580421696.93725,-0.984145876249332,0.0368657969024184,-0.23657587548638
1580421696.94124,-0.981216144045167,0.0358892195010299,-0.23315785458152
1580421696.94523,-0.979751277943084,0.0354009308003356,-0.235111009384298
1580421696.94923,-0.972915236133364,0.0329594872968642,-0.235111009384298
1580421696.95322,-0.970473792629893,0.0314946211947813,-0.230716411078049
1580421696.95721,-0.970962081330587,0.031006332494087,-0.224368657969023
1580421696.96121,-0.967544060425727,0.0314946211947813,-0.223880369268329
1580421696.9652,-0.967055771725033,0.0334477759975584,-0.223392080567635
1580421696.96919,-0.964126039520867,0.0334477759975584,-0.227298390173189
1580421696.97319,-0.963637750820173,0.0383306630045013,-0.229251544975966
1580421696.97718,-0.968032349126421,0.0437018387121384,-0.239505607690546
1580421696.98118,-0.968032349126421,0.0471198596169984,-0.243900205996795
1580421696.98517,-0.969985503929198,0.0495613031204698,-0.254154268711376
1580421696.98916,-0.968520637827115,0.0505378805218584,-0.261478599221791
1580421696.99316,-0.968520637827115,0.0534676127260241,-0.268802929732205
1580421696.99715,-0.972915236133364,0.0593270771343555,-0.276615548943314
1580421697.00114,-0.975356679636835,0.0612802319371326,-0.271732661936371
1580421697.00514,-0.977798123140307,0.0656748302433812,-0.272709239337759
1580421697.00916,-0.977798123140307,0.0681162737468526,-0.268802929732205
1580421697.01315,-0.975356679636835,0.0695811398489354,-0.263431754024568
1580421697.01714,-0.971938658731975,0.0681162737468526,-0.258548867017625
1580421697.02113,-0.974868390936141,0.0646982528419926,-0.261966887922485
1580421697.02513,-0.971938658731975,0.0632333867399097,-0.251224536507211
1580421697.02912,-0.972915236133364,0.0612802319371326,-0.243900205996795
1580421697.03312,-0.971450370031281,0.0573739223315783,-0.240482185091935
1580421697.03711,-0.973403524834058,0.0559090562294955,-0.235111009384298
1580421697.0411,-0.97242694743267,0.0515144579232469,-0.230228122377355
1580421697.0451,-0.97242694743267,0.0534676127260241,-0.230228122377355
1580421697.04909,-0.968032349126421,0.048096437018387,-0.232181277180132
1580421697.05308,-0.968032349126421,0.0476081483176927,-0.232669565880826
1580421697.05708,-0.966567483024338,0.0495613031204698,-0.238529030289158
1580421697.06107,-0.968032349126421,0.0485847257190812,-0.2434119172961
1580421697.06506,-0.966079194323644,0.0534676127260241,-0.253177691309988
1580421697.06906,-0.96559090562295,0.0573739223315783,-0.260502021820402
1580421697.07305,-0.966567483024338,0.0598153658350498,-0.260502021820402
1580421697.07704,-0.967055771725033,0.0612802319371326,-0.267338063630122
1580421697.08104,-0.966079194323644,0.0681162737468526,-0.267338063630122
1580421697.08503,-0.965102616922255,0.0646982528419926,-0.268314641031511
1580421697.08902,-0.964614328221561,0.0700694285496297,-0.272220950637065
1580421697.09301,-0.964614328221561,0.0715342946517126,-0.269779507133594
1580421697.09701,-0.964126039520867,0.0661631189440754,-0.259037155718319
1580421697.101,-0.966567483024338,0.0632333867399097,-0.255619134813459
1580421697.10499,-0.966567483024338,0.0588387884336612,-0.255130846112765
1580421697.10899,-0.967544060425727,0.0549324788281069,-0.251712825207905
1580421697.11298,-0.968032349126421,0.0524910353246355,-0.248294804303043
1580421697.11697,-0.967055771725033,0.0495613031204698,-0.247318226901655
1580421697.12097,-0.969497215228504,0.0485847257190812,-0.239505607690546
1580421697.12496,-0.961196307316701,0.0441901274128327,-0.247318226901655
1580421697.12895,-0.963637750820173,0.0427252613107498,-0.246341649500266
1580421697.13295,-0.968520637827115,0.0422369726100555,-0.245365072098878
1580421697.13694,-0.967544060425727,0.0397955291065841,-0.249759670405126
1580421697.14093,-0.96900892652781,0.0363775082017241,-0.256107423514154
1580421697.14493,-0.968520637827115,0.0358892195010299,-0.259037155718319
1580421697.14892,-0.964614328221561,0.0368657969024184,-0.258548867017625
1580421697.15292,-0.96559090562295,0.0349126420996413,-0.259037155718319
1580421697.15691,-0.961684596017395,0.034424353398947,-0.260013733119708
1580421697.1609,-0.965102616922255,0.037842374303807,-0.262455176623179
1580421697.1649,-0.959243152513924,0.0363775082017241,-0.277592126344702
1580421697.16888,-0.964126039520867,0.0388189517051956,-0.284916456855116
1580421697.17288,-0.964126039520867,0.0437018387121384,-0.283451590753033
1580421697.17687,-0.969497215228504,0.0471198596169984,-0.292729076066225
1580421697.18086,-0.973403524834058,0.0520027466239412,-0.289799343862059
1580421697.18486,-0.977798123140307,0.0534676127260241,-0.292240787365531
1580421697.18885,-0.978286411841001,0.0539559014267184,-0.293705653467613
1580421697.19284,-0.978774700541695,0.0544441901274126,-0.292729076066225
1580421697.19684,-0.97584496833753,0.0534676127260241,-0.284916456855116
1580421697.20083,-0.970962081330587,0.0515144579232469,-0.279056992446785
1580421697.20483,-0.970962081330587,0.0471198596169984,-0.272220950637065
1580421697.20882,-0.966567483024338,0.0407721065079727,-0.265384908827345
1580421697.21281,-0.963149462119478,0.0339360646982527,-0.257084000915542
1580421697.21681,-0.961196307316701,0.0295414663920042,-0.249271381704432
1580421697.2208,-0.961196307316701,0.0271000228885327,-0.239017318989852
1580421697.22479,-0.959243152513924,0.0261234454871442,-0.242435339894712
1580421697.22879,-0.96217288471809,0.0280766002899213,-0.252201113908599
1580421697.23278,-0.960708018616007,0.031006332494087,-0.259037155718319
1580421697.23677,-0.961684596017395,0.034424353398947,-0.263431754024568
1580421697.24077,-0.963637750820173,0.0397955291065841,-0.270267795834288
1580421697.24476,-0.967055771725033,0.0388189517051956,-0.276127260242619
1580421697.24878,-0.96559090562295,0.0432135500114441,-0.279545281147479
1580421697.25277,-0.96559090562295,0.0490730144197755,-0.277592126344702
1580421697.25677,-0.966567483024338,0.0515144579232469,-0.272709239337759
1580421697.26076,-0.965102616922255,0.0524910353246355,-0.270756084534982
1580421697.26475,-0.961196307316701,0.0549324788281069,-0.264896620126651
1580421697.26875,-0.959731441214618,0.0554207675288012,-0.260013733119708
1580421697.27274,-0.960708018616007,0.0549324788281069,-0.260013733119708
1580421697.27673,-0.958266575112535,0.0549324788281069,-0.260013733119708
1580421697.28073,-0.962661173418784,0.0568856336308841,-0.263431754024568
1580421697.28472,-0.96559090562295,0.0588387884336612,-0.259525444419014
1580421697.28871,-0.965102616922255,0.0612802319371326,-0.260502021820402
1580421697.29271,-0.972915236133364,0.0627450980392155,-0.254154268711376
1580421697.2967,-0.974380102235447,0.0646982528419926,-0.256595712214848
1580421697.30069,-0.971938658731975,0.0651865415426869,-0.260990310521096
1580421697.30469,-0.966567483024338,0.0676279850461583,-0.267338063630122
1580421697.30868,-0.964126039520867,0.0646982528419926,-0.272220950637065
1580421697.31267,-0.965102616922255,0.0651865415426869,-0.272220950637065
1580421697.31667,-0.966079194323644,0.0607919432364383,-0.270267795834288
1580421697.32066,-0.969985503929198,0.0549324788281069,-0.265873197528039
1580421697.32466,-0.969497215228504,0.0520027466239412,-0.262455176623179
1580421697.32867,-0.964614328221561,0.0495613031204698,-0.260990310521096
1580421697.33267,-0.965102616922255,0.0485847257190812,-0.253177691309988
1580421697.33666,-0.962661173418784,0.0549324788281069,-0.248294804303043
1580421697.34065,-0.964614328221561,0.0559090562294955,-0.254154268711376
1580421697.34465,-0.96559090562295,0.0578622110322726,-0.264408331425956
1580421697.34864,-0.966567483024338,0.0588387884336612,-0.260013733119708
1580421697.35263,-0.969985503929198,0.0612802319371326,-0.260990310521096
1580421697.35663,-0.970962081330587,0.060303654535744,-0.255619134813459
1580421697.36062,-0.972915236133364,0.0568856336308841,-0.249759670405126
1580421697.36462,-0.979751277943084,0.0598153658350498,-0.246341649500266
1580421697.36861,-0.980727855344472,0.0583504997329669,-0.236087586785686
1580421697.3726,-0.981216144045167,0.0534676127260241,-0.228274967574578
1580421697.3766,-0.98609903105211,0.0485847257190812,-0.220462348363469
1580421697.38059,-0.988052185854887,0.0471198596169984,-0.219974059662775
1580421697.38458,-0.993911650263218,0.0432135500114441,-0.225833524071106
1580421697.38858,-0.996841382467384,0.0476081483176927,-0.227298390173189
1580421697.39257,-1.00172426947433,0.048096437018387,-0.23657587548638
1580421697.39656,-1.00074769207294,0.0539559014267184,-0.251224536507211
1580421697.40056,-1.00563057907988,0.0563973449301898,-0.269291218432899
1580421697.40455,-1.00758373388266,0.0612802319371326,-0.278568703746091
1580421697.40854,-1.01197833218891,0.0734874494544897,-0.278568703746091
1580421697.41253,-1.01783779659724,0.0798352025635154,-0.287846189059282
1580421697.41652,-1.02272068360418,0.0876478217746239,-0.295170519569696
1580421697.42052,-1.02662699320974,0.0925307087815668,-0.293217364766919
1580421697.42451,-1.02809185931182,0.10083161669337,-0.279056992446785
1580421697.42851,-1.02906843671321,0.108155947203784,-0.265873197528039
1580421697.4325,-1.02906843671321,0.108644235904478,-0.255619134813459
1580421697.43649,-1.02418554970626,0.106202792401007,-0.235111009384298
1580421697.44049,-1.01490806439307,0.0969253070878153,-0.211673151750972
1580421697.44448,-1.01051346608682,0.0783703364614325,-0.185305561913481
1580421697.44847,-0.998306248569467,0.0490730144197755,-0.162844281681544
1580421697.45247,-0.980727855344472,0.0144045166704814,-0.140383001449607
1580421697.45646,-0.96217288471809,-0.0168459601739528,-0.125734340428778
1580421697.46045,-0.94508278019379,-0.0485847257190812,-0.124269474326695
1580421697.46445,-0.93141069657435,-0.0651865415426869,-0.12475776302739
1580421697.46844,-0.928480964370184,-0.070557717250324,-0.122316319523918
1580421697.47243,-0.930434119172961,-0.0563973449301898,-0.116456855115587
1580421697.47643,-0.940199893186847,-0.0300297550926985,-0.105714503700312
1580421697.48042,-0.956313420309758,0.00952162966353853,-0.102784771496147
1580421697.48441,-0.974380102235447,0.0573739223315783,-0.102296482795452
1580421697.48843,-0.988540474555581,0.0896009765774011,-0.109620813305867
1580421697.49243,-0.993911650263218,0.115968566414892,-0.113527122911421
1580421697.49642,-0.990981918059052,0.129640650034332,-0.135988403143358
1580421697.50041,-0.981216144045167,0.133058670939192,-0.165774013885709
1580421697.50441,-0.97242694743267,0.131105516136415,-0.205325398641946
1580421697.5084,-0.959731441214618,0.122804608224612,-0.237552452887769
1580421697.51239,-0.94508278019379,0.118898298619058,-0.269779507133594
1580421697.51639,-0.929457541771573,0.123292896925307,-0.289799343862059
1580421697.52038,-0.922133211261158,0.130128938735027,-0.300053406576639
1580421697.52437,-0.918715190356298,0.132082093537804,-0.304448004882888
1580421697.52837,-0.923109788662547,0.138429846646829,-0.306401159685665
1580421697.53236,-0.928969253070878,0.144289311055161,-0.295170519569696
1580421697.53636,-0.932875562676433,0.146730754558632,-0.289799343862059
1580421697.54035,-0.939223315785458,0.137941557946135,-0.280521858548868
1580421697.54434,-0.940688181887541,0.122804608224612,-0.266361486228734
1580421697.54834,-0.94166475928893,0.10424963759823,-0.253665980010682
1580421697.55233,-0.943617914091707,0.0871595330739297,-0.242435339894712
1580421697.55632,-0.944106202792401,0.0798352025635154,-0.232669565880826
1580421697.56032,-0.944594491493095,0.0734874494544897,-0.236087586785686
1580421697.56431,-0.951430533302815,0.0651865415426869,-0.227298390173189
1580421697.5683,-0.952407110704204,0.0578622110322726,-0.217532616159303
1580421697.57229,-0.951430533302815,0.0505378805218584,-0.214602883955138
1580421697.57628,-0.953383688105593,0.0422369726100555,-0.212161440451666
1580421697.58028,-0.94850080109865,0.0397955291065841,-0.211673151750972
1580421697.58427,-0.952407110704204,0.0407721065079727,-0.215091172655832
1580421697.58827,-0.95533684290837,0.0427252613107498,-0.206790264744029
1580421697.59226,-0.956801709010453,0.0500495918211641,-0.205325398641946
1580421697.59625,-0.952407110704204,0.0544441901274126,-0.201907377737086
1580421697.60025,-0.955825131609064,0.0568856336308841,-0.194583047226672
1580421697.60424,-0.959731441214618,0.0539559014267184,-0.199465934233615
1580421697.60823,-0.96900892652781,0.0520027466239412,-0.190676737621118
1580421697.61223,-0.981216144045167,0.0500495918211641,-0.182864118410009
1580421697.61622,-0.988540474555581,0.0437018387121384,-0.180422674906538
1580421697.62021,-0.994888227664607,0.0383306630045013,-0.173098344396124
1580421697.62421,-0.998794537270161,0.0319829098954756,-0.164797436484321
1580421697.6282,-1.00270084687572,0.0280766002899213,-0.160891126878766
1580421697.63219,-1.00465400167849,0.0222171358815899,-0.147219043259327
1580421697.63619,-1.00709544518196,0.0197756923781185,-0.143801022354467
1580421697.64018,-1.00758373388266,0.0256351567864499,-0.137941557946135
1580421697.64417,-1.00514229037919,0.0285648889906156,-0.132082093537804
1580421697.64816,-1.00563057907988,0.034424353398947,-0.116945143816281
1580421697.65216,-1.0041657129778,0.0393072404058898,-0.106202792401007
1580421697.65615,-1.00611886778058,0.0427252613107498,-0.0930189974822611
1580421697.66014,-1.01149004348821,0.0388189517051956,-0.0778820477607383
1580421697.66414,-1.0129549095903,0.0334477759975584,-0.0642099641412983
1580421697.66813,-1.01588464179446,0.0271000228885327,-0.0495613031204698
1580421697.67212,-1.01783779659724,0.0178225375753414,-0.0334477759975584
1580421697.67612,-1.01979095140002,0.0129396505683985,-0.0173342488746471
1580421697.68011,-1.02272068360418,0.0134279392690928,-0.00805676356145568
1580421697.6841,-1.02418554970626,0.0134279392690928,0.00610360875867855
1580421697.6881,-1.02760357061112,0.0178225375753414,0.0158693827725642
1580421697.69209,-1.03443961242084,0.0197756923781185,0.0271000228885327
1580421697.69608,-1.04176394293126,0.0192874036774242,0.0280766002899213
1580421697.70008,-1.04811169604028,0.0227054245822842,0.0354009308003356
1580421697.70407,-1.05152971694514,0.027588311589227,0.0402838178072784
1580421697.70807,-1.05348287174792,0.0280766002899213,0.0568856336308841
1580421697.71206,-1.05738918135348,0.0290531776913099,0.0686045624475469
1580421697.71605,-1.06129549095903,0.0339360646982527,0.0847180895704582
1580421697.72005,-1.06813153276875,0.0349126420996413,0.10424963759823
1580421697.72404,-1.07057297627222,0.031006332494087,0.119874876020447
1580421697.72806,-1.07643244068055,0.0300297550926985,0.136476691844052
1580421697.73205,-1.07985046158541,0.027588311589227,0.152101930266269
1580421697.73604,-1.08326848249027,0.0231937132829785,0.165285725185015
1580421697.74004,-1.09108110170138,0.0173342488746471,0.185793850614175
1580421697.74403,-1.09156939040207,0.01196307316701,0.204348821240558
1580421697.74802,-1.09303425650416,0.00366216525520713,0.224856946669718
1580421697.75202,-1.09156939040207,-0.00561532005798426,0.248294804303043
1580421697.75601,-1.09694056610971,-0.00952162966353853,0.275638971541923
1580421697.76001,-1.10231174181735,-0.00903334096284425,0.297123674372472
1580421697.764,-1.10035858701457,-0.0124513618677042,0.321049820706492
1580421697.76799,-1.09889372091249,-0.0148928053711757,0.337163347829403
1580421697.77199,-1.10035858701457,-0.0197756923781185,0.356694895857174
1580421697.77598,-1.09987029831388,-0.0212405584802013,0.367437247272449
1580421697.77997,-1.10084687571527,-0.0183108262760356,0.375738155184251
1580421697.78397,-1.1067063401236,-0.0104982070649271,0.38355077439536
1580421697.78796,-1.12086671244373,0.00903334096284425,0.39038681620508
1580421697.79195,-1.13698023956664,0.0163576714732585,0.395269703212023
1580421697.79595,-1.14625772487983,0.027588311589227,0.406988632028686
1580421697.79994,-1.16041809719997,0.0251468680857556,0.408453498130768
1580421697.80393,-1.17701991302357,0.0222171358815899,0.417242694743265
1580421697.80792,-1.19996948195621,0.0148928053711757,0.4314030670634
1580421697.81191,-1.23024338139925,0.00805676356145568,0.443121995880063
1580421697.81591,-1.26588845654994,-0.000732433051041426,0.469977874418248
1580421697.8199,-1.30641641870756,-0.0129396505683985,0.493415732051574
1580421697.8239,-1.34889753566796,-0.0266117341878385,0.496833752956434
1580421697.82789,-1.396749828336,-0.0505378805218584,0.477790493629357
1580421697.83188,-1.44655527580682,-0.080811779964904,0.451422903791865
1580421697.83588,-1.48561837186236,-0.12475776302739,0.38355077439536
1580421697.83987,-1.4992904554818,-0.173098344396124,0.24682993820096
1580421697.84386,-1.50173189898528,-0.216067750057221,0.0842298008697639
1580421697.84786,-1.49587243457694,-0.233646143282215,-0.0764171816586554
1580421697.85185,-1.49196612497139,-0.234622720683603,-0.217044327458609
1580421697.85584,-1.48122377355612,-0.225833524071106,-0.32300297550927
1580421697.85984,-1.45827420462348,-0.228274967574578,-0.38110933089189
1580421697.86383,-1.42458228427558,-0.248294804303043,-0.39478141451133
1580421697.86783,-1.38454261081865,-0.275150682841231,-0.354741741054399
1580421697.87182,-1.30836957351034,-0.297123674372473,-0.276127260242619
1580421697.87581,-1.21950102998398,-0.316655222400245,-0.200442511635003
1580421697.8798,-1.14235141527428,-0.33667505912871,-0.146730754558632
1580421697.8838,-1.07057297627222,-0.356206607156482,-0.105226214999618
1580421697.88782,-1.00172426947433,-0.376226443884947,-0.0769054703593497
1580421697.89181,-0.932875562676433,-0.39819943541619,-0.077393759060044
1580421697.8958,-0.925062943465324,-0.393316548409247,-0.0988784618905925
1580421697.8998,-0.934340428778516,-0.344975967040513,-0.136964980544747
1580421697.90379,-0.949477378500038,-0.273197528038454,-0.155031662470435
1580421697.90778,-0.966079194323644,-0.199465934233615,-0.157961394674601
1580421697.91178,-0.988540474555581,-0.137453269245441,-0.164309147783626
1580421697.91577,-1.00758373388266,-0.0759288929579611,-0.163332570382238
1580421697.91976,-1.02418554970626,-0.0183108262760356,-0.159914549477378
1580421697.92376,-1.04469367513542,0.0329594872968642,-0.135988403143358
1580421697.92775,-1.05934233615625,0.0817883573662925,-0.115968566414892
1580421697.93175,-1.07057297627222,0.126710917830167,-0.0979018844892039
1580421697.93574,-1.0720378423743,0.167238879987792,-0.0803234912642097
1580421697.93973,-1.06715495536736,0.205325398641946,-0.0720225833524069
1580421697.94373,-1.05055313954376,0.23999389639124,-0.0549324788281069
1580421697.94772,-1.02369726100557,0.262455176623178,-0.0373540856031127
1580421697.95171,-0.995864805065995,0.272709239337757,-0.0168459601739528
1580421697.95571,-0.966079194323644,0.272709239337757,0.00122072175173571
1580421697.9597,-0.937758449683376,0.268314641031509,0.00854505226214997
1580421697.96369,-0.906996261539636,0.258060578316929,0.0192874036774242
1580421697.96768,-0.883070115205616,0.252689402609292,0.0290531776913099
1580421697.97167,-0.862561989776456,0.240482185091935,0.0363775082017241
1580421697.97567,-0.854749370565347,0.23315785458152,0.0417486839093613
1580421697.97966,-0.854749370565347,0.222415503166246,0.0495613031204698
1580421697.98366,-0.851331349660487,0.211673151750972,0.0529793240253298
1580421697.98765,-0.858167391470207,0.198001068131532,0.0559090562294955
1580421697.99164,-0.862073701075762,0.187258716716258,0.0495613031204698
1580421697.99564,-0.864515144579233,0.172121766994735,0.0441901274128327
1580421697.99963,-0.865003433279927,0.154055085069047,0.044678416113527
1580421698.00362,-0.858655680170902,0.134523537041275,0.0495613031204698
1580421698.00762,-0.848401617456322,0.11108567940795,0.0559090562294955
1580421698.01161,-0.838635843442436,0.0900892652780954,0.0700694285496297
1580421698.0156,-0.830823224231327,0.0642099641412983,0.0798352025635154
1580421698.0196,-0.820080872816053,0.0354009308003356,0.0900892652780954
1580421698.02359,-0.804455634393836,0.00854505226214997,0.102784771496147
1580421698.02758,-0.790783550774396,-0.0236820019836728,0.11108567940795
1580421698.03158,-0.780041199359122,-0.0573739223315783,0.127687495231555
1580421698.03557,-0.76734569314107,-0.0900892652780954,0.135988403143358
1580421698.03956,-0.765880827038988,-0.122316319523918,0.151613641565575
1580421698.04356,-0.757579919127185,-0.146242465857938,0.165285725185015
1580421698.04755,-0.759044785229268,-0.174074921797512,0.183840695811398
1580421698.05154,-0.755626764324408,-0.202883955138475,0.200930800335698
1580421698.05553,-0.757091630426491,-0.229739833676661,0.223392080567635
1580421698.05953,-0.751232166018159,-0.255619134813459,0.244876783398183
1580421698.06352,-0.751720454718853,-0.283939879453728,0.262943465323872
1580421698.06751,-0.753185320820936,-0.308354314488442,0.280033569848172
1580421698.07151,-0.756603341725796,-0.337651636530099,0.298588540474555
1580421698.0755,-0.759533073929962,-0.365972381170367,0.326909285114823
1580421698.07949,-0.76734569314107,-0.39136339360647,0.350835431448843
1580421698.08349,-0.77418173495079,-0.41187151903563,0.373785000381474
1580421698.08748,-0.780529488059816,-0.433844510566873,0.3972228580148
1580421698.09148,-0.790295262073702,-0.458747234302281,0.424078736552985
1580421698.09547,-0.799572747386893,-0.477790493629358,0.452399481193254
1580421698.09946,-0.80494392309453,-0.492439154650187,0.481696803234911
1580421698.10345,-0.809826810101473,-0.499275196459907,0.511482413977266
1580421698.10745,-0.810315098802167,-0.505134660868238,0.52906080720226
1580421698.11144,-0.812756542305639,-0.504646372167544,0.540779736018923
1580421698.11544,-0.805920500495919,-0.501716639963378,0.541268024719617
1580421698.11943,-0.80494392309453,-0.496345464255741,0.529549095902954
1580421698.12342,-0.79810788128481,-0.485114824139773,0.50513466086824
1580421698.12744,-0.79127183947509,-0.473884184023804,0.483649958037688
1580421698.13143,-0.784924086366065,-0.458258945601587,0.457282368200197
1580421698.13543,-0.784924086366065,-0.443121995880064,0.435309376668954
1580421698.13942,-0.782970931563288,-0.426031891355764,0.41089494163424
1580421698.14341,-0.789806973373008,-0.403082322423133,0.396246280613411
1580421698.14741,-0.799572747386893,-0.382085908293279,0.383062485694666
1580421698.1514,-0.804455634393836,-0.363042648966202,0.37671473258564
1580421698.1554,-0.814709697108416,-0.34692912184329,0.368413824673837
1580421698.15939,-0.82545204852369,-0.325932707713436,0.374761577782863
1580421698.16338,-0.838635843442436,-0.306401159685665,0.39038681620508
1580421698.16738,-0.855237659266042,-0.285893034256505,0.414801251239794
1580421698.17137,-0.875745784695201,-0.265384908827345,0.43823910887312
1580421698.17536,-0.892835889219501,-0.242435339894712,0.457770656900891
1580421698.17936,-0.909925993743801,-0.220950637064163,0.474372472724497
1580421698.18335,-0.920180056458381,-0.203372243839169,0.482673380636299
1580421698.18734,-0.933363851377127,-0.184328984512092,0.486579690241854
1580421698.19134,-0.953383688105593,-0.160891126878766,0.495857175555045
1580421698.19533,-0.975356679636835,-0.142336156252384,0.491950865949491
1580421698.19932,-0.98951705195697,-0.119874876020447,0.496833752956434
1580421698.20332,-1.00465400167849,-0.106691081101701,0.491462577248797
1580421698.20731,-1.00807202258335,-0.0939955748836496,0.491950865949491
1580421698.2113,-1.00270084687572,-0.0881361104753182,0.489997711146714
1580421698.21529,-0.985122453650721,-0.0832532234683754,0.481696803234911
1580421698.21929,-0.965102616922255,-0.0861829556725411,0.476325627527274
1580421698.22328,-0.936293583581293,-0.0778820477607383,0.467048142214082
1580421698.22727,-0.908461127641718,-0.0632333867399097,0.470466163118942
1580421698.23127,-0.89381246662089,-0.0373540856031127,0.487556267643242
1580421698.23526,-0.880628671702144,-0.0109864957656214,0.516853589684903
1580421698.23925,-0.867444876783399,0.0144045166704814,0.53247882810712
1580421698.24325,-0.858655680170902,0.0373540856031127,0.543709468223089
1580421698.24724,-0.850354772259099,0.0524910353246355,0.548104066529337
1580421698.25123,-0.841077286945907,0.0598153658350498,0.54615091172656
1580421698.25523,-0.837170977340353,0.067139696345464,0.547127489127949
1580421698.25922,-0.834729533836882,0.0744640268558783,0.537850003814757
1580421698.26321,-0.840100709544519,0.0754406042572668,0.534920271610591
1580421698.26721,-0.848889906157016,0.0769054703593497,0.537361715114063
1580421698.2712,-0.863538567177844,0.0759288929579611,0.549080643930726
1580421698.27519,-0.880628671702144,0.067139696345464,0.554940108339057
1580421698.27919,-0.89723048752575,0.0495613031204698,0.567635614557108
1580421698.28318,-0.908949416342413,0.0285648889906156,0.580819409475854
1580421698.28723,-0.915785458152133,0.000732433051041426,0.573006790264746
1580421698.29122,-0.913832303349356,-0.0207522697795071,0.57007705806058
1580421698.29522,-0.915785458152133,-0.0368657969024184,0.57349507896544
1580421698.29921,-0.930434119172961,-0.0495613031204698,0.565682459754331
1580421698.30321,-0.953383688105593,-0.0520027466239412,0.555428397039751
1580421698.3072,-0.98609903105211,-0.0544441901274126,0.536385137712674
1580421698.31119,-1.0207675288014,-0.0578622110322726,0.534431982909897
1580421698.31519,-1.04078736552987,-0.0715342946517126,0.553475242236974
1580421698.31918,-1.04859998474098,-0.0944838635843439,0.599862668802931
1580421698.32317,-1.04908827344167,-0.118898298619058,0.660410467689022
1580421698.32717,-1.04371709773404,-0.145754177157244,0.720469977874419
1580421698.33116,-1.04957656214237,-0.184328984512092,0.777111467154956
1580421698.33515,-1.07301441977569,-0.226321812771801,0.798596169985505
1580421698.33915,-1.11110093842985,-0.280033569848174,0.756115053025102
1580421698.34314,-1.14381628137636,-0.35718318455787,0.657480735484857
1580421698.34713,-1.12477302204929,-0.472419317921721,0.533455405508509
1580421698.35113,-1.05885404745556,-0.599374380102235,0.389410238803691
1580421698.35512,-0.986587319752804,-0.687266346227206,0.249271381704432
1580421698.35911,-0.929457541771573,-0.716563668268863,0.131105516136415
1580421698.36311,-0.905043106736859,-0.688731212329289,0.024170290684367
1580421698.36706,-0.895277332722973,-0.629159990844586,-0.0827649347676811
1580421698.37106,-0.864515144579233,-0.544686045624475,-0.178469520103761
1580421698.37505,-0.813244831006333,-0.451422903791867,-0.265384908827345
1580421698.37905,-0.76392767223621,-0.345464255741208,-0.300053406576639
1580421698.38304,-0.733653772793163,-0.231692988479438,-0.266361486228734
1580421698.38703,-0.748790722514686,-0.101808194094758,-0.161867704280155
1580421698.39103,-0.809338521400779,0.0485847257190812,-0.0183108262760356
1580421698.39502,-0.911390859845884,0.216067750057221,0.123292896925307
1580421698.39901,-1.03541618982223,0.387457084000914,0.206790264744029
1580421698.40301,-1.16481269550622,0.50171663996338,0.229739833676661
1580421698.407,-1.25123979552911,0.510017547875183,0.198001068131532
1580421698.41099,-1.28249027237354,0.399664301518271,0.147219043259327
1580421698.41499,-1.27467765316243,0.230228122377355,0.102296482795452
1580421698.41898,-1.25026321812772,0.0886243991760125,0.0441901274128327
1580421698.42297,-1.23073167009995,0.000732433051041426,-0.00561532005798426
1580421698.42697,-1.22194247348745,-0.0485847257190812,-0.0485847257190812
1580421698.43096,-1.21071183337148,-0.0729991607537954,-0.0798352025635154
1580421698.43495,-1.18483253223468,-0.0700694285496297,-0.101319905394064
1580421698.43895,-1.14869916838331,-0.0466315709163041,-0.122316319523918
1580421698.44294,-1.10524147402151,-0.00805676356145568,-0.144777599755855
1580421698.44693,-1.06276035706111,0.0158693827725642,-0.168703746089875
1580421698.45092,-1.00611886778058,0.00952162966353853,-0.198977645532921
1580421698.45492,-0.936293583581293,-0.0046387426565957,-0.237064164187075
1580421698.45891,-0.860120546272984,-0.0168459601739528,-0.276615548943314
1580421698.4629,-0.79127183947509,-0.00219729915312428,-0.317143511100939
1580421698.4669,-0.734630350194552,0.0334477759975584,-0.357671473258565
1580421698.47089,-0.695078965438315,0.0803234912642097,-0.376714732585642
1580421698.47488,-0.682871747920958,0.122316319523918,-0.369878690775922
1580421698.47888,-0.707774471656366,0.156496528572518,-0.324467841611353
1580421698.48287,-0.765392538338293,0.196047913328755,-0.258548867017625
1580421698.48687,-0.84254215304799,0.237064164187075,-0.175539787899595
1580421698.49086,-0.929945830472267,0.272709239337757,-0.100343327992675
1580421698.49485,-1.00807202258335,0.299565117875943,-0.0383306630045013
1580421698.49884,-1.07008468757153,0.310795757991912,-0.00805676356145568
1580421698.50284,-1.11110093842985,0.299565117875943,0.00415045395590141
1580421698.50683,-1.13063248645762,0.262943465323872,0.00219729915312428
1580421698.51083,-1.13600366216525,0.206301976043335,-0.0148928053711757
1580421698.51482,-1.12281986724651,0.143801022354467,-0.0354009308003356
1580421698.51881,-1.0979171435111,0.099855039291981,-0.041260395208667
1580421698.52281,-1.07447928587777,0.0827649347676811,-0.0358892195010299
1580421698.52679,-1.04811169604028,0.0881361104753182,-0.0280766002899213
1580421698.53079,-1.03102159151598,0.110109102006561,-0.0256351567864499
1580421698.53478,-1.01149004348821,0.137941557946135,-0.0305180437933927
1580421698.53877,-0.996841382467384,0.164797436484321,-0.0407721065079727
1580421698.54277,-0.981216144045167,0.190676737621118,-0.0427252613107498
1580421698.54676,-0.967544060425727,0.215091172655832,-0.0563973449301898
1580421698.55076,-0.959731441214618,0.235599298084992,-0.070557717250324
1580421698.55475,-0.94850080109865,0.249271381704432,-0.0856946669718468
1580421698.55874,-0.933852140077821,0.250736247806515,-0.101319905394064
1580421698.56274,-0.92115663385977,0.239017318989852,-0.102296482795452
1580421698.56673,-0.908949416342413,0.220950637064163,-0.0949721522850382
1580421698.57072,-0.903578240634776,0.199954222934309,-0.0827649347676811
1580421698.57472,-0.896253910124361,0.174074921797512,-0.0759288929579611
1580421698.57871,-0.892347600518807,0.150637064164187,-0.0661631189440754
1580421698.5827,-0.900160219729916,0.127199206530861,-0.0627450980392155
1580421698.5867,-0.908461127641718,0.116456855115587,-0.0559090562294955
1580421698.59069,-0.914808880750744,0.110597390707255,-0.0529793240253298
1580421698.59468,-0.92115663385977,0.10766765850309,-0.0554207675288012
1580421698.59868,-0.931898985275044,0.107179369802395,-0.0607919432364383
1580421698.60267,-0.942641336690318,0.104737926298924,-0.0559090562294955
1580421698.60669,-0.957778286411841,0.100343327992675,-0.0642099641412983
1580421698.61068,-0.965102616922255,0.0871595330739297,-0.0720225833524069
1580421698.61468,-0.977309834439613,0.0695811398489354,-0.0817883573662925
1580421698.61867,-0.983657587548638,0.0422369726100555,-0.0764171816586554
1580421698.62266,-0.986587319752804,0.0187991149767299,-0.0598153658350498
1580421698.62666,-0.994888227664607,0.00122072175173571,-0.044678416113527
1580421698.63065,-1.00025940337224,-0.00903334096284425,-0.0280766002899213
1580421698.63464,-1.00270084687572,-0.0144045166704814,-0.0227054245822842
1580421698.63864,-1.0041657129778,-0.01196307316701,-0.0153810940718699
1580421698.64263,-1.00514229037919,-0.00854505226214997,-0.0104982070649271
1580421698.64662,-0.99977111467155,-0.00366216525520713,-0.0104982070649271
1580421698.65062,-0.990981918059052,0.00561532005798426,-0.0144045166704814
1580421698.65461,-0.976333257038224,0.0139162279697871,-0.0134279392690928
1580421698.6586,-0.970962081330587,0.0256351567864499,-0.00903334096284425
1580421698.6626,-0.959731441214618,0.034424353398947,-0.00952162966353853
1580421698.66659,-0.952407110704204,0.0422369726100555,-0.0109864957656214
1580421698.67058,-0.929457541771573,0.0407721065079727,-0.0187991149767299
1580421698.67458,-0.937758449683376,0.0500495918211641,-0.0251468680857556
1580421698.67857,-0.906996261539636,0.0441901274128327,-0.0256351567864499
1580421698.68257,-0.919203479056993,0.0666514076447697,-0.0236820019836728
1580421698.68655,-0.928480964370184,0.0769054703593497,-0.0236820019836728
1580421698.69055,-0.914808880750744,0.0832532234683754,-0.0212405584802013
1580421698.69454,-0.900160219729916,0.0979018844892039,-0.0314946211947813
1580421698.69853,-0.933852140077821,0.128664072632944,-0.0524910353246355
1580421698.70253,-0.912855725947967,0.112550545510032,-0.0695811398489354
1580421698.70652,-0.983169298847944,0.197512779430838,-0.0954604409857325
1580421698.71052,-0.974380102235447,0.161379415579461,-0.114991989013504
1580421698.71451,-0.954848554207675,0.157961394674601,-0.11792172121767
1580421698.7185,-0.958266575112535,0.178957808804455,-0.138429846646829
1580421698.72249,-0.965102616922255,0.194583047226672,-0.145265888456549
1580421698.72649,-0.964126039520867,0.211673151750972,-0.148683909361409
1580421698.73048,-0.960219729915313,0.216556038757915,-0.157961394674601
1580421698.73448,-0.961684596017395,0.223880369268329,-0.169680323491264
1580421698.73847,-0.957289997711147,0.234134431982909,-0.173586633096818
1580421698.74246,-0.959731441214618,0.252201113908598,-0.173098344396124
1580421698.74646,-0.967544060425727,0.265384908827343,-0.165774013885709
1580421698.75045,-0.973403524834058,0.280033569848172,-0.158449683375295
1580421698.75444,-0.981216144045167,0.290775921263446,-0.156008239871824
1580421698.75844,-0.995376516365301,0.292729076066223,-0.150148775463492
1580421698.76243,-1.01149004348821,0.280521858548866,-0.151125352864881
1580421698.76645,-1.03688105592432,0.263431754024566,-0.137453269245441
1580421698.77044,-1.05201800564584,0.238040741588463,-0.12475776302739
1580421698.77444,-1.05690089265278,0.189700160219729,-0.106202792401007
1580421698.77843,-1.0383459220264,0.145754177157244,-0.0827649347676811
1580421698.78242,-1.01832608529793,0.0930189974822611,-0.0617685206378269
1580421698.78642,-1.00025940337224,0.0510261692225527,-0.0466315709163041
1580421698.79041,-0.994888227664607,0.0285648889906156,-0.041260395208667
1580421698.7944,-0.998794537270161,0.01196307316701,-0.0456549935149155
1580421698.7984,-1.01100175478752,0.000732433051041426,-0.0471198596169984
1580421698.80239,-1.0295567254139,-0.00561532005798426,-0.044678416113527
1580421698.80638,-1.05201800564584,-0.0183108262760356,-0.0334477759975584
1580421698.81038,-1.07447928587777,-0.027588311589227,-0.0158693827725642
1580421698.81437,-1.09108110170138,-0.0383306630045013,0.00366216525520713
1580421698.81836,-1.10768291752499,-0.0427252613107498,0.0305180437933927
1580421698.82236,-1.13405050736248,-0.0363775082017241,0.0617685206378269
1580421698.82635,-1.16139467460136,-0.0227054245822842,0.0817883573662925
1580421698.83034,-1.18580910963607,-0.00903334096284425,0.0861829556725411
1580421698.83434,-1.21266498817426,-0.00708018616006711,0.0788586251621268
1580421698.83833,-1.22975509269856,-0.00561532005798426,0.0666514076447697
1580421698.84232,-1.23707942320897,-0.00708018616006711,0.0710460059510183
1580421698.84631,-1.23903257801175,-0.0075684748607614,0.0681162737468526
1580421698.85031,-1.22926680399786,-0.01196307316701,0.0725108720531011
1580421698.8543,-1.22145418478675,-0.0134279392690928,0.0725108720531011
1580421698.85829,-1.22145418478675,-0.0075684748607614,0.070557717250324
1580421698.86229,-1.22389562829023,0.000732433051041426,0.0617685206378269
1580421698.86628,-1.23512626840619,0.0139162279697871,0.0441901274128327
1580421698.87027,-1.24489204242008,0.0207522697795071,0.0134279392690928
1580421698.87427,-1.25319295033188,0.0251468680857556,-0.0104982070649271
1580421698.87826,-1.25368123903258,0.0251468680857556,-0.0295414663920042
1580421698.88225,-1.25709925993744,0.0256351567864499,-0.0251468680857556
1580421698.88625,-1.26979476615549,0.0280766002899213,-0.00170901045242999
1580421698.89024,-1.29323262378882,0.031006332494087,0.0236820019836728
1580421698.89423,-1.31520561532006,0.031006332494087,0.0544441901274126
1580421698.89823,-1.34303807125963,0.0271000228885327,0.0827649347676811
1580421698.90222,-1.36501106279088,0.0202639810788128,0.0925307087815668
1580421698.90622,-1.3796597238117,0.0144045166704814,0.100343327992675
1580421698.91021,-1.38649576562142,0.00805676356145568,0.105714503700312
1580421698.9142,-1.39235523002976,0.00561532005798426,0.105226214999618
1580421698.9182,-1.39137865262837,-0.00170901045242999,0.106202792401007
1580421698.92219,-1.3884489204242,-0.0109864957656214,0.0866712443732354
1580421698.92618,-1.38747234302281,-0.0314946211947813,0.0720225833524069
1580421698.93017,-1.38796063172351,-0.0456549935149155,0.0539559014267184
1580421698.93417,-1.39235523002976,-0.060303654535744,0.0451667048142212
1580421698.93816,-1.40798046845197,-0.0725108720531011,0.0539559014267184
1580421698.94215,-1.43044174868391,-0.0813000686655982,0.0598153658350498
1580421698.94614,-1.44509040970474,-0.0852063782711525,0.063721675440604
1580421698.95014,-1.46315709163043,-0.0822766460669868,0.0803234912642097
1580421698.95413,-1.47927061875334,-0.0583504997329669,0.123292896925307
1580421698.95813,-1.48415350576028,-0.0373540856031127,0.183352407110704
1580421698.96212,-1.47341115434501,-0.0329594872968642,0.23999389639124
1580421698.96611,-1.45143816281376,-0.0520027466239412,0.291752498664835
1580421698.97011,-1.42214084077211,-0.0900892652780954,0.329350728618294
1580421698.9741,-1.39919127183948,-0.133546959639887,0.351323720149537
1580421698.97809,-1.37477683680476,-0.182864118410009,0.35962462806134
1580421698.98209,-1.34938582436866,-0.238529030289158,0.362066071564811
1580421698.98608,-1.32204165712978,-0.287846189059282,0.354741741054397
1580421698.99007,-1.2859082932784,-0.332768749523156,0.344975967040511
1580421698.99407,-1.26149385824369,-0.358159761959259,0.33228046082246
1580421698.99806,-1.23952086671244,-0.36743724727245,0.320073243305103
1580421699.00205,-1.23268482490272,-0.364995803768979,0.319584954604409
1580421699.00607,-1.23170824750133,-0.344975967040513,0.311284046692606
1580421699.01007,-1.25026321812772,-0.305912870984971,0.288334477759975
1580421699.01406,-1.2863965819791,-0.248294804303043,0.262455176623178
1580421699.01805,-1.32643625543603,-0.175539787899595,0.232181277180132
1580421699.02205,-1.36989394979782,-0.101319905394064,0.178957808804455
1580421699.02604,-1.40846875715267,-0.0383306630045013,0.119874876020447
1580421699.03003,-1.4314183260853,0.0114747844663157,0.0397955291065841
1580421699.03403,-1.43532463569085,0.0490730144197755,-0.0852063782711525
1580421699.03802,-1.42214084077211,0.0793469138628211,-0.231692988479438
1580421699.04201,-1.38600747692073,0.105714503700312,-0.396734569314107
1580421699.04601,-1.3459678034638,0.122804608224612,-0.56568245975433
1580421699.05,-1.31960021362631,0.135500114442664,-0.713145647364003
1580421699.05399,-1.30739299610895,0.149172198062104,-0.81519798580911
1580421699.05799,-1.31520561532006,0.157473105973907,-0.898207064927139
1580421699.06198,-1.3283894102388,0.166750591287098,-0.93141069657435
1580421699.06597,-1.34206149385824,0.183840695811398,-0.93824673838407
1580421699.06997,-1.35231555657282,0.211184863050278,-0.905043106736859
1580421699.07396,-1.3796597238117,0.252201113908598,-0.841077286945907
1580421699.07796,-1.41628137636378,0.285404745555809,-0.776623178454262
1580421699.08195,-1.4572976272221,0.321538109407186,-0.705333028152895
1580421699.08594,-1.50954451819638,0.351323720149537,-0.609140154116121
1580421699.08993,-1.55788509956512,0.3630426489662,-0.489997711146716
1580421699.09392,-1.60915541313802,0.345464255741206,-0.362066071564813
1580421699.09792,-1.64577706569009,0.28784618905928,-0.249271381704432
1580421699.10191,-1.65212481879911,0.202883955138475,-0.164797436484321
1580421699.1059,-1.63112840466926,0.102296482795452,-0.112550545510032
1580421699.1099,-1.61452658884565,-0.00170901045242999,-0.0939955748836496
1580421699.11389,-1.5847409781033,-0.0974135957885096,-0.0944838635843439
1580421699.11788,-1.55837338826581,-0.167238879987792,-0.103273060196841
1580421699.12188,-1.5251697566186,-0.210696574349583,-0.112550545510032
1580421699.12587,-1.49391927977417,-0.223392080567635,-0.124269474326695
1580421699.12987,-1.45632104982071,-0.208255130846112,-0.136476691844052
1580421699.13386,-1.42067597467002,-0.188235294117646,-0.167727168688486
1580421699.13785,-1.38698405432212,-0.169192034790569,-0.198489356832226
1580421699.14185,-1.35133897917144,-0.169192034790569,-0.220462348363469
1580421699.14584,-1.30788128480964,-0.187747005416952,-0.230716411078049
1580421699.14983,-1.26784161135271,-0.222903791866941,-0.232669565880826
1580421699.15383,-1.21950102998398,-0.258548867017625,-0.237064164187075
1580421699.15782,-1.17018387121385,-0.288822766460671,-0.23657587548638
1580421699.16181,-1.12086671244373,-0.310795757991913,-0.242435339894712
1580421699.1658,-1.06959639887083,-0.311284046692608,-0.252689402609294
1580421699.1698,-1.01979095140002,-0.300541695277333,-0.262455176623179
1580421699.17379,-0.97926298924239,-0.272220950637065,-0.277103837644008
1580421699.17778,-0.94850080109865,-0.231692988479438,-0.287357900358588
1580421699.18178,-0.91090257114519,-0.182375829709315,-0.295170519569696
1580421699.18577,-0.878675516899367,-0.129640650034332,-0.294682230869002
1580421699.18976,-0.854261081864653,-0.0754406042572668,-0.293705653467613
1580421699.19376,-0.830823224231327,-0.0139162279697871,-0.295658808270391
1580421699.19775,-0.807873655298696,0.0319829098954756,-0.285893034256505
1580421699.20174,-0.790295262073702,0.0769054703593497,-0.283939879453728
1580421699.20574,-0.770275425345236,0.115968566414892,-0.283939879453728
1580421699.20973,-0.747325856412603,0.137941557946135,-0.280033569848174
1580421699.21372,-0.719005111772335,0.152101930266269,-0.280521858548868
1580421699.21772,-0.698496986343175,0.158449683375295,-0.275150682841231
1580421699.22171,-0.675059128709849,0.152590218966964,-0.276127260242619
1580421699.2257,-0.649179827573052,0.142824444953078,-0.276127260242619
1580421699.2297,-0.621835660334172,0.135500114442664,-0.277103837644008
1580421699.23369,-0.600839246204318,0.127199206530861,-0.284916456855116
1580421699.23768,-0.576424811169604,0.119386587319752,-0.291264209964142
1580421699.24168,-0.552498664835584,0.114991989013504,-0.300053406576639
1580421699.2457,-0.527595941100175,0.112062256809338,-0.315678644998856
1580421699.24969,-0.496833752956436,0.108644235904478,-0.344487678339819
1580421699.25368,-0.46997787441825,0.101808194094758,-0.369878690775922
1580421699.25768,-0.442145418478676,0.096437018387121,-0.400640878919662
1580421699.26167,-0.41528953994049,0.0856946669718468,-0.43237964446479
1580421699.26566,-0.386480506599527,0.0778820477607383,-0.464118410009918
1580421699.26966,-0.361089494163425,0.0720225833524069,-0.495857175555047
1580421699.27365,-0.333745326924545,0.0690928511482412,-0.532478828107118
1580421699.27764,-0.308842603189136,0.0681162737468526,-0.557869840543221
1580421699.28164,-0.285404745555811,0.0656748302433812,-0.582284275577935
1580421699.28563,-0.267338063630122,0.0686045624475469,-0.592538338292515
1580421699.28962,-0.248294804303043,0.0666514076447697,-0.592050049591821
1580421699.29362,-0.24682993820096,0.060303654535744,-0.584237430380712
1580421699.29761,-0.237064164187075,0.0427252613107498,-0.558358129243915
1580421699.30161,-0.227786678873883,-0.00317387655451284,-0.526619363698787
1580421699.3056,-0.222903791866941,-0.0598153658350498,-0.486091401541161
1580421699.30959,-0.206790264744029,-0.132570382238498,-0.438727397573816
1580421699.31359,-0.196047913328755,-0.201419089036392,-0.389410238803693
1580421699.31758,-0.178957808804455,-0.263920042725262,-0.325444419012742
1580421699.32157,-0.170656900892652,-0.312260624093996,-0.241458762493323
1580421699.32556,-0.180910963607232,-0.336186770428016,-0.130617227435721
1580421699.32956,-0.219485770962081,-0.318608377203022,-0.00708018616006711
1580421699.33355,-0.284916456855116,-0.280033569848174,0.123292896925307
1580421699.33754,-0.37769130998703,-0.23315785458152,0.255130846112763
1580421699.34153,-0.476325627527276,-0.187258716716258,0.393316548409246
1580421699.34553,-0.583260852979324,-0.146730754558632,0.516365300984209
1580421699.34952,-0.689219501029983,-0.111573968108644,0.628671702143894
1580421699.35352,-0.796643015182728,-0.080811779964904,0.728770885786222
1580421699.35751,-0.90748455024033,-0.0656748302433812,0.842053864347296
1580421699.3615,-1.03102159151598,-0.0734874494544897,0.966079194323644
1580421699.3655,-1.16920729381247,-0.109620813305867,1.1062180514229
1580421699.36949,-1.31911192492561,-0.185793850614175,1.25514610513466
1580421699.37348,-1.47780575265126,-0.291752498664836,1.36501106279087
1580421699.37748,-1.59157701991302,-0.434821087968261,1.414328221561
1580421699.38147,-1.63405813687343,-0.606698710612649,1.42458228427558
1580421699.38546,-1.64089417868315,-0.724864576180666,1.39821469443809
1580421699.38946,-1.65603112840467,-0.732677195391775,1.34206149385824
1580421699.39345,-1.67800411993591,-0.636484321355001,1.25807583733883
1580421699.39744,-1.68972304875257,-0.486091401541161,1.15407034409094
1580421699.40144,-1.65407797360189,-0.307866025787748,1.02272068360418
1580421699.40543,-1.54274814984359,-0.135011825741969,0.88355840390631
1580421699.40942,-1.38698405432212,0.00708018616006711,0.706797894254979
1580421699.41341,-1.225848783093,0.0822766460669868,0.520271610589763
1580421699.41741,-1.08863965819791,0.0910658426794839,0.367925535973143
1580421699.4214,-0.985610742351415,0.0485847257190812,0.275638971541923
1580421699.42539,-0.931898985275044,-0.0134279392690928,0.258548867017623
1580421699.42939,-0.917250324254216,-0.0573739223315783,0.304448004882886
1580421699.43338,-0.928480964370184,-0.0744640268558783,0.385992217898831
1580421699.43737,-0.943617914091707,-0.0651865415426869,0.494880598153657
1580421699.44137,-0.953871976806287,-0.041260395208667,0.595468070496683
1580421699.44536,-0.948012512397955,-0.0100099183642328,0.662363622491799
1580421699.44935,-0.932875562676433,0.0231937132829785,0.748302433813993
1580421699.45335,-0.937270160982681,0.063721675440604,0.86305027847715
1580421699.45734,-0.958266575112535,0.116945143816281,0.932387273975738
1580421699.46133,-0.972915236133364,0.175051499198901,0.925062943465324
1580421699.46533,-0.980727855344472,0.246341649500266,0.84254215304799
1580421699.46932,-0.973891813534753,0.319584954604409,0.711192492561228
1580421699.47332,-0.994888227664607,0.385992217898831,0.495857175555045
1580421699.47731,-1.09010452429999,0.42114900434882,0.191165026321812
1580421699.4813,-1.15065232318608,0.392339971007857,-0.182375829709315
1580421699.48532,-1.14381628137636,0.297123674372472,-0.522224765392538
1580421699.48931,-1.11744869153887,0.164309147783626,-0.740978103303577
1580421699.49331,-1.07789730678263,0.00952162966353853,-0.812756542305639
1580421699.4973,-1.01441977569238,-0.159426260776684,-0.750743877317465
1580421699.50129,-0.954848554207675,-0.326909285114825,-0.589608606088349
1580421699.50529,-0.940688181887541,-0.462165255207141,-0.37085526817731
1580421699.50928,-0.984145876249332,-0.573983367666132,-0.129640650034332
1580421699.51327,-1.04420538643473,-0.634531166552224,0.073975738155184
1580421699.51727,-1.09889372091249,-0.564217593652247,0.245853360799572
1580421699.52126,-1.1750667582208,-0.307866025787748,0.339604791332874
1580421699.52526,-1.29713893339437,0.0778820477607383,0.330815594720377
1580421699.52925,-1.44655527580682,0.410406652933546,0.272220950637063
1580421699.53324,-1.56423285267414,0.516365300984209,0.147219043259327
1580421699.53724,-1.60329594872969,0.426031891355763,0.000244144350347142
1580421699.54123,-1.56960402838178,0.227786678873883,-0.110597390707255
1580421699.54522,-1.48317692835889,-0.000244144350347142,-0.158449683375295
1580421699.54922,-1.34889753566796,-0.218997482261386,-0.159426260776684
1580421699.55321,-1.17701991302357,-0.385015640497445,-0.134523537041275
1580421699.5572,-1.00465400167849,-0.472907606622416,-0.104737926298924
1580421699.5612,-0.879652094300756,-0.46655985351339,-0.104737926298924
1580421699.56518,-0.80152590218967,-0.386968795300222,-0.148195620660715
1580421699.56918,-0.769787136644542,-0.267826352330816,-0.227786678873883
1580421699.57317,-0.760509651331351,-0.134523537041275,-0.316166933699551
1580421699.57717,-0.769298847943848,0.00512703135728998,-0.405523765926604
1580421699.58116,-0.775158312352179,0.140871290150301,-0.498786907759213
1580421699.58515,-0.760509651331351,0.246341649500266,-0.613534752422369
1580421699.58915,-0.723887998779277,0.323979552910657,-0.700450141145952
1580421699.59314,-0.689219501029983,0.387457084000914,-0.73560692759594
1580421699.59713,-0.684824902723735,0.45874723430228,-0.717051956969557
1580421699.60113,-0.729747463187609,0.559334706645306,-0.665781643396658
1580421699.60512,-0.817151140611887,0.677988860914017,-0.604745555809872
1580421699.60911,-0.936781872281987,0.79810788128481,-0.54517433432517
1580421699.61311,-1.05348287174792,0.884046692607004,-0.490974288548104
1580421699.6171,-1.14869916838331,0.907972838941024,-0.462653543907836
1580421699.62109,-1.19508659494926,0.84596017395285,-0.449958037689784
1580421699.62509,-1.20094605935759,0.713633936064699,-0.433844510566873
1580421699.62908,-1.18922713054093,0.552010376134891,-0.399176012817579
1580421699.63307,-1.18287937743191,0.421637293049514,-0.361089494163425
1580421699.63707,-1.18873884184024,0.327397573815517,-0.326909285114825
1580421699.64106,-1.19850461585412,0.271244373235675,-0.315190356298162
1580421699.64508,-1.19264515144579,0.230716411078049,-0.32642099641413
1580421699.64907,-1.17653162432288,0.194583047226672,-0.33667505912871
1580421699.65307,-1.14381628137636,0.173098344396124,-0.331792172121768
1580421699.65706,-1.11061264972915,0.164797436484321,-0.302983138780805
1580421699.66105,-1.05934233615625,0.162844281681544,-0.269779507133594
1580421699.66505,-1.00318913557641,0.156984817273212,-0.241947051194018
1580421699.66904,-0.949477378500038,0.136964980544747,-0.221438925764858
1580421699.67303,-0.90406652933547,0.112550545510032,-0.215579461356526
1580421699.67703,-0.870862897688259,0.077393759060044,-0.211673151750972
1580421699.68102,-0.84596017395285,0.0417486839093613,-0.217532616159303
1580421699.68501,-0.833264667734799,0.0046387426565957,-0.214114595254443
1580421699.68901,-0.830823224231327,-0.0295414663920042,-0.206790264744029
1580421699.693,-0.836682688639659,-0.0534676127260241,-0.181887541008621
1580421699.697,-0.855237659266042,-0.0651865415426869,-0.156496528572518
1580421699.70099,-0.871351186388953,-0.070557717250324,-0.128664072632944
1580421699.70498,-0.887464713511864,-0.0656748302433812,-0.106202792401007
1580421699.70898,-0.900160219729916,-0.0520027466239412,-0.0954604409857325
1580421699.71297,-0.904554818036164,-0.0314946211947813,-0.0754406042572668
1580421699.71696,-0.917250324254216,-0.00219729915312428,-0.070557717250324
1580421699.72096,-0.94166475928893,0.0329594872968642,-0.0622568093385212
1580421699.72494,-0.95191882200351,0.0690928511482412,-0.060303654535744
1580421699.72894,-0.957778286411841,0.099855039291981,-0.0441901274128327
1580421699.73293,-0.961684596017395,0.126710917830167,-0.0466315709163041
1580421699.73692,-0.956801709010453,0.133058670939192,-0.0563973449301898
1580421699.74092,-0.949965667200733,0.125734340428778,-0.063721675440604
1580421699.74491,-0.900160219729916,0.0896009765774011,-0.0710460059510183
1580421699.74891,-0.907972838941024,0.179934386205844,-0.0686045624475469
1580421699.7529,-0.774670023651485,0.197512779430838,-0.0822766460669868
1580421699.75689,-1.16530098420691,0.177492942702372,-0.164797436484321
1580421699.76089,-0.968520637827115,-0.0236820019836728,-0.0759288929579611
1580421699.76488,-0.913832303349356,0.0197756923781185,-0.0754406042572668
1580421699.76887,-0.936293583581293,0.0114747844663157,-0.0979018844892039
1580421699.77287,-0.946547646295873,0.01196307316701,-0.0900892652780954
1580421699.77686,-0.96217288471809,0.0100099183642328,-0.0764171816586554
1580421699.78085,-0.955825131609064,0.00317387655451284,-0.063721675440604
1580421699.78485,-0.952895399404898,0.00366216525520713,-0.0681162737468526
1580421699.78884,-0.947035934996567,-0.0109864957656214,-0.0720225833524069
1580421699.79283,-0.954360265506981,-0.0139162279697871,-0.0788586251621268
1580421699.79683,-0.94850080109865,-0.0168459601739528,-0.0920424200808725
1580421699.80082,-0.938735027084764,-0.00952162966353853,-0.101319905394064
1580421699.80481,-0.929945830472267,0.0075684748607614,-0.119386587319752
1580421699.8088,-0.911390859845884,0.0236820019836728,-0.139894712748912
1580421699.8128,-0.898695353627833,0.0588387884336612,-0.161867704280155
1580421699.81679,-0.896253910124361,0.0959487296864268,-0.175051499198901
1580421699.82078,-0.903578240634776,0.134523537041275,-0.180422674906538
1580421699.82478,-0.919691767757687,0.170168612191958,-0.177004654001678
1580421699.82877,-0.937270160982681,0.198489356832226,-0.164309147783626
1580421699.83276,-0.961196307316701,0.220950637064163,-0.157473105973907
1580421699.83676,-0.982192721446555,0.234134431982909,-0.133546959639887
1580421699.84075,-1.01197833218891,0.236087586785686,-0.119386587319752
1580421699.84474,-1.04615854123751,0.226810101472495,-0.0861829556725411
1580421699.84874,-1.07496757457847,0.202395666437781,-0.0544441901274126
1580421699.85273,-1.1062180514229,0.164309147783626,-0.00170901045242999
1580421699.85672,-1.13649195086595,0.121828030823224,0.0529793240253298
1580421699.86072,-1.15992980849927,0.077393759060044,0.123292896925307
1580421699.86471,-1.17311360341802,0.0271000228885327,0.186282139314869
1580421699.86871,-1.17848477912566,-0.0227054245822842,0.251224536507209
1580421699.8727,-1.17848477912566,-0.0651865415426869,0.320073243305103
1580421699.87669,-1.17750820172427,-0.0954604409857325,0.365972381170366
1580421699.88069,-1.18287937743191,-0.108155947203784,0.373785000381474
1580421699.88473,-1.18678568703746,-0.122316319523918,0.338139925230792
1580421699.88873,-1.19118028534371,-0.125734340428778,0.302006561379415
1580421699.89272,-1.2087586785687,-0.119874876020447,0.280521858548866
1580421699.89671,-1.24147402151522,-0.100343327992675,0.282475013351643
1580421699.90071,-1.28834973678187,-0.0661631189440754,0.284916456855115
1580421699.9047,-1.34254978255894,-0.0295414663920042,0.286869611657892
1580421699.9087,-1.396749828336,0.00317387655451284,0.275638971541923
1580421699.91269,-1.43581292439155,0.0290531776913099,0.256107423514152
1580421699.91668,-1.45143816281376,0.0505378805218584,0.237552452887769
1580421699.92068,-1.44509040970474,0.0563973449301898,0.217532616159303
1580421699.92467,-1.41823453116655,0.0456549935149155,0.197512779430838
1580421699.92866,-1.38796063172351,0.0163576714732585,0.170656900892652
1580421699.93266,-1.35963988708324,-0.0217288471808956,0.138918135347524
1580421699.93665,-1.33864347295338,-0.0500495918211641,0.0905775539787896
1580421699.94064,-1.31960021362631,-0.0690928511482412,0.0573739223315783
1580421699.94464,-1.31227588311589,-0.0759288929579611,0.0500495918211641
1580421699.94863,-1.31764705882353,-0.0710460059510183,0.0554207675288012
1580421699.95262,-1.32985427634089,-0.0646982528419926,0.0847180895704582
1580421699.95662,-1.34401464866102,-0.0583504997329669,0.110597390707255
1580421699.96061,-1.35378042267491,-0.0593270771343555,0.136964980544747
1580421699.9646,-1.35866330968185,-0.0588387884336612,0.155519951171129
1580421699.96859,-1.36745250629435,-0.0510261692225527,0.162355992980849
1580421699.97259,-1.37233539330129,-0.0407721065079727,0.164309147783626
1580421699.97658,-1.3718471046006,-0.0402838178072784,0.172610055695429
1580421699.98057,-1.35378042267491,-0.0544441901274126,0.186282139314869
1580421699.98457,-1.33669031815061,-0.0764171816586554,0.206301976043335
1580421699.98856,-1.320088502327,-0.0896009765774011,0.228763256275272
1580421699.99255,-1.33180743114366,-0.0788586251621268,0.251712825207903
1580421699.99655,-1.37526512550546,-0.0324711985961699,0.292729076066223
1580421700.00054,-1.43190661478599,0.0305180437933927,0.347905699244677
1580421700.00453,-1.48317692835889,0.0920424200808725,0.400152590218966
1580421700.00853,-1.50563820859083,0.152590218966964,0.416754406042571
1580421700.01252,-1.49831387808042,0.211184863050278,0.398199435416188
1580421700.01652,-1.4826886396582,0.25366598001068,0.375738155184251
1580421700.02051,-1.45876249332418,0.25366598001068,0.346440833142594
1580421700.0245,-1.41628137636378,0.207766842145418,0.293705653467612
1580421700.02849,-1.36159304188602,0.127687495231555,0.226321812771801
1580421700.03249,-1.3029983978027,0.0588387884336612,0.153566796368352
1580421700.03648,-1.24635690852216,0.0183108262760356,0.0778820477607383
1580421700.04048,-1.21608300907912,0.000244144350347142,0.0280766002899213
1580421700.04446,-1.1916685740444,-0.0134279392690928,0.00317387655451284
1580421700.04846,-1.17946135652705,-0.0354009308003356,0.0100099183642328
1580421700.05245,-1.16676585030899,-0.0695811398489354,0.0290531776913099
1580421700.05644,-1.16334782940413,-0.0988784618905925,0.0324711985961699
1580421700.06044,-1.17946135652705,-0.114991989013504,0.0158693827725642
1580421700.06443,-1.2175478751812,-0.0793469138628211,-0.0158693827725642
1580421700.06842,-1.27516594186313,-0.00659189745937283,-0.0534676127260241
1580421700.07242,-1.34743266956588,0.109620813305867,-0.070557717250324
1580421700.07641,-1.41188677805753,0.231204699778743,-0.0915541313801782
1580421700.0804,-1.45876249332418,0.340093080033569,-0.163332570382238
1580421700.0844,-1.49489585717556,0.431891355764094,-0.281498435950256
1580421700.08839,-1.50563820859083,0.493415732051574,-0.457770656900893
1580421700.09239,-1.51247425040055,0.515877012283514,-0.670664530403601
1580421700.09638,-1.5080796520943,0.507576104371712,-0.877210650797284
1580421700.10037,-1.48903639276722,0.476325627527274,-1.04518196383612
1580421700.10437,-1.45485618371862,0.421637293049514,-1.14186312657359
1580421700.10836,-1.4055390249485,0.350347142748149,-1.13795681696803
1580421700.11235,-1.35085069047074,0.2605020218204,-1.06031891355764
1580421700.11635,-1.3112993057145,0.146730754558632,-0.908461127641718
1580421700.12034,-1.30739299610895,0.0192874036774242,-0.738048371099412
1580421700.12436,-1.32985427634089,-0.102784771496147,-0.573006790264744
1580421700.12835,-1.3884489204242,-0.186770428015564,-0.433356221866179
1580421700.13235,-1.48952468146792,-0.242435339894712,-0.321049820706493
1580421700.13634,-1.60964370183871,-0.279056992446785,-0.250736247806516
1580421700.14033,-1.71950865949493,-0.322514686808576,-0.219974059662775
1580421700.14433,-1.77907988097963,-0.37427328908217,-0.219974059662775
1580421700.14832,-1.79324025329976,-0.438239108873121,-0.225345235370412
1580421700.15231,-1.78689250019074,-0.501228351262684,-0.206301976043335
1580421700.15631,-1.76882581826505,-0.554940108339055,-0.166262302586404
1580421700.1603,-1.74294651712825,-0.575448233768215,-0.131593804837109
1580421700.16429,-1.70730144197757,-0.559822995345998,-0.103761348897535
1580421700.16829,-1.66677347981994,-0.508064393072404,-0.096437018387121
1580421700.17228,-1.63308155947204,-0.423590447852293,-0.105226214999618
1580421700.17627,-1.59597161821927,-0.336186770428016,-0.144289311055161
1580421700.18027,-1.56960402838178,-0.256595712214848,-0.189700160219729
1580421700.18426,-1.5422598611429,-0.201419089036392,-0.234134431982909
1580421700.18825,-1.51833371480888,-0.167238879987792,-0.273685816739148
1580421700.19225,-1.48513008316167,-0.164797436484321,-0.302494850080111
1580421700.19624,-1.44948500801099,-0.172610055695429,-0.316166933699551
1580421700.20023,-1.41335164415961,-0.196047913328755,-0.334233615625239
1580421700.20422,-1.37624170290684,-0.229251544975966,-0.344487678339819
1580421700.20822,-1.32936598764019,-0.263920042725262,-0.34692912184329
1580421700.21221,-1.28151369497215,-0.298588540474556,-0.349858854047456
1580421700.2162,-1.225848783093,-0.322026398107882,-0.345464255741208
1580421700.2202,-1.16481269550622,-0.325444419012742,-0.353276874952316
1580421700.22419,-1.10572976272221,-0.310795757991913,-0.351323720149539
1580421700.22818,-1.05104142824445,-0.282475013351645,-0.347905699244679
1580421700.23218,-1.00270084687572,-0.23999389639124,-0.343022812237736
1580421700.23617,-0.959243152513924,-0.185793850614175,-0.339604791332876
1580421700.24016,-0.925551232166018,-0.130128938735027,-0.331303883421073
1580421700.24416,-0.878187228198673,-0.0734874494544897,-0.323491264209965
1580421700.24815,-0.84596017395285,-0.0100099183642328,-0.319096665903716
1580421700.25214,-0.815686274509805,0.0417486839093613,-0.321538109407188
1580421700.25614,-0.78443579766537,0.0822766460669868,-0.32642099641413
1580421700.26013,-0.751720454718853,0.114991989013504,-0.339604791332876
1580421700.26413,-0.707774471656366,0.140871290150301,-0.359136339360647
1580421700.26812,-0.663828488593881,0.164797436484321,-0.380132753490502
1580421700.27211,-0.618417639429312,0.181399252307926,-0.405523765926604
1580421700.27611,-0.573495078965438,0.196536202029449,-0.434821087968261
1580421700.2801,-0.527107652399481,0.205325398641946,-0.469001297016861
1580421700.28409,-0.480720225833524,0.212161440451666,-0.492439154650187
1580421700.28808,-0.437262531471733,0.213138017853055,-0.522224765392538
1580421700.29207,-0.393804837109942,0.216556038757915,-0.547127489127947
1580421700.29607,-0.353276874952316,0.214602883955138,-0.574471656366827
1580421700.30006,-0.317143511100939,0.216556038757915,-0.601327534905012
1580421700.30405,-0.277592126344702,0.210208285648889,-0.630136568245975
1580421700.30805,-0.23999389639124,0.204348821240558,-0.653574425879301
1580421700.31204,-0.209719996948195,0.201907377737086,-0.68091859311818
1580421700.31604,-0.175051499198901,0.202883955138475,-0.693614099336232
1580421700.32003,-0.140383001449607,0.200930800335698,-0.709239337758449
1580421700.32402,-0.115480277714198,0.200442511635003,-0.72535286488136
1580421700.32802,-0.096437018387121,0.202883955138475,-0.730724040588997
1580421700.33201,-0.0749523155565726,0.206790264744029,-0.740489814602883
1580421700.336,-0.0549324788281069,0.205325398641946,-0.725841153582055
1580421700.34,-0.041260395208667,0.189211871519035,-0.700450141145952
1580421700.34399,-0.0334477759975584,0.161379415579461,-0.659433890287632
1580421700.34798,-0.0339360646982527,0.129640650034332,-0.593514915693904
1580421700.35198,-0.0407721065079727,0.109132524605172,-0.502204928664073
1580421700.35597,-0.0656748302433812,0.0988784618905925,-0.400640878919662
1580421700.35996,-0.100343327992675,0.101808194094758,-0.302983138780805
1580421700.36398,-0.149660486762798,0.101808194094758,-0.215579461356526
1580421700.36798,-0.215579461356526,0.0954604409857325,-0.153566796368352
1580421700.37197,-0.289311055161365,0.0798352025635154,-0.0778820477607383
1580421700.37596,-0.37427328908217,0.0642099641412983,0.00952162966353853
1580421700.37996,-0.465583276112001,0.0388189517051956,0.116945143816281
1580421700.38395,-0.562752727550164,0.0158693827725642,0.235111009384298
1580421700.38794,-0.646250095368886,-0.0222171358815899,0.366948958571754
1580421700.39194,-0.724376287479972,-0.0710460059510183,0.498786907759211
1580421700.39593,-0.794201571679256,-0.133546959639887,0.629648279545282
1580421700.39992,-0.850843060959793,-0.201419089036392,0.770275425345236
1580421700.40392,-0.921644922560464,-0.264896620126651,0.903578240634776
1580421700.40791,-1.01734950789654,-0.322514686808576,1.02613870450904
1580421700.4119,-1.11403067063401,-0.387457084000916,1.1233081559472
1580421700.4159,-1.22682536049439,-0.44605172808423,1.19118028534371
1580421700.41989,-1.32643625543603,-0.49732204165713,1.24586861982147
1580421700.42388,-1.42702372777905,-0.549080643930724,1.32252994583047
1580421700.42788,-1.50319676508736,-0.592050049591821,1.40163271534295
1580421700.43187,-1.56520943007553,-0.599862668802929,1.47243457694362
1580421700.43587,-1.61159685664149,-0.564705882352941,1.47780575265125
1580421700.43986,-1.6364995803769,-0.469489585717556,1.41579308766308
1580421700.44385,-1.61110856794079,-0.36401922636759,1.28786144808118
1580421700.44784,-1.53200579842832,-0.271732661936371,1.11354238193332
1580421700.45183,-1.40944533455406,-0.224368657969023,0.918715190356298
1580421700.45583,-1.27028305485618,-0.231204699778743,0.701426718547342
1580421700.45982,-1.14576943617914,-0.296635385671779,0.484626535439077
1580421700.46381,-1.06031891355764,-0.393804837109942,0.307377737087052
1580421700.46781,-1.0207675288014,-0.486091401541161,0.209231708247501
1580421700.4718,-1.03150988021668,-0.548104066529335,0.208255130846112
1580421700.4758,-1.06910811017014,-0.577889677271687,0.293705653467612
1580421700.47979,-1.11549553673609,-0.558358129243915,0.416266117341877
1580421700.48378,-1.15602349889372,-0.506111238269627,0.518318455786986
1580421700.48778,-1.15114061188678,-0.446540016784924,0.570565346761274
1580421700.49177,-1.11940184634165,-0.386968795300222,0.567635614557108
1580421700.49576,-1.07643244068055,-0.325932707713436,0.5256427862974
1580421700.49976,-1.01734950789654,-0.269291218432899,0.502693217364769
1580421700.50375,-0.96217288471809,-0.200442511635003,0.506599526970323
1580421700.50774,-0.933852140077821,-0.115968566414892,0.594979781795988
1580421700.51174,-0.94166475928893,-0.0227054245822842,0.740489814602885
1580421700.51573,-0.945571068894484,0.0515144579232469,0.746349279011216
1580421700.51972,-0.915297169451438,0.099855039291981,0.625741969939728
1580421700.52374,-0.89723048752575,0.134523537041275,0.478278782330051
1580421700.52774,-0.951430533302815,0.179934386205844,0.320561532005797
1580421700.53173,-1.02223239490349,0.241458762493323,0.109132524605172
1580421700.53572,-1.04469367513542,0.302006561379415,-0.115968566414892
1580421700.53972,-1.0378576333257,0.343511100938429,-0.334721904325933
1580421700.54371,-1.03053330281529,0.361089494163423,-0.504646372167544
1580421700.5477,-1.08180361638819,0.371343556878003,-0.556893263141832
1580421700.5517,-1.16920729381247,0.41773098344396,-0.465094987411307
1580421700.55569,-1.28102540627146,0.494880598153657,-0.306889448386359
1580421700.55968,-1.396749828336,0.556893263141834,-0.184817273212786
1580421700.56368,-1.47487602044709,0.500251773861297,-0.125246051728084
1580421700.56767,-1.45046158541238,0.228763256275272,-0.11792172121767
1580421700.57166,-1.35036240177005,-0.141359578850995,-0.10424963759823
1580421700.57566,-1.27272449835966,-0.262455176623179,-0.0500495918211641
1580421700.57965,-1.28493171587701,-0.0666514076447697,0.0876478217746239
1580421700.58364,-1.4055390249485,0.248783093003738,0.218020904859998
1580421700.58764,-1.49636072327764,0.477302204928662,0.234622720683603
1580421700.59163,-1.46901655603876,0.47241931792172,0.0803234912642097
1580421700.59563,-1.33083085374228,0.274662394140535,-0.179934386205844
1580421700.59962,-1.16725413900969,0.0222171358815899,-0.406012054627299
1580421700.60361,-1.02418554970626,-0.195071335927366,-0.489509422446021
1580421700.6076,-0.918715190356298,-0.342046234836348,-0.444586861982147
1580421700.61159,-0.851331349660487,-0.410894941634242,-0.345464255741208
1580421700.61559,-0.802990768291753,-0.429449912260624,-0.285893034256505
1580421700.61958,-0.752697032120242,-0.428473334859236,-0.294682230869002
1580421700.62357,-0.699473563744563,-0.433356221866179,-0.323979552910659
1580421700.62757,-0.657969024185549,-0.419195849546044,-0.34009308003357
1580421700.63156,-0.640878919661249,-0.361577782864119,-0.359624628061342
1580421700.63556,-0.639902342259861,-0.259525444419014,-0.398687724116884
1580421700.63955,-0.657969024185549,-0.138918135347524,-0.475837338826581
1580421700.64354,-0.689219501029983,-0.00415045395590141,-0.560311284046692
1580421700.64753,-0.739513237201495,0.129640650034332,-0.613534752422369
1580421700.65153,-0.805920500495919,0.271732661936369,-0.634042877851529
1580421700.65552,-0.898695353627833,0.432379644464788,-0.629159990844586
1580421700.65952,-1.00465400167849,0.612558175020983,-0.603768978408484
1580421700.66351,-1.11647211413748,0.824963759822996,-0.573006790264744
1580421700.6675,-1.20631723506523,1.04029907682918,-0.532967116807813
1580421700.6715,-1.26247043564508,1.17897306782635,-0.499275196459907
1580421700.67549,-1.27077134355688,1.15358205539025,-0.465094987411307
1580421700.67948,-1.25123979552911,0.977798123140307,-0.42896162355993
1580421700.68347,-1.22780193789578,0.751720454718853,-0.38452735179675
1580421700.68746,-1.21705958648051,0.554940108339057,-0.331792172121768
1580421700.69146,-1.21852445258259,0.417242694743265,-0.298100251773862
1580421700.69545,-1.22438391699092,0.312748912794689,-0.286381322957199
1580421700.69945,-1.20827038986801,0.229739833676661,-0.277592126344702
1580421700.70344,-1.17018387121385,0.175051499198901,-0.266849774929428
1580421700.70743,-1.11305409323262,0.153078507667658,-0.247806515602349
1580421700.71143,-1.06324864576181,0.147219043259327,-0.219485770962081
1580421700.71542,-1.01686121919585,0.122804608224612,-0.190676737621118
1580421700.71941,-0.978774700541695,0.0778820477607383,-0.169680323491264
1580421700.72341,-0.939223315785458,0.00610360875867855,-0.163820859082932
1580421700.7274,-0.906507972838941,-0.0729991607537954,-0.161867704280155
1580421700.73139,-0.881116960402839,-0.149660486762798,-0.160891126878766
1580421700.73539,-0.862073701075762,-0.216067750057221,-0.158937972075989
1580421700.73938,-0.854261081864653,-0.257572289616236,-0.144777599755855
1580421700.74337,-0.86305027847715,-0.281010147249562,-0.135011825741969
1580421700.74737,-0.88014038300145,-0.279056992446785,-0.12475776302739
1580421700.75136,-0.906996261539636,-0.262943465323874,-0.114991989013504
1580421700.75535,-0.932387273975738,-0.236087586785686,-0.0969253070878153
1580421700.75935,-0.961196307316701,-0.192629892423895,-0.0915541313801782
1580421700.76337,-0.977309834439613,-0.144289311055161,-0.0876478217746239
1580421700.76736,-0.990005340657664,-0.0891126878767068,-0.0783703364614325
1580421700.77135,-0.983169298847944,-0.0383306630045013,-0.0759288929579611
1580421700.77535,-0.982192721446555,0.0129396505683985,-0.0744640268558783
1580421700.77934,-0.933852140077821,0.0495613031204698,-0.0725108720531011
1580421700.78333,-0.943617914091707,0.152101930266269,-0.0700694285496297
1580421700.78733,-0.613534752422369,-0.0559090562294955,-0.0539559014267184
1580421700.79132,-0.923109788662547,0.398687724116883,-0.103273060196841
1580421700.79531,-1.05494773785,0.187258716716258,-0.148683909361409
1580421700.79931,-0.875257495994507,0.0842298008697639,-0.0666514076447697
1580421700.8033,-0.832776379034105,0.145265888456549,-0.0861829556725411
1580421700.80729,-0.796643015182728,0.106691081101701,-0.115480277714198
1580421700.81129,-0.811291676203556,0.125734340428778,-0.123292896925307
1580421700.81528,-0.802014190890365,0.119874876020447,-0.121828030823224
1580421700.81927,-0.826428625925079,0.138429846646829,-0.126222629129472
1580421700.82327,-0.845471885252156,0.122804608224612,-0.118410009918364
1580421700.82726,-0.866956588082704,0.119874876020447,-0.096437018387121
1580421700.83126,-0.888929579613947,0.111573968108644,-0.0886243991760125
1580421700.83525,-0.92115663385977,0.100343327992675,-0.0905775539787896
1580421700.83924,-0.953871976806287,0.0866712443732354,-0.102296482795452
1580421700.84323,-0.987563897154192,0.0759288929579611,-0.114015411612115
1580421700.84722,-1.01588464179446,0.0681162737468526,-0.125246051728084
1580421700.85122,-1.02858014801251,0.0612802319371326,-0.131105516136415
1580421700.85521,-1.02662699320974,0.0583504997329669,-0.138918135347524
1580421700.85921,-1.01393148699168,0.0529793240253298,-0.132570382238498
1580421700.8632,-0.995376516365301,0.0524910353246355,-0.123781185626001
1580421700.86719,-0.976333257038224,0.0563973449301898,-0.114991989013504
1580421700.87118,-0.95875486381323,0.0559090562294955,-0.120363164721141
1580421700.87518,-0.935805294880598,0.0588387884336612,-0.127687495231555
1580421700.87917,-0.925062943465324,0.0666514076447697,-0.140383001449607
1580421700.88317,-0.918226901655604,0.0720225833524069,-0.151613641565575
1580421700.88716,-0.918226901655604,0.0847180895704582,-0.163820859082932
1580421700.89115,-0.922621499961853,0.102784771496147,-0.167727168688486
1580421700.89515,-0.935805294880598,0.109620813305867,-0.172121766994735
1580421700.89914,-0.95191882200351,0.102296482795452,-0.154543373769741
1580421700.90313,-0.977309834439613,0.0866712443732354,-0.115968566414892
1580421700.90713,-1.00514229037919,0.0646982528419926,-0.0769054703593497
1580421700.91112,-1.0300450141146,0.0383306630045013,-0.0251468680857556
1580421700.91511,-1.04615854123751,0.00561532005798426,0.031006332494087
1580421700.91911,-1.0637369344625,-0.0197756923781185,0.0827649347676811
1580421700.92309,-1.072526131075,-0.0510261692225527,0.134523537041275
1580421700.92709,-1.07447928587777,-0.0798352025635154,0.196536202029449
1580421700.93108,-1.07985046158541,-0.0944838635843439,0.2605020218204
1580421700.93508,-1.0896162355993,-0.0988784618905925,0.316166933699549
1580421700.93907,-1.11061264972915,-0.0827649347676811,0.362554360265506
1580421700.94306,-1.14186312657359,-0.0471198596169984,0.38696879530022
1580421700.94706,-1.1750667582208,-0.000732433051041426,0.39380483710994
1580421700.95105,-1.20485236896315,0.0471198596169984,0.376226443884946
1580421700.95504,-1.23707942320897,0.0983901731898982,0.346929121843289
1580421700.95904,-1.27223620965896,0.142824444953078,0.303959716182192
1580421700.96303,-1.30934615091173,0.180910963607232,0.255619134813458
1580421700.96702,-1.34352635996033,0.208255130846112,0.203372243839169
1580421700.97102,-1.36989394979782,0.218020904859998,0.138429846646829
1580421700.97501,-1.38698405432212,0.200930800335698,0.070557717250324
1580421700.979,-1.37721828030823,0.156984817273212,0.0256351567864499
1580421700.983,-1.36501106279088,0.0969253070878153,-0.00317387655451284
1580421700.98699,-1.34889753566796,0.0349126420996413,0.00219729915312428
1580421700.99098,-1.35133897917144,-0.00854505226214997,0.0251468680857556
1580421700.99498,-1.3630579079881,-0.0324711985961699,0.073975738155184
1580421700.99897,-1.37917143511101,-0.037842374303807,0.138429846646829
1580421701.00299,-1.39479667353323,-0.0397955291065841,0.210696574349583
1580421701.00698,-1.40114442664225,-0.0358892195010299,0.283451590753032
1580421701.01098,-1.39430838483253,-0.0544441901274126,0.333745326924543
1580421701.01497,-1.38747234302281,-0.077393759060044,0.350347142748149
1580421701.01896,-1.38356603341726,-0.101319905394064,0.350347142748149
1580421701.02296,-1.3884489204242,-0.11450370031281,0.343511100938429
1580421701.02695,-1.40749217975128,-0.106691081101701,0.338628213931486
1580421701.03094,-1.43288319218738,-0.0881361104753182,0.320561532005797
1580421701.03494,-1.45778591592279,-0.0612802319371326,0.309330891889829
1580421701.03893,-1.4826886396582,-0.0334477759975584,0.305424582284274
1580421701.04292,-1.51393911650263,0.00561532005798426,0.314702067597466
1580421701.04692,-1.55495536736095,0.0578622110322726,0.339604791332874
1580421701.05091,-1.58864728770886,0.106691081101701,0.37671473258564
1580421701.05491,-1.60524910353246,0.145754177157244,0.408941786831463
1580421701.0589,-1.6018310826276,0.155031662470435,0.402594033722437
1580421701.06289,-1.58132295719844,0.143801022354467,0.377203021286334
1580421701.06689,-1.55153734645609,0.110109102006561,0.338139925230792
1580421701.07088,-1.5251697566186,0.0612802319371326,0.329839017318989
1580421701.07487,-1.49831387808042,-0.00659189745937283,0.338139925230792
1580421701.07887,-1.4738994430457,-0.0720225833524069,0.343022812237734
1580421701.08285,-1.44167238879988,-0.137453269245441,0.35620660715648
1580421701.08685,-1.39870298313878,-0.199954222934309,0.34937056534676
1580421701.09084,-1.35573357747768,-0.264896620126651,0.316166933699549
1580421701.09484,-1.32204165712978,-0.31958495460441,0.273197528038452
1580421701.09883,-1.3029983978027,-0.374761577782865,0.203860532539863
1580421701.10282,-1.2946974898909,-0.434821087968261,0.133058670939192
1580421701.10682,-1.29909208819715,-0.482673380636301,0.0578622110322726
1580421701.11081,-1.3034866865034,-0.496345464255741,-0.0300297550926985
1580421701.1148,-1.33376058594644,-0.465094987411307,-0.0969253070878153
1580421701.1188,-1.396749828336,-0.379156176089113,-0.150148775463492
1580421701.12279,-1.48122377355612,-0.251712825207905,-0.202883955138475
1580421701.12678,-1.55837338826581,-0.118410009918364,-0.278568703746091
1580421701.13078,-1.59401846341649,-0.0109864957656214,-0.385992217898833
1580421701.13477,-1.585229266804,0.0578622110322726,-0.552986953536278
1580421701.13876,-1.56423285267414,0.106691081101701,-0.761486228732739
1580421701.14276,-1.56667429617761,0.147707331960021,-0.95191882200351
1580421701.14675,-1.58278782330053,0.210208285648889,-1.10426489662013
1580421701.15074,-1.59792477302205,0.329839017318989,-1.21608300907912
1580421701.15474,-1.60134279392691,0.490974288548102,-1.28004882887007
1580421701.15873,-1.57595178149081,0.656504158083468,-1.25905241474022
1580421701.16272,-1.52321660181582,0.786388952468148,-1.17848477912566
1580421701.16671,-1.4655985351339,0.831311512932022,-1.05738918135348
1580421701.17071,-1.44216067750057,0.788830395971619,-0.909925993743801
1580421701.1747,-1.45485618371862,0.670176241702908,-0.77759975585565
1580421701.17869,-1.49880216678111,0.500740062561992,-0.652597848477912
1580421701.18269,-1.56081483176928,0.309819180590523,-0.548104066529335
1580421701.18668,-1.60524910353246,0.132082093537804,-0.457282368200199
1580421701.19067,-1.63210498207065,-0.00366216525520713,-0.380621042191196
1580421701.19467,-1.65505455100328,-0.0866712443732354,-0.305424582284276
1580421701.19866,-1.68093385214008,-0.115968566414892,-0.235111009384298
1580421701.20265,-1.69460593575952,-0.129152361333638,-0.182375829709315
1580421701.20665,-1.6960708018616,-0.154055085069047,-0.136964980544747
1580421701.21064,-1.67409781033036,-0.177981231403066,-0.104737926298924
1580421701.21463,-1.63747615777829,-0.196536202029449,-0.0891126878767068
1580421701.21863,-1.59938963912413,-0.204837109941252,-0.0817883573662925
1580421701.22262,-1.56179140917067,-0.198977645532921,-0.0891126878767068
1580421701.22662,-1.52321660181582,-0.192629892423895,-0.116456855115587
1580421701.23061,-1.49050125886931,-0.177981231403066,-0.153566796368352
1580421701.2346,-1.45534447241932,-0.164309147783626,-0.198001068131532
1580421701.2386,-1.41481651026169,-0.153566796368352,-0.237552452887769
1580421701.24261,-1.37868314641032,-0.146242465857938,-0.279056992446785
1580421701.24661,-1.34352635996033,-0.150637064164187,-0.314213778896773
1580421701.2506,-1.30202182040131,-0.157961394674601,-0.344975967040513
1580421701.2546,-1.25612268253605,-0.170168612191958,-0.365484092469673
1580421701.25859,-1.20729381246662,-0.188235294117646,-0.371831845578699
1580421701.26258,-1.1579766536965,-0.205813687342641,-0.373785000381476
1580421701.26657,-1.10963607232776,-0.221927214465552,-0.356694895857176
1580421701.27057,-1.07154955367361,-0.23657587548638,-0.340581368734265
1580421701.27456,-1.0378576333257,-0.24682993820096,-0.318608377203022
1580421701.27856,-0.987075608453498,-0.248783093003738,-0.291264209964142
1580421701.28255,-0.935317006179904,-0.240482185091935,-0.270756084534982
1580421701.28654,-0.883070115205616,-0.225833524071106,-0.254642557412071
1580421701.29054,-0.840588998245213,-0.209231708247501,-0.235599298084992
1580421701.29453,-0.784924086366065,-0.188723582818341,-0.223392080567635
1580421701.29852,-0.730724040588997,-0.166262302586404,-0.214114595254443
1580421701.30252,-0.6877546349279,-0.148683909361409,-0.210208285648889
1580421701.30651,-0.639414053559166,-0.131593804837109,-0.206790264744029
1580421701.3105,-0.594979781795987,-0.118410009918364,-0.205325398641946
1580421701.3145,-0.557869840543221,-0.107179369802395,-0.210208285648889
1580421701.31849,-0.519295033188373,-0.0983901731898982,-0.218997482261386
1580421701.32248,-0.486579690241856,-0.0979018844892039,-0.230228122377355
1580421701.32647,-0.450934615091173,-0.0920424200808725,-0.243900205996795
1580421701.33047,-0.417730983443962,-0.0866712443732354,-0.267826352330816
1580421701.33446,-0.383062485694667,-0.0798352025635154,-0.285893034256505
1580421701.33845,-0.356694895857176,-0.0788586251621268,-0.311772335393302
1580421701.34245,-0.325444419012742,-0.0710460059510183,-0.343999389639125
1580421701.34644,-0.302983138780805,-0.0583504997329669,-0.378179598687725
1580421701.35043,-0.271244373235676,-0.0456549935149155,-0.41187151903563
1580421701.35443,-0.239017318989852,-0.0314946211947813,-0.437750820172427
1580421701.35842,-0.209719996948195,-0.0168459601739528,-0.479743648432136
1580421701.36241,-0.178469520103761,-0.01196307316701,-0.52466620889601
1580421701.36641,-0.154055085069047,-0.00268558785381856,-0.56910048065919
1580421701.3704,-0.130617227435721,0.00268558785381856,-0.614999618524452
1580421701.37439,-0.110597390707255,0.0109864957656214,-0.657969024185549
1580421701.37839,-0.0930189974822611,0.0148928053711757,-0.701915007248035
1580421701.38238,-0.0778820477607383,0.0236820019836728,-0.751720454718853
1580421701.38637,-0.0695811398489354,0.0363775082017241,-0.804455634393836
1580421701.39037,-0.0607919432364383,0.0490730144197755,-0.864026855878539
1580421701.39436,-0.0593270771343555,0.0710460059510183,-0.927016098268101
1580421701.39836,-0.0612802319371326,0.0866712443732354,-0.990981918059052
1580421701.40237,-0.0593270771343555,0.0866712443732354,-1.03248645761807
1580421701.40637,-0.0588387884336612,0.060303654535744,-1.04176394293126
1580421701.41036,-0.0607919432364383,0.0280766002899213,-1.00514229037919
1580421701.41435,-0.0690928511482412,0.0153810940718699,-0.917250324254216
1580421701.41835,-0.0979018844892039,0.0314946211947813,-0.772228580148013
1580421701.42234,-0.154055085069047,0.0759288929579611,-0.599374380102235
1580421701.42633,-0.240970473792629,0.147219043259327,-0.409918364232853
1580421701.43033,-0.35376516365301,0.222903791866941,-0.223392080567635
1580421701.43432,-0.495368886854353,0.300053406576637,-0.037842374303807
1580421701.43831,-0.656504158083466,0.355718318455786,0.157961394674601
1580421701.44231,-0.839612420843824,0.390875104905774,0.369390402075226
1580421701.4463,-1.01588464179446,0.39380483710994,0.58033112077516
1580421701.4503,-1.18483253223468,0.356694895857174,0.776623178454262
1580421701.45429,-1.33083085374228,0.279545281147477,0.96217288471809
1580421701.45828,-1.42897688258183,0.152590218966964,1.1574883649958
1580421701.46228,-1.49440756847486,-0.0432135500114441,1.33131914244297
1580421701.46627,-1.52614633401999,-0.318608377203022,1.43385976958877
1580421701.47026,-1.61208514534218,-0.577889677271687,1.38161287861448
1580421701.47426,-1.72097352559701,-0.885023270008393,1.23805600061036
1580421701.47825,-1.74831769283589,-0.970962081330587,1.34987411306935
1580421701.48224,-1.79665827420462,-0.857679102769513,1.94119172961013
1580421701.48623,-1.99636835278859,-0.660898756389715,2.59452201113909
1580421701.49022,-2.14383154039826,-0.450446326390479,2.86210421911955
1580421701.49422,-2.11062790875105,-0.286869611657893,2.68241397726406
1580421701.49821,-1.89626916914626,-0.175539787899595,2.27859922178988
1580421701.50221,-1.59987792782483,-0.0715342946517126,1.80837720302129
1580421701.5062,-1.2859082932784,0.0451667048142212,1.32985427634089
1580421701.51019,-1.00318913557641,0.112062256809338,0.869398031586176
1580421701.51419,-0.797619592584116,0.0749523155565726,0.505622949568934
1580421701.51818,-0.687266346227206,-0.0627450980392155,0.275638971541923
1580421701.52217,-0.659433890287632,-0.250736247806516,0.177981231403066
1580421701.52617,-0.696543831540398,-0.424567025253682,0.173586633096818
1580421701.53016,-0.781506065461205,-0.54175631342031,0.239505607690546
1580421701.53415,-0.929457541771573,-0.569588769359884,0.347417410543983
1580421701.53815,-1.06764324406805,-0.520271610589761,0.444586861982145
1580421701.54214,-1.16090638590066,-0.430914778362707,0.503181506065463
1580421701.54613,-1.16725413900969,-0.31958495460441,0.513923857480737
1580421701.55013,-1.13063248645762,-0.212649729152361,0.598397802700848
1580421701.55412,-1.09108110170138,-0.100343327992675,0.783459220263982
1580421701.55812,-1.01002517738613,-0.031006332494087,0.813244831006333
1580421701.5621,-0.864026855878539,-0.0231937132829785,0.647714961470971
1580421701.5661,-0.821057450217442,-0.0109864957656214,0.314702067597466
1580421701.57009,-0.860608834973679,0.0485847257190812,-0.137453269245441
1580421701.57408,-0.76734569314107,0.127199206530861,-0.713145647364003
1580421701.57808,-0.531013962005035,0.151613641565575,-1.21315327687495
1580421701.58207,-0.351812008850233,0.112550545510032,-1.39577325093462
1580421701.58606,-0.36401922636759,0.0988784618905925,-1.23366140230411
1580421701.59006,-0.541268024719615,0.224856946669718,-0.761486228732739
1580421701.59405,-0.790295262073702,0.607186999313345,-0.213138017853055
1580421701.59804,-1.08278019378958,1.19264515144579,0.203860532539863
1580421701.60204,-1.36061646448463,1.56520943007553,0.384039063096054
1580421701.60603,-1.57155718318456,1.40114442664225,0.262455176623178
1580421701.61002,-1.69362935835813,0.643808651865417,-0.0217288471808956
1580421701.61402,-1.70632486457618,-0.494392309452964,-0.253177691309988
1580421701.61801,-1.51393911650263,-1.29079118028534,-0.178957808804455
1580421701.62201,-1.35133897917144,-1.39967956054017,0.133546959639887
1580421701.626,-1.52663462272068,-1.02223239490349,0.557381551842528
1580421701.62999,-1.9182421606775,-0.360112916762036,0.810315098802167
1580421701.63399,-2.06912336919203,0.214602883955138,0.677012283512628
1580421701.63798,-1.91238269626917,0.37329671168078,0.244388494697489
1580421701.642,-1.56618600747692,0.256107423514152,-0.211184863050278
1580421701.64599,-1.24147402151522,0.0891126878767068,-0.472907606622416
1580421701.64998,-1.06129549095903,0.0349126420996413,-0.540291447318227
1580421701.65398,-0.963149462119478,0.0690928511482412,-0.56226443884947
1580421701.65797,-0.863538567177844,0.0910658426794839,-0.593026626993209
1580421701.66196,-0.766369115739682,0.0930189974822611,-0.607186999313344
1580421701.66596,-0.677012283512626,0.0842298008697639,-0.570565346761272
1580421701.66995,-0.626230258640421,0.0983901731898982,-0.522713054093233
1580421701.67395,-0.603280689707789,0.143801022354467,-0.488532845044633
1580421701.67794,-0.601815823605707,0.200442511635003,-0.491462577248798
1580421701.68193,-0.621347371633478,0.25024795910582,-0.52466620889601
1580421701.68593,-0.641367208361943,0.292240787365529,-0.577889677271687
1580421701.68992,-0.673594262607766,0.32202639810788,-0.633066300450141
1580421701.69391,-0.733165484092469,0.364019226367589,-0.662851911192492
1580421701.69791,-0.818127718013276,0.425543602655068,-0.655039291981383
1580421701.7019,-0.926527809567407,0.511482413977266,-0.610605020218204
1580421701.70589,-1.04859998474098,0.614999618524454,-0.550545510032807
1580421701.70989,-1.16041809719997,0.698985275043871,-0.493415732051576
1580421701.71388,-1.24000915541314,0.729747463187611,-0.459235523002976
1580421701.71788,-1.28151369497215,0.698985275043871,-0.440192263675899
1580421701.72186,-1.29323262378882,0.608163576714734,-0.434821087968261
1580421701.72586,-1.29616235599298,0.489021133745325,-0.405523765926604
1580421701.72985,-1.30543984130617,0.372320134279391,-0.364995803768979
1580421701.73384,-1.31227588311589,0.270267795834286,-0.321538109407188
1580421701.73784,-1.30641641870756,0.201419089036392,-0.285404745555811
1580421701.74183,-1.27565423056382,0.150637064164187,-0.262455176623179
1580421701.74582,-1.22340733958953,0.135011825741969,-0.233646143282215
1580421701.74982,-1.16041809719997,0.136476691844052,-0.209231708247501
1580421701.75381,-1.09596398870832,0.128664072632944,-0.194094758525978
1580421701.7578,-1.0300450141146,0.106202792401007,-0.196047913328755
1580421701.7618,-0.971938658731975,0.0627450980392155,-0.198977645532921
1580421701.76579,-0.925551232166018,0.0148928053711757,-0.196536202029449
1580421701.76978,-0.887953002212559,-0.0402838178072784,-0.197024490730143
1580421701.77378,-0.862073701075762,-0.0891126878767068,-0.187258716716258
1580421701.77777,-0.843518730449379,-0.132082093537804,-0.168215457389181
1580421701.78176,-0.844007019150073,-0.170656900892652,-0.140871290150301
1580421701.78576,-0.862073701075762,-0.203860532539863,-0.119874876020447
1580421701.78975,-0.877210650797284,-0.224368657969023,-0.0959487296864268
1580421701.79375,-0.908461127641718,-0.242435339894712,-0.0686045624475469
1580421701.79774,-0.940199893186847,-0.245853360799572,-0.041260395208667
1580421701.80173,-0.955825131609064,-0.239017318989852,-0.024170290684367
1580421701.80572,-0.968032349126421,-0.218020904859998,-0.00659189745937283
1580421701.80971,-0.968520637827115,-0.184817273212786,0.00122072175173571
1580421701.81371,-0.946059357595178,-0.161867704280155,0.0114747844663157
1580421701.8177,-0.924086366063936,-0.0847180895704582,0.0139162279697871
1580421701.82169,-0.816174563210499,-0.131105516136415,0.0109864957656214
1580421701.82569,-0.838147554741742,0.289799343862057,0.0144045166704814
1580421701.82968,-1.18825055313954,0.112062256809338,-0.109620813305867
1580421701.83367,-0.993911650263218,-0.0500495918211641,-0.0168459601739528
1580421701.83767,-0.925551232166018,0.0227054245822842,-0.0256351567864499
1580421701.84166,-0.899671931029221,0.00610360875867855,-0.0563973449301898
1580421701.84566,-0.88697642481117,0.0139162279697871,-0.0715342946517126
1580421701.84965,-0.861585412375067,0.024170290684367,-0.0700694285496297
1580421701.85364,-0.836682688639659,0.0417486839093613,-0.0778820477607383
1580421701.85764,-0.840100709544519,0.044678416113527,-0.0886243991760125
1580421701.86163,-0.843518730449379,0.0524910353246355,-0.0969253070878153
1580421701.86562,-0.84596017395285,0.0690928511482412,-0.109620813305867
1580421701.86962,-0.84937819485771,0.0842298008697639,-0.112550545510032
1580421701.87361,-0.858655680170902,0.0969253070878153,-0.112062256809338
1580421701.8776,-0.86305027847715,0.112062256809338,-0.106691081101701
1580421701.88162,-0.867444876783399,0.117433432516975,-0.0910658426794839
1580421701.88561,-0.868909742885482,0.114991989013504,-0.0778820477607383
1580421701.88961,-0.865003433279927,0.112062256809338,-0.0720225833524069
1580421701.8936,-0.861097123674373,0.104737926298924,-0.0769054703593497
1580421701.8976,-0.85963225757229,0.0983901731898982,-0.0842298008697639
1580421701.90159,-0.865491721980622,0.0979018844892039,-0.0983901731898982
1580421701.90558,-0.875745784695201,0.10083161669337,-0.105714503700312
1580421701.90958,-0.89723048752575,0.111573968108644,-0.116456855115587
1580421701.91357,-0.918226901655604,0.126222629129472,-0.128664072632944
1580421701.91756,-0.928480964370184,0.140871290150301,-0.151613641565575
1580421701.92156,-0.94166475928893,0.153566796368352,-0.166750591287098
1580421701.92555,-0.940688181887541,0.168215457389181,-0.171145189593346
1580421701.92954,-0.935805294880598,0.182864118410009,-0.173586633096818
1580421701.93354,-0.92799267566949,0.194094758525978,-0.166262302586404
1580421701.93753,-0.925062943465324,0.199465934233615,-0.144289311055161
1580421701.94152,-0.933363851377127,0.193606469825284,-0.108155947203784
1580421701.94552,-0.949477378500038,0.178469520103761,-0.0700694285496297
1580421701.94951,-0.96900892652781,0.146242465857938,-0.0251468680857556
1580421701.95351,-0.992446784161135,0.0993667505912867,0.0202639810788128
1580421701.9575,-1.01832608529793,0.0476081483176927,0.0588387884336612
1580421701.96149,-1.04420538643473,0.00317387655451284,0.0847180895704582
1580421701.96548,-1.06031891355764,-0.0373540856031127,0.105226214999618
1580421701.96947,-1.07154955367361,-0.063721675440604,0.114991989013504
1580421701.97347,-1.08229190508888,-0.0847180895704582,0.124269474326695
1580421701.97746,-1.09596398870832,-0.0959487296864268,0.138918135347524
1580421701.98145,-1.11696040283818,-0.0949721522850382,0.162844281681544
1580421701.98545,-1.13746852826734,-0.0881361104753182,0.193118181124589
1580421701.98944,-1.15944151979858,-0.0788586251621268,0.219974059662775
1580421701.99343,-1.18287937743191,-0.0627450980392155,0.237064164187075
1580421701.99743,-1.2092469672694,-0.0397955291065841,0.249759670405126
1580421702.00142,-1.23317311360342,-0.00415045395590141,0.247806515602349
1580421702.00541,-1.25075150682841,0.0319829098954756,0.226810101472495
1580421702.00941,-1.26198214694438,0.063721675440604,0.203860532539863
1580421702.0134,-1.27370107576104,0.0822766460669868,0.170656900892652
1580421702.0174,-1.28493171587701,0.0988784618905925,0.134523537041275
1580421702.02139,-1.29079118028534,0.116945143816281,0.0979018844892039
1580421702.02538,-1.29323262378882,0.123781185626001,0.0744640268558783
1580421702.02938,-1.28981460288396,0.131105516136415,0.063721675440604
1580421702.03337,-1.28200198367285,0.12475776302739,0.0510261692225527
1580421702.03736,-1.27614251926452,0.115968566414892,0.031006332494087
1580421702.04135,-1.27467765316243,0.0979018844892039,-0.000732433051041426
1580421702.04534,-1.27516594186313,0.0749523155565726,-0.0183108262760356
1580421702.04934,-1.27272449835966,0.0485847257190812,-0.0168459601739528
1580421702.05333,-1.27321278706035,0.0285648889906156,0.00415045395590141
1580421702.05732,-1.27809567406729,0.0163576714732585,0.0383306630045013
1580421702.06132,-1.28200198367285,0.0227054245822842,0.0847180895704582
1580421702.06531,-1.28737315938048,0.0251468680857556,0.125734340428778
1580421702.06931,-1.29860379949645,0.0271000228885327,0.170168612191958
1580421702.0733,-1.31276417181659,0.0256351567864499,0.216067750057221
1580421702.07729,-1.3454795147631,0.0246585793850613,0.241947051194018
1580421702.08129,-1.38307774471656,0.0285648889906156,0.263431754024566
1580421702.08528,-1.42165255207141,0.0300297550926985,0.268802929732203
1580421702.08927,-1.46462195773251,0.0300297550926985,0.265384908827343
1580421702.09327,-1.50319676508736,0.0339360646982527,0.259525444419012
1580421702.09726,-1.5339589532311,0.0461432822156098,0.276127260242617
1580421702.10125,-1.55251392385748,0.0656748302433812,0.299076829175249
1580421702.10525,-1.56276798657206,0.0798352025635154,0.317143511100937
1580421702.10924,-1.57155718318456,0.0935072861829553,0.347417410543983
1580421702.11323,-1.57058060578317,0.0881361104753182,0.376226443884946
1580421702.11723,-1.55349050125887,0.0549324788281069,0.402105745021743
1580421702.12125,-1.51931029221027,-0.00512703135728998,0.443610284580757
1580421702.12524,-1.4822003509575,-0.0827649347676811,0.469489585717554
1580421702.12923,-1.44118410009918,-0.163820859082932,0.454352635996031
1580421702.13323,-1.3972381170367,-0.252689402609294,0.370855268177309
1580421702.13722,-1.34938582436866,-0.346440833142596,0.219485770962081
1580421702.14121,-1.30788128480964,-0.426520180056459,0.0949721522850382
1580421702.14521,-1.28444342717632,-0.477790493629358,0.00122072175173571
1580421702.1492,-1.27272449835966,-0.508064393072404,-0.0544441901274126
1580421702.15319,-1.27467765316243,-0.517341878385595,-0.0847180895704582
1580421702.15719,-1.28542000457771,-0.49732204165713,-0.0944838635843439
1580421702.16118,-1.30055695429923,-0.457770656900893,-0.0939955748836496
1580421702.16517,-1.32790112153811,-0.393316548409247,-0.124269474326695
1580421702.16917,-1.37819485770962,-0.303959716182193,-0.221438925764858
1580421702.17316,-1.43288319218738,-0.211673151750972,-0.353276874952316
1580421702.17716,-1.48073548485542,-0.131105516136415,-0.48023193713283
1580421702.18115,-1.51003280689708,-0.0734874494544897,-0.592050049591821
1580421702.18514,-1.52712291142138,-0.0246585793850613,-0.700938429846646
1580421702.18914,-1.53786526283665,0.024170290684367,-0.803479056992447
1580421702.19313,-1.53933012893873,0.0861829556725411,-0.906019684138247
1580421702.19712,-1.52761120012207,0.151613641565575,-0.98951705195697
1580421702.20111,-1.5168688487068,0.222415503166246,-1.05885404745556
1580421702.2051,-1.52468146791791,0.312260624093994,-1.08278019378958
1580421702.2091,-1.54372472724498,0.458258945601585,-1.07399099717708
1580421702.21309,-1.55886167696651,0.628671702143894,-1.0383459220264
1580421702.21708,-1.52956435492485,0.790783550774396,-1.00123598077363
1580421702.22108,-1.46706340123598,0.871351186388953,-0.953383688105593
1580421702.22507,-1.39528496223392,0.848401617456322,-0.903089951934081
1580421702.22906,-1.35573357747768,0.745372701609828,-0.845471885252156
1580421702.23306,-1.34499122606241,0.59058518348974,-0.769787136644542
1580421702.23705,-1.35671015487907,0.428961623559928,-0.692149233234149
1580421702.24105,-1.38747234302281,0.28442816815442,-0.623300526436255
1580421702.24504,-1.42360570687419,0.165285725185015,-0.563241016250858
1580421702.24903,-1.45192645151446,0.0817883573662925,-0.505622949568933
1580421702.25303,-1.4568093385214,0.0285648889906156,-0.46655985351339
1580421702.25702,-1.44655527580682,0.00708018616006711,-0.443610284580759
1580421702.26101,-1.42897688258183,0.00512703135728998,-0.41870756084535
1580421702.26501,-1.40163271534295,0.0075684748607614,-0.402105745021744
1580421702.269,-1.37282368200198,0.00268558785381856,-0.372808422980087
1580421702.27299,-1.3454795147631,-0.000732433051041426,-0.345952544441902
1580421702.27699,-1.31667048142214,-0.00512703135728998,-0.316655222400245
1580421702.281,-1.29811551079576,-0.0109864957656214,-0.291752498664836
1580421702.285,-1.2771190966659,-0.0227054245822842,-0.264408331425956
1580421702.28899,-1.25514610513466,-0.0422369726100555,-0.266849774929428
1580421702.29299,-1.22731364919509,-0.0676279850461583,-0.274662394140536
1580421702.29698,-1.20485236896315,-0.101808194094758,-0.291264209964142
1580421702.30097,-1.18190280003052,-0.140383001449607,-0.306889448386359
1580421702.30497,-1.15553521019303,-0.174074921797512,-0.314702067597468
1580421702.30896,-1.12916762035553,-0.213626306553749,-0.310795757991913
1580421702.31295,-1.10084687571527,-0.245365072098878,-0.299565117875945
1580421702.31695,-1.06910811017014,-0.275150682841231,-0.272220950637065
1580421702.32094,-1.04469367513542,-0.306889448386359,-0.248294804303043
1580421702.32493,-1.01002517738613,-0.33667505912871,-0.220950637064163
1580421702.32893,-0.980727855344472,-0.354741741054399,-0.196536202029449
1580421702.33292,-0.95191882200351,-0.375738155184253,-0.175539787899595
1580421702.33692,-0.922133211261158,-0.386968795300222,-0.154055085069047
1580421702.34091,-0.889417868314641,-0.394293125810636,-0.139894712748912
1580421702.3449,-0.852307927061876,-0.393804837109942,-0.132082093537804
1580421702.34889,-0.82203402761883,-0.386480506599527,-0.132082093537804
1580421702.35289,-0.790783550774396,-0.37427328908217,-0.135500114442664
1580421702.35688,-0.760509651331351,-0.353276874952316,-0.145265888456549
1580421702.3609,-0.736583504997329,-0.328862439917602,-0.163332570382238
1580421702.36489,-0.716563668268863,-0.308354314488442,-0.177492942702372
1580421702.36889,-0.689219501029983,-0.289799343862059,-0.194583047226672
1580421702.37288,-0.665781643396658,-0.269291218432899,-0.213138017853055
1580421702.37687,-0.646738384069581,-0.253177691309988,-0.227298390173189
1580421702.38087,-0.629159990844586,-0.231692988479438,-0.237064164187075
1580421702.38486,-0.618417639429312,-0.216067750057221,-0.248783093003738
1580421702.38885,-0.605722133211261,-0.198489356832226,-0.269779507133594
1580421702.39285,-0.593026626993209,-0.184328984512092,-0.280521858548868
1580421702.39684,-0.576913099870298,-0.170656900892652,-0.285404745555811
1580421702.40084,-0.55884641794461,-0.154055085069047,-0.292729076066225
1580421702.40483,-0.540779736018921,-0.139894712748912,-0.300541695277333
1580421702.40882,-0.52124818799115,-0.130617227435721,-0.313237201495385
1580421702.41282,-0.501228351262684,-0.11792172121767,-0.322026398107882
1580421702.41681,-0.481696803234913,-0.105714503700312,-0.338139925230793
1580421702.4208,-0.462653543907836,-0.0959487296864268,-0.35718318455787
1580421702.4248,-0.434821087968261,-0.0861829556725411,-0.372320134279393
1580421702.42879,-0.412848096437019,-0.0749523155565726,-0.395757991912719
1580421702.43278,-0.388433661402305,-0.0612802319371326,-0.412359807736324
1580421702.43678,-0.366460669871062,-0.0544441901274126,-0.429938200961319
1580421702.44076,-0.349370565346762,-0.0456549935149155,-0.453864347295339
1580421702.44476,-0.334721904325933,-0.0363775082017241,-0.482185091935607
1580421702.44875,-0.319096665903716,-0.0251468680857556,-0.506599526970321
1580421702.45275,-0.306889448386359,-0.0100099183642328,-0.519295033188373
1580421702.45674,-0.294193942168308,0.00903334096284425,-0.535896849011978
1580421702.46073,-0.288822766460671,0.034424353398947,-0.542732890821698
1580421702.46473,-0.287846189059282,0.0627450980392155,-0.548104066529335
1580421702.46872,-0.287846189059282,0.0993667505912867,-0.549080643930724
1580421702.47271,-0.289311055161365,0.130617227435721,-0.559334706645304
1580421702.47671,-0.294682230869002,0.156496528572518,-0.572030212863355
