Timestamp_seconds,Gyro_X_s,Gyro_Y_s,Gyro_Z_s
1580421714.87187,0.0305180437933359,-0.640878919661191,-2.41092545967808
1580421714.87587,-0.396734569314049,-0.70191500724809,-2.47196154726475
1580421714.87986,-0.946059357595232,-0.70191500724809,-2.53299763485165
1580421714.88386,-1.37331197070262,-0.579842832074519,-2.34988937209118
1580421714.88786,-1.73952849622333,-0.640878919661191,-2.47196154726475
1580421714.89186,-2.04470893415737,-0.640878919661191,-2.47196154726475
1580421714.89586,-1.98367284657047,-0.762951094834762,-2.41092545967808
1580421714.89986,-1.73952849622333,-0.885023270008332,-2.34988937209118
1580421714.90387,-1.37331197070262,-1.0070954451819,-2.16678110933094
1580421714.90787,-1.31227588311594,-1.0070954451819,-1.9226367589838
1580421714.91187,-1.49538414587619,-0.885023270008332,-1.55642023346309
1580421714.91587,-2.16678110933094,-0.70191500724809,-1.43434805828952
1580421714.91986,-2.7161058976119,-0.70191500724809,-1.55642023346309
1580421714.92386,-2.59403372243833,-1.0681315327688,-1.43434805828952
1580421714.92786,-1.8616006713969,-1.31227588311594,-1.25123979552905
1580421714.93186,-1.0070954451819,-1.61745632104976,-1.12916762035547
1580421714.93586,-0.457770656900948,-1.80056458381023,-0.823987182421661
1580421714.93986,-0.152590218966907,-1.80056458381023,-0.51880674448762
1580421714.94386,0.213626306553806,-1.8616006713969,-0.396734569314049
1580421714.94786,0.396734569314049,-1.98367284657047,-0.091554131380235
1580421714.95185,0.51880674448762,-1.8616006713969,0.213626306553806
1580421714.95585,1.0070954451819,-1.9226367589838,0.213626306553806
1580421714.95985,1.49538414587619,-2.53299763485165,0.335698481727377
1580421714.96385,2.28885328450451,-2.89921416037237,0.335698481727377
1580421714.96785,2.89921416037237,-2.7771419851988,0.457770656900948
1580421714.97185,3.44853894865332,-2.53299763485165,0.640878919661191
1580421714.97585,3.93682764934761,-2.47196154726475,0.579842832074519
1580421714.97985,4.18097199969475,-2.65506981002522,0.70191500724809
1580421714.98382,4.42511635004189,-2.53299763485165,0.823987182421661
1580421714.98782,4.42511635004189,-2.53299763485165,0.946059357595232
1580421714.99182,4.91340505073617,-2.47196154726475,0.946059357595232
1580421714.99582,5.6458381017776,-2.59403372243833,0.946059357595232
1580421714.99982,6.62241550316617,-2.59403372243833,1.0681315327688
1580421715.00382,7.53795681696806,-2.53299763485165,0.946059357595232
1580421715.00782,7.96520943007545,-2.65506981002522,0.885023270008332
1580421715.01182,8.20935378042259,-2.59403372243833,0.885023270008332
1580421715.01582,7.84313725490188,-2.22781719691761,1.0070954451819
1580421715.01981,7.29381246662092,-1.98367284657047,1.0681315327688
1580421715.02381,6.68345159075307,-1.73952849622333,1.0681315327688
1580421715.02781,6.37827115281902,-1.80056458381023,0.946059357595232
1580421715.03181,6.43930724040592,-1.8616006713969,1.0681315327688
1580421715.03581,6.62241550316617,-1.73952849622333,1.0070954451819
1580421715.03981,6.80552376592664,-1.67849240863666,1.12916762035547
1580421715.04381,6.86655985351331,-1.43434805828952,1.25123979552905
1580421715.0478,6.80552376592664,-1.25123979552905,1.25123979552905
1580421715.0518,6.68345159075307,-1.31227588311594,1.19020370794237
1580421715.0558,6.62241550316617,-1.37331197070262,1.19020370794237
1580421715.0598,6.92759594110021,-1.61745632104976,1.19020370794237
1580421715.06381,7.23277637903402,-1.67849240863666,1.19020370794237
1580421715.06781,7.41588464179449,-1.80056458381023,1.19020370794237
1580421715.07181,7.53795681696806,-1.67849240863666,1.12916762035547
1580421715.07581,7.47692072938116,-1.73952849622333,1.25123979552905
1580421715.07981,7.23277637903402,-1.73952849622333,1.25123979552905
1580421715.08381,7.11070420386045,-1.61745632104976,1.12916762035547
1580421715.0878,6.74448767833974,-1.8616006713969,1.0070954451819
1580421715.0918,6.13412680247188,-1.9226367589838,0.946059357595232
1580421715.0958,5.52376592660403,-1.98367284657047,0.885023270008332
1580421715.0998,4.91340505073617,-1.80056458381023,0.70191500724809
1580421715.1038,4.36408026245522,-1.67849240863666,0.51880674448762
1580421715.1078,3.87579156176093,-1.8616006713969,0.335698481727377
1580421715.1118,3.38750286106665,-1.8616006713969,0.091554131380235
1580421715.1158,2.7771419851988,-2.10574502174404,-0.0305180437933359
1580421715.11979,2.22781719691761,-2.04470893415737,-0.091554131380235
1580421715.12379,1.8616006713969,-1.9226367589838,-0.274662394140478
1580421715.12779,1.49538414587619,-1.80056458381023,-0.396734569314049
1580421715.13179,1.31227588311594,-1.67849240863666,-0.457770656900948
1580421715.13579,1.25123979552905,-1.55642023346309,-0.51880674448762
1580421715.13979,1.0681315327688,-1.43434805828952,-0.640878919661191
1580421715.14377,1.0070954451819,-1.37331197070262,-0.579842832074519
1580421715.14777,1.0070954451819,-1.31227588311594,-0.457770656900948
1580421715.15176,0.885023270008332,-1.0681315327688,-0.640878919661191
1580421715.15576,1.0070954451819,-1.12916762035547,-0.457770656900948
1580421715.15976,1.0070954451819,-1.0681315327688,-0.51880674448762
1580421715.16376,1.0070954451819,-0.885023270008332,-0.579842832074519
1580421715.16776,0.946059357595232,-0.823987182421661,-0.51880674448762
1580421715.17176,1.0070954451819,-0.885023270008332,-0.51880674448762
1580421715.17576,0.946059357595232,-0.762951094834762,-0.579842832074519
1580421715.17976,0.946059357595232,-0.579842832074519,-0.579842832074519
1580421715.18375,0.885023270008332,-0.457770656900948,-0.51880674448762
1580421715.18775,0.823987182421661,-0.335698481727377,-0.640878919661191
1580421715.19175,0.457770656900948,-0.274662394140478,-0.579842832074519
1580421715.19575,0.0305180437933359,-0.335698481727377,-0.457770656900948
1580421715.19975,-0.335698481727377,-0.213626306553806,-0.396734569314049
1580421715.20375,-0.762951094834762,0.0305180437933359,-0.51880674448762
1580421715.20775,-1.0681315327688,-0.091554131380235,-0.579842832074519
1580421715.21175,-1.0681315327688,-0.213626306553806,-0.457770656900948
1580421715.21575,-1.12916762035547,-0.213626306553806,-0.579842832074519
1580421715.21974,-1.19020370794237,-0.152590218966907,-0.51880674448762
1580421715.22375,-1.19020370794237,-0.091554131380235,-0.457770656900948
1580421715.22775,-1.12916762035547,-0.091554131380235,-0.457770656900948
1580421715.23175,-1.12916762035547,-0.274662394140478,-0.457770656900948
1580421715.23575,-1.0681315327688,-0.457770656900948,-0.396734569314049
1580421715.23975,-1.0070954451819,-0.457770656900948,-0.213626306553806
1580421715.24375,-0.640878919661191,-0.640878919661191,-0.213626306553806
1580421715.24775,-0.335698481727377,-0.640878919661191,-0.091554131380235
1580421715.25175,-0.0305180437933359,-0.579842832074519,0.0305180437933359
1580421715.25574,0.213626306553806,-0.640878919661191,0.0305180437933359
1580421715.25974,0.335698481727377,-0.579842832074519,0.152590218966907
1580421715.26374,0.579842832074519,-0.51880674448762,0.0305180437933359
1580421715.26774,0.885023270008332,-0.640878919661191,0.091554131380235
1580421715.27174,1.19020370794237,-0.70191500724809,0.091554131380235
1580421715.27574,1.25123979552905,-0.823987182421661,0.091554131380235
1580421715.27974,1.19020370794237,-0.579842832074519,0.091554131380235
1580421715.28374,1.12916762035547,-0.579842832074519,0.091554131380235
1580421715.28773,1.25123979552905,-0.579842832074519,-0.0305180437933359
1580421715.29173,1.49538414587619,-0.640878919661191,0.091554131380235
1580421715.29573,1.67849240863666,-0.823987182421661,0.0305180437933359
1580421715.29973,1.8616006713969,-0.640878919661191,0.0305180437933359
1580421715.30371,2.04470893415737,-0.579842832074519,-0.0305180437933359
1580421715.30771,2.28885328450451,-0.457770656900948,0.0305180437933359
1580421715.31171,2.22781719691761,-0.396734569314049,0.0305180437933359
1580421715.31571,1.98367284657047,-0.274662394140478,-0.0305180437933359
1580421715.31971,1.61745632104976,-0.274662394140478,-0.152590218966907
1580421715.3237,1.37331197070262,-0.213626306553806,-0.091554131380235
1580421715.3277,1.25123979552905,-0.0305180437933359,-0.335698481727377
1580421715.3317,1.19020370794237,-0.0305180437933359,-0.396734569314049
1580421715.3357,1.25123979552905,0.0305180437933359,-0.51880674448762
1580421715.3397,1.19020370794237,0.091554131380235,-0.70191500724809
1580421715.3437,0.70191500724809,0.213626306553806,-0.762951094834762
1580421715.3477,0.152590218966907,0.213626306553806,-0.823987182421661
1580421715.3517,-0.152590218966907,0.457770656900948,-0.946059357595232
1580421715.35569,-0.579842832074519,0.335698481727377,-1.0681315327688
1580421715.35969,-0.762951094834762,0.274662394140478,-1.25123979552905
1580421715.36369,-0.457770656900948,0.457770656900948,-1.37331197070262
1580421715.36769,-0.335698481727377,0.396734569314049,-1.43434805828952
1580421715.37169,-0.152590218966907,0.274662394140478,-1.49538414587619
1580421715.37569,-0.396734569314049,0.335698481727377,-1.49538414587619
1580421715.37969,-0.640878919661191,0.396734569314049,-1.49538414587619
1580421715.38367,-0.946059357595232,0.457770656900948,-1.43434805828952
1580421715.38767,-1.0681315327688,0.396734569314049,-1.61745632104976
1580421715.39166,-1.31227588311594,0.335698481727377,-1.55642023346309
1580421715.39566,-1.19020370794237,0.274662394140478,-1.61745632104976
1580421715.39966,-1.0681315327688,0.274662394140478,-1.55642023346309
1580421715.40366,-0.823987182421661,0.213626306553806,-1.61745632104976
1580421715.40766,-0.70191500724809,0.213626306553806,-1.67849240863666
1580421715.41166,-0.335698481727377,0.091554131380235,-1.73952849622333
1580421715.41566,-0.51880674448762,0.0305180437933359,-1.67849240863666
1580421715.41965,-0.70191500724809,0.152590218966907,-1.73952849622333
1580421715.42365,-0.579842832074519,0.213626306553806,-1.67849240863666
1580421715.42765,-0.274662394140478,0.152590218966907,-1.73952849622333
1580421715.43165,0.0305180437933359,0.152590218966907,-1.73952849622333
1580421715.43565,0.274662394140478,-0.0305180437933359,-1.61745632104976
1580421715.43965,0.396734569314049,0.0305180437933359,-1.67849240863666
1580421715.44365,0.457770656900948,0.091554131380235,-1.67849240863666
1580421715.44765,0.396734569314049,0.0305180437933359,-1.49538414587619
1580421715.45164,0.396734569314049,-0.0305180437933359,-1.73952849622333
1580421715.45564,0.457770656900948,0.152590218966907,-1.80056458381023
1580421715.45964,0.335698481727377,-0.0305180437933359,-1.9226367589838
1580421715.46365,0.457770656900948,-0.091554131380235,-1.98367284657047
1580421715.46765,0.213626306553806,-0.091554131380235,-2.04470893415737
1580421715.47165,-0.0305180437933359,-0.0305180437933359,-2.16678110933094
1580421715.47565,-0.274662394140478,-0.091554131380235,-2.22781719691761
1580421715.47965,-0.579842832074519,0.0305180437933359,-2.34988937209118
1580421715.48365,-0.823987182421661,0.091554131380235,-2.28885328450451
1580421715.48765,-0.762951094834762,0.152590218966907,-2.34988937209118
1580421715.49164,-0.457770656900948,0.152590218966907,-2.41092545967808
1580421715.49564,-0.213626306553806,0.213626306553806,-2.47196154726475
1580421715.49964,-0.0305180437933359,0.335698481727377,-2.34988937209118
1580421715.50364,0.152590218966907,0.335698481727377,-2.34988937209118
1580421715.50764,-0.0305180437933359,0.457770656900948,-2.34988937209118
1580421715.51164,-0.213626306553806,0.51880674448762,-2.22781719691761
1580421715.51564,-0.213626306553806,0.70191500724809,-2.28885328450451
1580421715.51964,-0.51880674448762,0.70191500724809,-2.34988937209118
1580421715.52363,-0.640878919661191,0.640878919661191,-2.53299763485165
1580421715.52763,-0.762951094834762,0.70191500724809,-2.47196154726475
1580421715.53163,-1.19020370794237,0.823987182421661,-2.65506981002522
1580421715.53563,-1.67849240863666,0.946059357595232,-2.7161058976119
1580421715.53963,-1.98367284657047,0.762951094834762,-2.7161058976119
1580421715.54361,-2.41092545967808,0.823987182421661,-2.65506981002522
1580421715.54761,-2.47196154726475,0.946059357595232,-2.7161058976119
1580421715.55161,-2.34988937209118,0.823987182421661,-2.65506981002522
1580421715.55561,-2.16678110933094,0.823987182421661,-2.59403372243833
1580421715.5596,-2.10574502174404,0.885023270008332,-2.59403372243833
1580421715.5636,-1.98367284657047,0.946059357595232,-2.41092545967808
1580421715.5676,-1.80056458381023,1.12916762035547,-2.41092545967808
1580421715.5716,-1.73952849622333,1.0070954451819,-2.34988937209118
1580421715.5756,-1.73952849622333,1.19020370794237,-2.34988937209118
1580421715.5796,-1.73952849622333,1.25123979552905,-2.34988937209118
1580421715.5836,-1.61745632104976,1.25123979552905,-2.47196154726475
1580421715.5876,-1.73952849622333,1.25123979552905,-2.28885328450451
1580421715.59159,-1.98367284657047,1.25123979552905,-2.28885328450451
1580421715.59559,-2.04470893415737,1.19020370794237,-2.41092545967808
1580421715.59959,-2.04470893415737,1.25123979552905,-2.41092545967808
1580421715.60359,-1.9226367589838,1.12916762035547,-2.41092545967808
1580421715.60759,-1.8616006713969,1.25123979552905,-2.7161058976119
1580421715.61159,-2.16678110933094,1.12916762035547,-2.83817807278547
1580421715.61559,-2.04470893415737,1.12916762035547,-2.83817807278547
1580421715.61959,-2.04470893415737,1.37331197070262,-2.89921416037237
1580421715.6236,-2.22781719691761,1.49538414587619,-3.02128633554594
1580421715.62759,-2.22781719691761,1.49538414587619,-3.14335851071951
1580421715.63159,-2.10574502174404,1.49538414587619,-3.02128633554594
1580421715.63559,-2.7161058976119,1.55642023346309,-2.89921416037237
1580421715.63959,-3.87579156176093,1.73952849622333,-2.83817807278547
1580421715.64359,-4.8523689631495,2.04470893415737,-2.7771419851988
1580421715.64759,-5.46272983901736,2.22781719691761,-2.83817807278547
1580421715.65159,-5.82894636453807,2.10574502174404,-3.02128633554594
1580421715.65559,-5.6458381017776,1.73952849622333,-3.14335851071951
1580421715.65958,-5.40169375143046,1.73952849622333,-3.26543068589308
1580421715.66358,-5.03547722590974,1.55642023346309,-3.08232242313261
1580421715.66758,-4.8523689631495,1.67849240863666,-2.89921416037237
1580421715.67158,-4.8523689631495,1.73952849622333,-2.7771419851988
1580421715.67558,-4.73029678797593,1.73952849622333,-2.7771419851988
1580421715.67958,-4.42511635004189,1.67849240863666,-2.7161058976119
1580421715.68358,-4.30304417486832,1.73952849622333,-2.53299763485165
1580421715.68758,-4.24200808728165,1.80056458381023,-2.41092545967808
1580421715.69157,-3.87579156176093,1.9226367589838,-2.28885328450451
1580421715.69557,-3.44853894865332,2.04470893415737,-2.10574502174404
1580421715.69957,-2.83817807278547,2.04470893415737,-1.98367284657047
1580421715.70355,-2.65506981002522,2.04470893415737,-1.9226367589838
1580421715.70755,-2.59403372243833,2.10574502174404,-1.98367284657047
1580421715.71155,-2.59403372243833,1.98367284657047,-1.8616006713969
1580421715.71555,-2.65506981002522,1.9226367589838,-1.98367284657047
1580421715.71955,-2.89921416037237,1.8616006713969,-2.04470893415737
1580421715.72355,-3.08232242313261,1.98367284657047,-1.8616006713969
1580421715.72754,-3.20439459830618,2.10574502174404,-1.98367284657047
1580421715.73154,-3.20439459830618,2.22781719691761,-1.98367284657047
1580421715.73554,-3.08232242313261,2.22781719691761,-1.9226367589838
1580421715.73954,-2.96025024795904,2.34988937209118,-2.04470893415737
1580421715.74354,-2.96025024795904,2.10574502174404,-2.34988937209118
1580421715.74754,-3.14335851071951,2.04470893415737,-2.53299763485165
1580421715.75154,-3.26543068589308,1.61745632104976,-2.47196154726475
1580421715.75554,-3.44853894865332,1.55642023346309,-2.34988937209118
1580421715.75953,-3.20439459830618,1.37331197070262,-2.22781719691761
1580421715.76353,-2.7771419851988,0.885023270008332,-2.10574502174404
1580421715.76753,-1.43434805828952,0.51880674448762,-2.04470893415737
1580421715.77153,0.335698481727377,0.457770656900948,-1.67849240863666
1580421715.77553,1.55642023346309,0.762951094834762,-1.25123979552905
1580421715.77953,2.89921416037237,1.0070954451819,-0.640878919661191
1580421715.78354,4.54718852521546,1.31227588311594,-0.091554131380235
1580421715.78754,5.88998245212474,1.49538414587619,0.335698481727377
1580421715.79154,7.04966811627378,1.49538414587619,0.51880674448762
1580421715.79553,7.53795681696806,1.61745632104976,0.579842832074519
1580421715.79953,7.66002899214163,1.43434805828952,0.51880674448762
1580421715.80353,7.66002899214163,1.43434805828952,0.335698481727377
1580421715.80753,7.35484855420759,1.43434805828952,0.213626306553806
1580421715.81153,7.04966811627378,1.49538414587619,0.0305180437933359
1580421715.81553,6.19516289005878,1.25123979552905,-0.213626306553806
1580421715.81953,5.03547722590974,1.0681315327688,-0.51880674448762
1580421715.82353,3.63164721141379,0.762951094834762,-0.823987182421661
1580421715.82752,2.16678110933094,0.457770656900948,-1.19020370794237
1580421715.83152,1.37331197070262,0.335698481727377,-1.55642023346309
1580421715.83552,0.946059357595232,0.396734569314049,-1.8616006713969
1580421715.83952,0.70191500724809,0.274662394140478,-2.16678110933094
1580421715.84352,0.640878919661191,0.213626306553806,-2.28885328450451
1580421715.84752,0.335698481727377,0.335698481727377,-2.34988937209118
1580421715.85152,-0.091554131380235,0.457770656900948,-2.34988937209118
1580421715.85552,-0.274662394140478,0.640878919661191,-2.41092545967808
1580421715.85951,-0.457770656900948,0.885023270008332,-2.53299763485165
1580421715.86349,-0.579842832074519,0.762951094834762,-2.53299763485165
1580421715.86749,-0.396734569314049,0.885023270008332,-2.53299763485165
1580421715.87149,-0.457770656900948,0.579842832074519,-2.47196154726475
1580421715.87549,-0.70191500724809,0.640878919661191,-2.53299763485165
1580421715.87949,-1.0070954451819,0.579842832074519,-2.53299763485165
1580421715.88349,-0.946059357595232,0.396734569314049,-2.47196154726475
1580421715.88749,-0.823987182421661,0.396734569314049,-2.41092545967808
1580421715.89149,-0.091554131380235,0.152590218966907,-2.28885328450451
1580421715.89548,0.70191500724809,0.274662394140478,-2.22781719691761
1580421715.89948,1.49538414587619,0.457770656900948,-2.10574502174404
1580421715.90348,2.53299763485165,0.457770656900948,-1.80056458381023
1580421715.90748,3.75371938658736,0.396734569314049,-1.49538414587619
1580421715.91148,4.8523689631495,0.51880674448762,-1.19020370794237
1580421715.91548,5.03547722590974,0.640878919661191,-0.885023270008332
1580421715.91948,4.7913328755626,0.762951094834762,-0.70191500724809
1580421715.92348,3.99786373693451,0.762951094834762,-0.70191500724809
1580421715.92747,3.26543068589308,0.762951094834762,-0.70191500724809
1580421715.93147,2.7771419851988,0.640878919661191,-0.946059357595232
1580421715.93547,2.65506981002522,0.396734569314049,-1.25123979552905
1580421715.93947,2.41092545967808,0.213626306553806,-1.31227588311594
1580421715.94348,2.04470893415737,0.152590218966907,-1.31227588311594
1580421715.94748,1.8616006713969,0.0305180437933359,-1.37331197070262
1580421715.95148,1.49538414587619,0.0305180437933359,-1.31227588311594
1580421715.95548,1.12916762035547,0.213626306553806,-1.37331197070262
1580421715.95948,0.946059357595232,0.213626306553806,-1.49538414587619
1580421715.96347,0.457770656900948,-0.152590218966907,-1.55642023346309
1580421715.96747,0.091554131380235,-0.396734569314049,-1.61745632104976
1580421715.97147,-0.640878919661191,-0.640878919661191,-1.73952849622333
1580421715.97547,-0.946059357595232,-0.396734569314049,-1.73952849622333
1580421715.97947,-1.0681315327688,-0.274662394140478,-1.80056458381023
1580421715.98347,-0.885023270008332,-0.213626306553806,-1.73952849622333
1580421715.98747,-0.885023270008332,-0.396734569314049,-1.49538414587619
1580421715.99147,-0.946059357595232,-0.274662394140478,-1.0681315327688
1580421715.99547,-0.762951094834762,-0.335698481727377,-0.885023270008332
1580421715.99946,0.152590218966907,-0.51880674448762,-0.70191500724809
1580421716.00346,1.25123979552905,-0.70191500724809,-0.457770656900948
1580421716.00746,2.65506981002522,-0.946059357595232,-0.152590218966907
1580421716.01146,3.81475547417404,-0.762951094834762,0.152590218966907
1580421716.01546,4.36408026245522,-0.396734569314049,0.457770656900948
1580421716.01946,4.66926070038903,-0.091554131380235,0.762951094834762
1580421716.02344,4.8523689631495,0.152590218966907,0.823987182421661
1580421716.02744,4.60822461280236,0.091554131380235,1.12916762035547
1580421716.03144,4.11993591210808,0.091554131380235,1.25123979552905
1580421716.03543,3.75371938658736,-0.091554131380235,1.19020370794237
1580421716.03943,3.50957503624022,-0.396734569314049,1.19020370794237
1580421716.04343,2.83817807278547,-0.579842832074519,0.946059357595232
1580421716.04743,2.10574502174404,-0.70191500724809,0.885023270008332
1580421716.05143,1.31227588311594,-0.640878919661191,0.579842832074519
1580421716.05543,0.213626306553806,-0.762951094834762,0.152590218966907
1580421716.05943,-1.0681315327688,-1.37331197070262,-0.152590218966907
1580421716.06342,-2.10574502174404,-1.9226367589838,0.152590218966907
1580421716.06742,-3.02128633554594,-1.49538414587619,0.70191500724809
1580421716.07142,-3.02128633554594,-0.579842832074519,1.25123979552905
1580421716.07542,-2.89921416037237,-0.0305180437933359,1.12916762035547
1580421716.07942,-3.26543068589308,-0.823987182421661,0.213626306553806
1580421716.08342,-5.34065766384379,-2.65506981002522,-0.640878919661191
1580421716.08742,-9.06385900663759,-3.50957503624022,-0.70191500724809
1580421716.09142,-10.955977721828,-2.65506981002522,-0.213626306553806
1580421716.09541,-9.4911116197452,-0.762951094834762,0.152590218966907
1580421716.09941,-6.68345159075307,0.091554131380235,0.091554131380235
1580421716.10342,-5.52376592660403,-0.335698481727377,-0.274662394140478
1580421716.10742,-6.13412680247188,-1.55642023346309,-0.70191500724809
1580421716.11142,-7.04966811627378,-2.04470893415737,-1.0681315327688
1580421716.11542,-7.35484855420759,-1.73952849622333,-1.19020370794237
1580421716.11942,-7.35484855420759,-1.25123979552905,-1.25123979552905
1580421716.12342,-7.72106507972831,-1.0681315327688,-1.55642023346309
1580421716.12742,-8.45349813076973,-1.37331197070262,-1.9226367589838
1580421716.13141,-8.6366063935302,-1.55642023346309,-2.10574502174404
1580421716.13541,-7.90417334248878,-1.49538414587619,-2.16678110933094
1580421716.13941,-6.07309071488521,-1.37331197070262,-2.16678110933094
1580421716.14341,-4.30304417486832,-1.12916762035547,-2.10574502174404
1580421716.14741,-3.38750286106665,-1.0681315327688,-2.10574502174404
1580421716.15141,-2.89921416037237,-0.885023270008332,-2.16678110933094
1580421716.15541,-2.65506981002522,-0.70191500724809,-2.22781719691761
1580421716.15941,-2.47196154726475,-0.091554131380235,-2.41092545967808
1580421716.1634,-2.96025024795904,0.0305180437933359,-2.53299763485165
1580421716.1674,-4.18097199969475,-0.274662394140478,-2.65506981002522
1580421716.1714,-5.27962157625689,-0.885023270008332,-3.14335851071951
1580421716.1754,-5.88998245212474,-1.0070954451819,-3.32646677347975
1580421716.1794,-5.95101853971164,-1.0070954451819,-3.87579156176093
1580421716.18338,-5.46272983901736,-1.0681315327688,-4.42511635004189
1580421716.18738,-4.91340505073617,-1.25123979552905,-4.97444113832307
1580421716.19138,-4.54718852521546,-1.31227588311594,-5.40169375143046
1580421716.19538,-4.42511635004189,-1.31227588311594,-5.76791027695117
1580421716.19937,-4.36408026245522,-1.25123979552905,-6.19516289005878
1580421716.20337,-4.66926070038903,-1.55642023346309,-6.56137941557949
1580421716.20737,-4.91340505073617,-1.80056458381023,-6.80552376592664
1580421716.21137,-5.03547722590974,-2.10574502174404,-6.92759594110021
1580421716.21537,-4.73029678797593,-2.28885328450451,-7.17174029144735
1580421716.21937,-4.60822461280236,-2.47196154726475,-7.47692072938116
1580421716.22337,-4.42511635004189,-2.53299763485165,-7.84313725490188
1580421716.22737,-4.36408026245522,-2.65506981002522,-8.20935378042259
1580421716.23136,-4.05889982452118,-3.32646677347975,-8.88075074387734
1580421716.23536,-3.32646677347975,-3.63164721141379,-9.4300755321583
1580421716.23936,-2.7161058976119,-4.05889982452118,-9.61318379491877
1580421716.24336,-2.53299763485165,-4.36408026245522,-10.0404364080262
1580421716.24736,-2.7161058976119,-4.48615243762879,-10.2235446707866
1580421716.25136,-2.96025024795904,-4.54718852521546,-10.650797283894
1580421716.25536,-2.96025024795904,-4.60822461280236,-10.955977721828
1580421716.25936,-2.65506981002522,-4.8523689631495,-11.2001220721752
1580421716.26337,-2.41092545967808,-5.09651331349664,-11.3832303349354
1580421716.26736,-1.80056458381023,-5.27962157625689,-11.6273746852826
1580421716.27136,-1.0681315327688,-5.34065766384379,-11.9325551232166
1580421716.27536,-0.640878919661191,-5.82894636453807,-12.4208438239109
1580421716.27936,-0.51880674448762,-6.37827115281902,-13.0312046997788
1580421716.28336,-0.70191500724809,-6.56137941557949,-13.7636377508202
1580421716.28736,0.091554131380235,-6.62241550316617,-14.5571068894483
1580421716.29136,1.80056458381023,-6.19516289005878,-14.9843595025559
1580421716.29536,3.26543068589308,-6.01205462729831,-15.1674677653161
1580421716.29936,3.93682764934761,-5.7068741893645,-15.4116121156633
1580421716.30335,3.50957503624022,-5.40169375143046,-15.7167925535973
1580421716.30735,2.10574502174404,-4.97444113832307,-16.3271534294652
1580421716.31135,0.152590218966907,-4.7913328755626,-17.1816586556802
1580421716.31535,-1.49538414587619,-5.15754940108332,-18.0971999694818
1580421716.31935,-3.08232242313261,-5.40169375143046,-19.2568856336309
1580421716.32335,-4.66926070038903,-5.88998245212474,-20.1724269474325
1580421716.32735,-5.88998245212474,-6.07309071488521,-20.8438239108873
1580421716.33134,-6.80552376592664,-5.88998245212474,-21.210040436408
1580421716.33534,-6.98863202868688,-5.88998245212474,-21.6372930495154
1580421716.33934,-6.74448767833974,-6.43930724040592,-22.3697261005568
1580421716.34332,-5.7068741893645,-7.11070420386045,-23.0411230640116
1580421716.34732,-4.48615243762879,-7.66002899214163,-23.5294117647059
1580421716.35132,-2.65506981002522,-8.02624551766235,-23.9566643778132
1580421716.35532,-0.579842832074519,-7.84313725490188,-24.3839169909209
1580421716.35932,1.25123979552905,-7.59899290455473,-24.8111696040282
1580421716.36332,2.47196154726475,-7.66002899214163,-25.2384222171358
1580421716.36731,3.20439459830618,-7.72106507972831,-25.7877470054168
1580421716.37131,3.32646677347975,-7.96520943007545,-26.5201800564582
1580421716.37531,3.02128633554594,-8.02624551766235,-27.191577019913
1580421716.37931,2.96025024795904,-8.02624551766235,-28.2291905088882
1580421716.38331,2.65506981002522,-8.27038986800949,-29.6940566109711
1580421716.38731,2.04470893415737,-8.45349813076973,-31.2199588006408
1580421716.39131,1.55642023346309,-8.51453421835663,-32.7458609903106
1580421716.39531,0.885023270008332,-8.81971465629044,-34.5159075303275
1580421716.3993,-0.0305180437933359,-9.55214770733187,-36.2859540703441
1580421716.4033,-2.41092545967808,-10.2845807583733,-38.2391088731213
1580421716.4073,-4.97444113832307,-10.7118333714809,-40.314335851072
1580421716.4113,-6.56137941557949,-11.2611581597619,-42.4505989166096
1580421716.4153,-7.29381246662092,-11.9325551232166,-44.6478980697339
1580421716.4193,-6.98863202868688,-12.4818799114976,-46.7841611352712
1580421716.42328,-7.11070420386045,-12.7260242618447,-48.6152437628748
1580421716.42728,-7.66002899214163,-13.0312046997788,-50.6904707408255
1580421716.43128,-8.94178683146401,-13.3363851377126,-53.1319142442969
1580421716.43527,-9.61318379491877,-13.6415655756466,-56.1226825360495
1580421716.43927,-9.30800335698473,-14.068818188754,-59.1134508278019
1580421716.44327,-7.84313725490188,-14.3129625391011,-62.0431830319676
1580421716.44727,-5.40169375143046,-14.3129625391011,-65.0949874113069
1580421716.45127,-3.44853894865332,-15.0453955901426,-68.207827878233
1580421716.45527,-2.65506981002522,-15.1674677653161,-71.0765239948119
1580421716.45927,-1.37331197070262,-15.4726482032502,-74.0062561989776
1580421716.46327,-0.213626306553806,-15.1674677653161,-77.302204928664
1580421716.46726,0.274662394140478,-14.8622873273823,-81.1474784466316
1580421716.47126,-0.885023270008332,-14.8622873273823,-85.297932402533
1580421716.47526,-2.96025024795904,-14.6181429770352,-90.2418554970625
1580421716.47926,-4.91340505073617,-14.6791790646218,-95.857175555047
1580421716.48326,-6.13412680247188,-15.4116121156633,-101.960784313726
1580421716.48726,-6.07309071488521,-16.1440451667047,-107.881284809644
1580421716.49126,-5.82894636453807,-17.1816586556802,-113.557640955215
1580421716.49526,-6.25619897764545,-18.9517051956968,-119.111924925612
1580421716.49925,-6.92759594110021,-22.2476539253832,-124.483100633249
1580421716.50326,-7.72106507972831,-25.2994583047225,-128.877698939498
1580421716.50726,-8.33142595559616,-26.3981078812847,-132.722972457465
1580421716.51126,-8.33142595559616,-26.4591439688716,-136.385137712673
1580421716.51526,-7.72106507972831,-26.2149996185244,-139.925230792706
1580421716.51926,-7.04966811627378,-24.4449530785075,-143.038071259632
1580421716.52326,-4.48615243762879,-21.6983291371023,-145.662623025864
1580421716.52726,0.457770656900948,-19.9893186846723,-147.493705653467
1580421716.53126,8.81971465629044,-18.341344319829,-148.043030441749
1580421716.53525,17.9751277943083,-16.083009079118,-147.371633478294
1580421716.53925,25.9098191805904,-13.9467460135804,-145.784695201037
1580421716.54325,28.1681544213016,-11.0170138094147,-144.319829098955
1580421716.54725,24.5059891660944,-5.82894636453807,-144.014648661021
1580421716.55125,21.6372930495154,-0.51880674448762,-145.418478675517
1580421716.55525,26.0929274433508,1.0681315327688,-147.188525215534
1580421716.55925,36.2859540703439,-1.12916762035547,-147.554741741054
1580421716.56325,44.4647898069732,-4.48615243762879,-145.784695201037
1580421716.56725,46.4179446097503,-7.17174029144735,-142.793926909285
1580421716.57124,43.2440680552374,-7.66002899214163,-140.23041123064
1580421716.57524,39.5819028000303,-5.88998245212474,-138.765545128557
1580421716.57924,37.2625314717325,-3.20439459830618,-138.460364690623
1580421716.58322,34.2717631799801,-0.885023270008332,-138.887617303731
1580421716.58722,27.4357213702601,0.885023270008332,-138.399328603037
1580421716.59122,17.792019531548,2.28885328450451,-137.056534676127
1580421716.59522,7.72106507972831,4.11993591210808,-134.493018997482
1580421716.59922,-2.34988937209118,7.53795681696806,-131.258106355383
1580421716.60321,-10.5897611963073,11.810482948043,-128.572518501564
1580421716.60721,-14.8012512397954,15.4726482032502,-126.131074998093
1580421716.61121,-8.45349813076973,16.0219729915311,-122.041657129778
1580421716.61521,10.5897611963073,12.6039520866711,-113.252460517281
1580421716.61921,35.6755931944761,9.12489509422448,-98.1155107957582
1580421716.62321,56.7940794995038,8.02624551766235,-79.011215381094
1580421716.62721,63.752193484398,7.84313725490188,-60.3341725795376
1580421716.63121,52.4605172808419,9.67421988250544,-45.1972228580148
1580421716.63521,25.8487830930037,15.2895399404897,-34.1496910048068
1580421716.6392,-5.7068741893645,23.4073395895323,-26.5201800564582
1580421716.6432,-29.9382009613182,28.7785152971694,-21.0269321736475
1580421716.6472,-40.9246967269398,30.4875257495994,-15.228503852903
1580421716.6512,-44.037537193866,29.6330205233844,-6.80552376592664
1580421716.6552,-46.601052872511,26.2760357061111,3.87579156176093
1580421716.6592,-53.1319142442969,22.613870450904,15.0453955901426
1580421716.66321,-63.8742656595712,20.2944991226061,25.4215304798961
1580421716.66721,-76.2035553521018,19.9893186846723,34.3327992675668
1580421716.67121,-86.0303654535744,20.5386434729533,42.8168154421301
1580421716.6752,-90.4859998474096,20.6607156481268,51.911192492561
1580421716.6792,-88.4718089570458,20.1724269474325,61.7380025940333
1580421716.6832,-81.3916227969787,18.646524757763,73.0296787975894
1580421716.6872,-70.9544518196383,16.3881895170518,85.1758602273594
1580421716.6912,-58.6861982146945,14.4350347142747,97.9934386205846
1580421716.6952,-45.0751506828412,12.9701686121919,110.749980926223
1580421716.6992,-31.2199588006408,12.2377355611504,123.201342793927
1580421716.70319,-18.1582360570687,11.6884107728695,134.737163347829
1580421716.70719,-5.40169375143046,11.1390859845883,145.601586938277
1580421716.71119,6.68345159075307,10.1625085831997,155.672541390097
1580421716.71519,17.7309834439611,8.94178683146401,165.68245975433
1580421716.71919,27.8019378957808,7.72106507972831,175.387197680629
1580421716.72319,36.7132066834515,6.80552376592664,184.84779125658
1580421716.72719,44.0985732814524,6.19516289005878,193.820096131838
1580421716.73119,49.8970016021972,6.01205462729831,202.121004043641
1580421716.73518,54.2915999084457,6.07309071488521,209.628442816816
1580421716.73918,57.8316929884791,6.68345159075307,216.281376363775
1580421716.74316,60.1510643167771,7.47692072938116,222.07980468452
1580421716.74716,60.8834973678186,8.27038986800949,227.023727779049
1580421716.75116,59.90691996643,9.06385900663759,231.418326085298
1580421716.75516,56.3668268863962,9.91836423285258,234.836346990158
1580421716.75916,50.6294346532386,10.5287251087204,237.521934843976
1580421716.76316,43.4271763179979,11.2001220721752,239.597161821927
1580421716.76716,35.4314488441289,12.0546272983902,240.87891966125
1580421716.77115,27.4967574578468,12.8480964370183,241.428244449531
1580421716.77515,19.4399938963911,13.4584573128861,241.306172274357
1580421716.77915,10.8949416342411,13.9467460135804,240.939955748836
1580421716.78315,1.49538414587619,14.0077821011673,240.329594872969
1580421716.78715,-8.51453421835663,13.8857099259938,239.841306172274
1580421716.79115,-18.8296330205233,13.8246738384069,239.108873121233
1580421716.79515,-29.2668039978637,13.4584573128861,238.132295719844
1580421716.79915,-39.0325780117496,12.9091325246052,236.911573968109
1580421716.80314,-48.0659189745938,12.2987716487373,235.263599603265
1580421716.80714,-55.8175020981155,11.3832303349354,233.310444800488
1580421716.81114,-62.7145799954224,9.4300755321583,230.930037384604
1580421716.81514,-69.8558022430761,5.88998245212474,227.939269092851
1580421716.81914,-76.6918440527961,1.8616006713969,224.216067750057
1580421716.82315,-82.4902723735408,-3.02128633554594,220.248722056916
1580421716.82715,-86.5796902418554,-8.27038986800949,215.732051575494
1580421716.83115,-87.7393759060044,-12.4208438239109,211.154345006485
1580421716.83515,-85.0537880521858,-15.9609369039445,206.393530174716
1580421716.83914,-78.7670710307468,-18.7685969329366,201.57167925536
1580421716.84314,-71.9920653086137,-20.7827878233004,197.055008773938
1580421716.84714,-67.1702143892576,-22.1866178377966,192.538338292516
1580421716.85114,-64.7287708857862,-22.7359426260775,187.89959563592
1580421716.85514,-63.9963378347447,-23.1631952391851,182.772564278629
1580421716.85914,-63.3859769588769,-23.2242313267718,177.035172045472
1580421716.86314,-63.1418326085297,-22.9800869764247,170.382238498512
1580421716.86714,-63.8132295719845,-22.4917982757304,162.630655374991
1580421716.87113,-65.2780956740673,-22.0035095750361,153.658350499733
1580421716.87513,-66.9871061264973,-21.4541847867551,143.709468223087
1580421716.87913,-69.1233691920347,-21.1490043488211,133.089188982986
1580421716.88313,-72.175173571374,-20.904859998474,122.285801480125
1580421716.88713,-75.593194476234,-20.2944991226061,111.726558327611
1580421716.89113,-79.4384679942016,-19.3179217212175,101.533531700618
1580421716.89513,-83.2227054245823,-18.1582360570687,91.889829861906
1580421716.89913,-86.3355458915082,-16.9985503929197,83.0395971618223
1580421716.90311,-88.3497367818723,-15.4726482032502,74.7386892500194
1580421716.9071,-88.5328450446325,-13.7026016632333,67.170214389258
1580421716.9111,-86.4576180666818,-11.810482948043,60.0289921416033
1580421716.9151,-81.574731059739,-9.61318379491877,53.5591668574043
1580421716.9191,-73.7010757610437,-6.68345159075307,47.4555580987258
1580421716.9231,-62.8976882581826,-3.26543068589308,41.7792019531546
1580421716.9271,-50.1411459525445,0.335698481727377,36.6521705958646
1580421716.9311,-36.9573510337989,3.81475547417404,31.5861753261615
1580421716.9351,-25.1773861295489,6.74448767833974,26.5201800564582
1580421716.9391,-15.228503852903,9.4911116197452,21.210040436408
1580421716.94309,-4.97444113832307,11.9325551232166,16.083009079118
1580421716.94709,6.37827115281902,14.3129625391011,10.7728694590676
1580421716.95109,18.9517051956968,15.8999008163576,5.21858548867021
1580421716.95509,31.5861753261615,16.632333867399,-0.51880674448762
1580421716.95909,42.1454184786753,16.937514305333,-6.43930724040592
1580421716.96309,49.65285725185,17.1816586556802,-12.7260242618447
1580421716.96709,55.0240329594872,17.9751277943083,-19.3179217212175
1580421716.97108,58.9303425650414,19.1348134584573,-26.1539635309375
1580421716.97508,61.8600747692071,20.4165712977797,-33.2951857785918
1580421716.97908,64.6677347981995,21.4541847867551,-40.3753719386589
1580421716.98309,66.9871061264976,22.4917982757304,-47.2114137483788
1580421716.98709,70.4661631189442,27.9240100709544,-53.1929503318838
1580421716.99109,73.5790035858704,39.1546501869229,-57.1602960250248
1580421716.99509,65.2780956740676,39.3987945372701,-61.4328221560997
1580421716.99909,48.9814602883953,35.9807736324101,-68.207827878233
1580421717.00309,29.4499122606239,32.8679331654839,-77.9125658045318
1580421717.00708,17.6699473563745,24.7501335164416,-90.6691081101701
1580421717.01108,36.1028458075837,8.14831769283592,-100.74006256199
1580421717.01508,85.1758602273594,-12.4818799114976,-98.6648355840391
1580421717.01908,125.093461509117,-22.2476539253832,-88.3497367818723
1580421717.02308,132.173647669184,-18.4023804074159,-78.6449988555732
1580421717.02708,108.064393072404,-7.7821011673152,-73.1517509727626
1580421717.03108,63.6911573968109,4.91340505073617,-73.6400396734568
1580421717.03508,17.3647669184404,17.3037308308537,-79.4995040817882
1580421717.03907,-21.6372930495154,27.8019378957808,-88.3497367818723
1580421717.04307,-52.9488059815367,34.5769436179139,-98.2986190585184
1580421717.04707,-75.043869687953,31.2199588006408,-106.294346532387
1580421717.05107,-86.7627985046158,15.5947203784237,-108.735790035859
1580421717.05507,-98.9700160219732,4.24200808728165,-108.247501335165
1580421717.05907,-112.703135729,2.34988937209118,-111.238269626917
1580421717.06305,-121.492332341497,6.13412680247188,-118.318455786984
1580421717.06705,-125.154497596704,12.8480964370183,-125.581750209812
1580421717.07105,-127.473868925002,19.7451743343252,-130.281528953994
1580421717.07504,-125.215533684291,23.773556115053,-131.319142442969
1580421717.07904,-119.172961013199,22.0035095750361,-129.182879377432
1580421717.08304,-111.116197451743,19.0737773708704,-125.825894560159
1580421717.08704,-100.190737773709,17.8530556191347,-122.652018005646
1580421717.09104,-83.1616693369954,17.3037308308537,-119.417105363546
1580421717.09504,-61.921110856794,19.0127412832837,-115.754940108339
1580421717.09904,-40.6805523765927,23.0411230640116,-111.604486152438
1580421717.10304,-20.7217517357137,26.1539635309375,-107.637140459297
1580421717.10703,-2.53299763485165,26.4591439688716,-103.486686503395
1580421717.11103,12.1766994735638,25.7877470054168,-98.9700160219732
1580421717.11503,22.5528343633173,25.5436026550697,-94.3312733653775
1580421717.11903,29.1447318226901,25.9708552681773,-89.8756389715418
1580421717.12303,31.6472114137482,27.5577935454337,-85.7251850156404
1580421717.12703,30.4264896620125,29.6330205233844,-82.4902723735408
1580421717.13103,27.9240100709544,31.2199588006408,-80.170901045243
1580421717.13503,25.9098191805904,31.7692835889218,-78.7060349431601
1580421717.13902,25.7877470054168,31.0368505378804,-77.302204928664
1580421717.14304,27.2526131074997,29.755092698558,-75.8373388265811
1580421717.14703,32.3796444647896,28.4122987716487,-73.9452201113909
1580421717.15103,40.7415884641794,26.9474326695658,-71.320668345159
1580421717.15503,49.8970016021972,25.8487830930037,-68.2688639658197
1580421717.15903,56.1226825360491,26.0929274433508,-64.9118791485466
1580421717.16303,56.5499351491567,27.6798657206073,-61.7990386816205
1580421717.16703,51.36186770428,29.8161287861446,-59.1134508278019
1580421717.17103,43.5492484931715,30.9758144502937,-56.7940794995041
1580421717.17503,36.1638818951703,30.9758144502937,-54.9629968719005
1580421717.17902,29.3888761730373,29.9992370489051,-53.8033112077517
1580421717.18302,22.613870450904,28.4733348592354,-52.8267338063631
1580421717.18702,15.9609369039445,27.4357213702601,-51.728084229801
1580421717.19102,9.85732814526591,26.1539635309375,-50.873579003586
1580421717.19502,4.7913328755626,23.9566643778132,-50.3242542153048
1580421717.19902,-0.762951094834762,21.0269321736475,-50.2632181277181
1580421717.20302,-6.68345159075307,17.6089112687876,-50.2632181277181
1580421717.20702,-11.2001220721752,14.6791790646218,-50.019073777371
1580421717.21101,-13.519493400473,12.2987716487373,-49.5918211642634
1580421717.21501,-13.2753490501259,10.1014724956131,-48.7983520256353
1580421717.21901,-11.5663385976959,8.02624551766235,-47.3945220111391
1580421717.22299,-9.4911116197452,6.31723506523235,-45.5634393835355
1580421717.22699,-7.11070420386045,5.40169375143046,-43.1219958800641
1580421717.23099,-3.57061112382689,4.30304417486832,-40.4364080262455
1580421717.23499,1.19020370794237,2.16678110933094,-37.0794232089725
1580421717.23899,7.7821011673152,-0.579842832074519,-33.2951857785918
1580421717.24299,15.1064316777295,-3.20439459830618,-29.0226596475165
1580421717.24698,21.6983291371023,-4.54718852521546,-24.4449530785075
1580421717.25098,28.9616235599296,-5.03547722590974,-19.7451743343252
1580421717.25498,36.1638818951703,-4.54718852521546,-15.4726482032502
1580421717.25898,41.657129777981,-3.63164721141379,-11.8715190356297
1580421717.26298,45.8686198214693,-2.41092545967808,-9.06385900663759
1580421717.26698,48.1879911497672,-0.762951094834762,-6.74448767833974
1580421717.27098,49.7749294270234,0.762951094834762,-5.15754940108332
1580421717.27497,51.9722285801477,1.80056458381023,-4.18097199969475
1580421717.27897,53.5591668574043,2.34988937209118,-3.63164721141379
1580421717.28297,52.9488059815362,1.67849240863666,-3.50957503624022
1580421717.28697,49.7138933394367,0.762951094834762,-4.24200808728165
1580421717.29097,44.5258258945601,-0.335698481727377,-5.27962157625689
1580421717.29497,37.8728923476003,-1.49538414587619,-7.29381246662092
1580421717.29897,30.9758144502937,-2.28885328450451,-9.61318379491877
1580421717.30298,25.1163500419623,-2.7771419851988,-11.5663385976959
1580421717.30698,21.210040436408,-2.22781719691761,-12.6039520866711
1580421717.31098,18.8296330205233,-1.25123979552905,-12.9701686121919
1580421717.31497,17.6089112687876,-0.396734569314049,-12.5429159990845
1580421717.31897,16.5102616922254,0.335698481727377,-11.6884107728695
1580421717.32297,16.4492256046387,1.12916762035547,-10.650797283894
1580421717.32697,17.3647669184404,1.98367284657047,-9.61318379491877
1580421717.33097,18.2192721446554,2.53299763485165,-9.06385900663759
1580421717.33497,20.904859998474,2.7771419851988,-8.94178683146401
1580421717.33897,26.0929274433508,3.02128633554594,-8.94178683146401
1580421717.34297,32.1965362020294,3.08232242313261,-8.14831769283592
1580421717.34696,37.6287479972532,3.69268329900046,-7.17174029144735
1580421717.35096,41.4129854276339,4.42511635004189,-6.07309071488521
1580421717.35496,43.6713206683451,5.46272983901736,-4.7913328755626
1580421717.35896,44.1596093690393,6.68345159075307,-3.81475547417404
1580421717.36296,44.2816815442129,7.7821011673152,-3.26543068589308
1580421717.36696,44.2816815442129,8.14831769283592,-3.63164721141379
1580421717.37096,43.1219958800639,7.7821011673152,-4.30304417486832
1580421717.37496,42.1454184786753,6.98863202868688,-4.97444113832307
1580421717.37895,41.2298771648736,6.86655985351331,-5.46272983901736
1580421717.38293,38.6053253986418,6.68345159075307,-6.62241550316617
1580421717.38693,35.7366292820629,5.58480201419093,-8.20935378042259
1580421717.39093,33.9665827420461,4.60822461280236,-9.67421988250544
1580421717.39493,33.4172579537651,3.87579156176093,-10.5287251087204
1580421717.39893,31.9523918516823,3.44853894865332,-11.0170138094147
1580421717.40293,31.8303196765087,3.20439459830618,-10.955977721828
1580421717.40693,33.3562218661782,3.08232242313261,-10.7118333714809
1580421717.41092,36.3469901579308,3.08232242313261,-10.0404364080262
1580421717.41492,39.7039749752039,3.20439459830618,-8.94178683146401
1580421717.41892,43.6102845807582,3.26543068589308,-8.14831769283592
1580421717.42292,47.4555580987258,3.14335851071951,-7.7821011673152
1580421717.42692,50.9346150911724,2.16678110933094,-7.66002899214163
1580421717.43092,56.0616464484624,1.12916762035547,-7.35484855420759
1580421717.43492,61.0055695429919,0.335698481727377,-7.29381246662092
1580421717.43892,66.8039978637371,-0.152590218966907,-7.35484855420759
1580421717.44292,69.062333104448,-0.152590218966907,-8.5755703059433
1580421717.44691,70.3440909437709,-0.946059357595232,-10.8339055466545
1580421717.45091,68.879224841688,-3.26543068589308,-13.7026016632333
1580421717.45491,65.8274204623485,-5.82894636453807,-16.3881895170518
1580421717.45891,61.0055695429919,-6.68345159075307,-19.195849546044
1580421717.46289,57.648584725719,-6.01205462729831,-21.8814373998625
1580421717.46689,56.6109712367434,-5.34065766384379,-24.4449530785075
1580421717.47089,55.8785381857019,-5.58480201419093,-28.2902265964751
1580421717.47489,53.8643472953381,-6.92759594110021,-33.6003662165256
1580421717.47888,49.042496375982,-9.06385900663759,-39.9481193255513
1580421717.48288,44.2816815442129,-11.1390859845883,-46.2348363469903
1580421717.48688,43.0609597924772,-12.1766994735638,-50.9956511787595
1580421717.49088,41.4740215152208,-12.359807736324,-55.146105134661
1580421717.49488,38.0560006103608,-12.2377355611504,-59.8458838788433
1580421717.49888,34.6379797055008,-12.4208438239109,-65.2170595864804
1580421717.50288,30.9147783627068,-12.359807736324,-70.9544518196383
1580421717.50688,29.2057679102768,-12.1766994735638,-76.3256275272754
1580421717.51087,28.7174792095825,-11.9935912108033,-80.6591897459373
1580421717.51487,28.2902265964751,-12.2377355611504,-84.8706797894254
1580421717.51887,27.4357213702601,-12.7260242618447,-89.3263141832608
1580421717.52287,26.337071793698,-13.3363851377126,-93.8429846646832
1580421717.52687,24.8722056916151,-14.4350347142747,-98.2375829709317
1580421717.53087,25.2384222171358,-15.228503852903,-102.510109102007
1580421717.53487,27.6188296330204,-16.083009079118,-106.233310444801
1580421717.53887,31.2199588006408,-16.9985503929197,-109.407186999313
1580421717.54288,34.7600518806744,-17.792019531548,-112.397955291066
1580421717.54688,36.5911345082779,-18.341344319829,-115.449759670405
1580421717.55087,36.4690623331044,-19.0737773708704,-118.745708400092
1580421717.55487,33.7224383916989,-20.050354772259,-122.590981918059
1580421717.55887,30.9147783627068,-20.9658960860609,-126.985580224308
1580421717.56287,28.4733348592354,-22.1255817502097,-131.563286793317
1580421717.56687,26.2149996185244,-23.3463035019454,-135.835812924392
1580421717.57087,25.4215304798961,-23.773556115053,-140.04730296788
1580421717.57487,23.9566643778132,-23.773556115053,-144.075684748608
1580421717.57887,22.4917982757304,-24.1397726405737,-148.348210879682
1580421717.58286,20.7827878233004,-24.4449530785075,-152.559700923171
1580421717.58686,19.9282825970854,-24.7501335164416,-156.588082703899
1580421717.59086,19.9893186846723,-24.5670252536811,-160.067139696346
1580421717.59486,21.8204013122759,-24.2008087281604,-162.813763637751
1580421717.59886,25.0553139543754,-23.9566643778132,-164.950026703288
1580421717.60286,29.6940566109711,-23.5904478522925,-166.720073243305
1580421717.60686,35.0652323186082,-23.468375677119,-168.490119783322
1580421717.61086,40.7415884641794,-23.4073395895323,-170.260166323339
1580421717.61485,47.4555580987258,-22.7359426260775,-171.480888075075
1580421717.61885,51.7891203173876,-22.1255817502097,-172.70160982681
1580421717.62283,56.6720073243305,-21.210040436408,-173.678187228199
1580421717.62683,59.9679560540167,-20.2944991226061,-174.22751201648
1580421717.63083,62.7756160830095,-20.1724269474325,-174.837872892348
1580421717.63483,66.0715648126957,-20.9658960860609,-175.448233768215
1580421717.63883,70.8934157320518,-21.759365224689,-175.387197680629
1580421717.64283,74.3114366369118,-21.3321126115816,-174.715800717174
1580421717.64682,77.5463492790113,-18.9517051956968,-173.983367666133
1580421717.65082,80.9033340962847,-16.3271534294652,-173.556115053025
1580421717.65482,87.2510872053103,-14.6791790646218,-173.311970702678
1580421717.65882,94.3312733653775,-13.3363851377126,-172.51850156405
1580421717.66282,98.2986190585184,-12.2987716487373,-171.541924162661
1580421717.66682,100.068665598535,-11.9325551232166,-170.62638284886
1580421717.67082,101.472495613031,-12.7260242618447,-170.138094148165
1580421717.67482,105.622949568933,-13.0922407873654,-170.077058060578
1580421717.67881,113.008316166934,-12.7260242618447,-170.016021972992
1580421717.68281,122.713054093233,-11.9325551232166,-168.856336308843
1580421717.68681,128.08422980087,-9.97940032043948,-167.513542381933
1580421717.69081,125.947966735332,-5.88998245212474,-166.536964980545
1580421717.69481,115.449759670405,-5.40169375143046,-165.804531929503
1580421717.69881,101.472495613031,-8.81971465629044,-165.072098878462
1580421717.70282,86.5796902418556,-12.9701686121919,-164.644846265355
1580421717.70682,70.2830548561838,-15.8999008163576,-164.827954528115
1580421717.71082,50.9346150911724,-16.5712977798123,-165.86556801709
1580421717.71482,30.609597924773,-15.777828641184,-166.903181506065
1580421717.71881,12.6039520866711,-14.8012512397954,-167.086289768826
1580421717.72281,-3.69268329900046,-13.0312046997788,-166.964217593652
1580421717.72681,-21.1490043488211,-9.24696726939806,-167.57457846952
1580421717.73081,-42.023346303502,-2.53299763485165,-170.138094148165
1580421717.73481,-55.6343938353552,2.89921416037237,-176.058594644083
1580421717.73881,-54.7798886091402,1.25123979552905,-183.016708628977
1580421717.74281,-37.8728923476006,-6.92759594110021,-182.528419928283
1580421717.74681,-21.3321126115816,-21.0879682612344,-165.621423666743
1580421717.7508,-23.1631952391851,-28.8395513847561,-141.023880369268
1580421717.7548,-39.459830624857,-20.355535210193,-120.576791027695
1580421717.7588,-58.0758373388267,-10.5287251087204,-102.571145189593
1580421717.7628,-66.4377813382162,-10.650797283894,-80.2929732204166
1580421717.7668,-60.8834973678188,-13.3363851377126,-56.3057907988098
1580421717.7708,-49.7138933394369,-10.5897611963073,-35.6755931944763
1580421717.7748,-44.8310063324941,-5.88998245212474,-19.501029983978
1580421717.7788,-51.4229037918669,-3.87579156176093,-7.59899290455473
1580421717.78278,-65.5222400244145,-3.63164721141379,0.51880674448762
1580421717.78677,-80.5981536583504,-1.73952849622333,5.15754940108332
1580421717.79077,-95.002670328832,2.04470893415737,7.59899290455473
1580421717.79477,-109.529259174487,4.97444113832307,9.30800335698473
1580421717.79877,-124.84931715877,5.46272983901736,12.6039520866711
1580421717.80277,-139.864194705119,4.48615243762879,18.4023804074159
1580421717.80677,-152.498664835584,2.96025024795904,27.4967574578468
1580421717.81077,-160.250247959106,1.0681315327688,39.8260471503775
1580421717.81477,-161.409933623255,-1.0681315327688,55.2071412222476
1580421717.81876,-154.634927901122,-3.75371938658736,72.4193179217214
1580421717.82276,-140.04730296788,-6.07309071488521,90.9132524605175
1580421717.82676,-121.24818799115,-7.72106507972831,110.078583962768
1580421717.83076,-101.777676050965,-8.69764248111687,128.511482413977
1580421717.83476,-82.8564888990616,-9.00282291905091,145.479514763103
1580421717.83876,-65.5222400244145,-7.96520943007545,160.494392309453
1580421717.84276,-49.9580376897841,-6.19516289005878,173.678187228199
1580421717.84676,-36.5911345082782,-4.11993591210808,185.275043869688
1580421717.85075,-25.4215304798961,-2.89921416037237,195.895323109789
1580421717.85475,-16.2661173418783,-2.83817807278547,206.637674525063
1580421717.85875,-8.69764248111687,-3.26543068589308,217.807278553445
1580421717.86276,-3.26543068589308,-3.87579156176093,229.343099107347
1580421717.86676,0.213626306553806,-4.36408026245522,240.87891966125
1580421717.87076,1.31227588311594,-4.8523689631495,252.292668039979
1580421717.87476,1.0681315327688,-5.03547722590974,263.157091630426
1580421717.87876,0.579842832074519,-5.21858548867021,272.922865644312
1580421717.88276,1.0070954451819,-5.82894636453807,281.773098344396
1580421717.88675,2.7161058976119,-6.37827115281902,290.135042343786
1580421717.89075,5.40169375143046,-6.86655985351331,297.703517204547
1580421717.89475,9.4911116197452,-7.41588464179449,304.783703364614
1580421717.89875,14.7402151522087,-7.84313725490188,311.3145647364
1580421717.90275,20.6607156481268,-7.90417334248878,317.906462195774
1580421717.90675,26.8253604943923,-7.04966811627378,324.132143129626
1580421717.91075,32.8679331654839,-5.03547722590974,329.93057145037
1580421717.91475,38.9715419241625,-2.22781719691761,335.423819333181
1580421717.91875,43.7323567559317,1.49538414587619,340.794995040818
1580421717.92274,45.8686198214693,5.58480201419093,346.105134660868
1580421717.92674,43.9765011062789,8.14831769283592,351.110093842985
1580421717.93074,38.9715419241625,9.79629205767901,355.748836499581
1580421717.93474,29.4499122606239,11.0780498970016,359.777218280308
1580421717.93874,16.2661173418783,11.7494468604561,362.767986572061
1580421717.94272,0.70191500724809,12.1766994735638,365.026321812772
1580421717.94672,-15.1064316777295,12.2377355611504,366.491187914855
1580421717.95072,-29.755092698558,12.1766994735638,367.101548790723
1580421717.95471,-43.4271763179981,12.6039520866711,366.186007476921
1580421717.95871,-56.3057907988098,13.3974212252995,364.11078049897
1580421717.96271,-69.1233691920347,13.8246738384069,360.753795681697
1580421717.96671,-82.3682001983673,13.519493400473,356.542305638209
1580421717.97071,-95.9792477302205,11.7494468604561,351.842526894026
1580421717.97471,-110.322728313115,9.18593118181116,347.264820325017
1580421717.97871,-125.154497596704,6.62241550316617,342.565041580835
1580421717.98271,-139.497978179599,3.50957503624022,338.109407186999
1580421717.9867,-153.292133974212,0.091554131380235,333.958953231098
1580421717.9907,-167.086289768826,-2.89921416037237,329.686427100023
1580421717.9947,-179.903868162051,-5.40169375143046,325.352864881361
1580421717.9987,-189.97482261387,-8.51453421835663,320.958266575113
1580421718.0027,-197.360189211872,-12.2377355611504,316.441596093691
1580421718.0067,-201.083390554665,-16.632333867399,311.863889524681
1580421718.0107,-200.778210116732,-20.8438239108873,306.981002517738
1580421718.0147,-195.468070496681,-24.322880903334,302.037079423209
1580421718.01869,-184.603646906233,-26.3981078812847,296.665903715572
1580421718.0227,-167.940794995041,-26.7643244068054,290.80643930724
1580421718.0267,-146.150911726558,-25.5436026550697,284.824902723735
1580421718.0307,-121.736476691844,-23.8345922026397,278.599221789883
1580421718.0347,-97.2610055695432,-21.5152208743418,272.251468680858
1580421718.0387,-75.043869687953,-19.195849546044,265.659571221485
1580421718.0427,-56.7940794995041,-16.7544060425726,258.15213244831
1580421718.0467,-43.7933928435189,-13.6415655756466,249.851224536507
1580421718.0507,-36.7132066834517,-9.91836423285258,240.207522697795
1580421718.05469,-34.2717631799803,-5.52376592660403,228.793774319066
1580421718.05869,-33.7224383916991,0.335698481727377,215.548943312734
1580421718.06269,-31.2809948882277,7.47692072938116,200.778210116732
1580421718.06669,-25.3604943923094,13.3974212252995,184.176394293126
1580421718.07069,-17.1206225680933,18.2803082322423,166.231784542611
1580421718.07469,-6.98863202868688,21.8814373998625,147.981994354162
1580421718.07869,4.42511635004189,24.0787365529868,128.694590676738
1580421718.08269,15.9609369039445,25.2384222171358,108.735790035859
1580421718.08668,26.6422522316318,26.5201800564582,88.7769893949799
1580421718.09068,37.2625314717325,27.9240100709544,68.2688639658199
1580421718.09468,48.0659189745934,29.4499122606239,47.5165941863124
1580421718.09868,56.4278629739833,30.3654535744258,26.7032883192187
1580421718.10266,61.7990386816205,30.1213092240787,6.25619897764545
1580421718.10666,65.4001678492409,29.6940566109711,-13.9467460135804
1580421718.11066,68.3909361409937,29.3888761730373,-33.478294041352
1580421718.11466,72.480354009308,28.900587472343,-52.2774090180819
1580421718.11866,78.2177462424661,27.8019378957808,-69.916838330663
1580421718.12265,85.3589684901199,25.7877470054168,-86.0303654535744
1580421718.12665,96.4675364309151,30.4875257495994,-101.045242999924
1580421718.13065,121.065079728389,49.4697489890896,-112.642099641413
1580421718.13465,129.304951552605,37.0794232089722,-114.41214618143
1580421718.13865,99.2141603723203,29.5109483482108,-120.759899290455
1580421718.14265,55.329213397421,42.8168154421301,-134.981307698177
1580421718.14665,56.3057907988095,28.2902265964751,-143.770504310674
1580421718.15065,101.716639963378,-23.6514839398794,-135.530632486458
1580421718.15464,140.04730296788,-66.7429617761502,-113.435568780041
1580421718.15864,123.384451056687,-73.1517509727626,-89.1432059205003
1580421718.16264,43.0609597924772,-52.582589456016,-81.3305867093918
1580421718.16664,-52.8877698939498,-21.759365224689,-95.2468146791791
1580421718.17064,-133.089188982986,5.27962157625689,-119.172961013199
1580421718.17464,-194.491493095293,26.7032883192187,-143.46532387274
1580421718.17864,-229.159990844587,39.6429388876172,-165.49935149157
1580421718.18265,-229.404135194934,31.3420309758144,-178.377965972381
1580421718.18665,-196.993972686351,2.7771419851988,-174.898908979935
1580421718.19064,-168.368047608148,-13.9467460135804,-163.241016250858
1580421718.19464,-159.395742732891,-5.34065766384379,-156.221866178378
1580421718.19864,-156.710154879072,14.373998626688,-157.686732280461
1580421718.20264,-150.30136568246,27.9240100709544,-165.194171053636
1580421718.20664,-146.089875638972,29.2668039978637,-175.020981155108
1580421718.21064,-146.944380865187,21.5152208743418,-184.542610818647
1580421718.21464,-145.35744258793,12.4818799114976,-191.622796978714
1580421718.21864,-138.948653391318,6.43930724040592,-194.979781795987
1580421718.22264,-126.680399786374,4.91340505073617,-196.44464789807
1580421718.22663,-93.5988403143358,6.74448767833974,-195.773250934615
1580421718.23063,-47.0283054856184,5.03547722590974,-190.707255664912
1580421718.23463,-3.87579156176093,3.69268329900046,-182.345311665522
1580421718.23863,26.2760357061111,9.73525597009234,-171.847104600595
1580421718.24263,41.4129854276339,22.1866178377966,-161.226825360495
1580421718.24663,43.7933928435186,34.8210879682611,-151.949340047303
1580421718.25063,39.7039749752039,44.1596093690393,-143.343251697566
1580421718.25462,36.1028458075837,49.3476768139162,-134.676127260243
1580421718.25862,37.6897840848401,49.5918211642634,-125.03242542153
1580421718.2626,44.1596093690393,46.2958724345767,-115.083543144885
1580421718.2666,51.2397955291062,41.5350576028075,-105.500877393759
1580421718.2706,57.7706569008924,37.6897840848401,-97.6882581826505
1580421718.2746,63.3249408712904,35.6755931944761,-91.0963607232775
1580421718.2786,68.4519722285804,34.8210879682611,-86.5796902418554
1580421718.2826,72.4193179217214,32.8068970778972,-83.4058136873425
1580421718.2866,75.4711223010609,29.6330205233844,-81.025406271458
1580421718.29059,76.2035553521023,25.7877470054168,-78.6449988555732
1580421718.29459,73.2127870603495,21.9424734874494,-76.6308079652094
1580421718.29859,65.9494926375223,17.8530556191347,-75.3490501258868
1580421718.30259,52.8267338063629,12.9701686121919,-75.4711223010604
1580421718.30659,35.1873044937818,7.11070420386045,-76.3256275272754
1580421718.31059,15.1064316777295,2.59403372243833,-77.1190966659037
1580421718.31459,-4.18097199969475,-0.762951094834762,-77.5463492790111
1580421718.31859,-19.9893186846723,-3.63164721141379,-76.5697718776225
1580421718.32258,-30.8537422751201,-5.15754940108332,-74.4335088120852
1580421718.32658,-37.2625314717327,-6.25619897764545,-71.3817044327459
1580421718.33058,-38.9715419241627,-7.84313725490188,-67.5974670023652
1580421718.33458,-34.4548714427406,-8.6366063935302,-62.775616083009
1580421718.33858,-24.2008087281604,-9.55214770733187,-57.648584725719
1580421718.34256,-9.55214770733187,-10.7728694590676,-52.2163729304953
1580421718.34656,5.7068741893645,-10.4676890211338,-46.9672693980317
1580421718.35056,20.1724269474325,-9.91836423285258,-42.0843823910889
1580421718.35456,33.6614023041122,-8.75867856870377,-37.6287479972534
1580421718.35855,43.3051041428243,-6.56137941557949,-33.6003662165256
1580421718.36255,50.5683985656519,-4.24200808728165,-29.8771648737315
1580421718.36655,57.2213321126114,-1.37331197070262,-26.7032883192187
1580421718.37055,62.9587243457695,0.640878919661191,-24.322880903334
1580421718.37455,66.6819256885638,1.12916762035547,-22.4307621881437
1580421718.37855,68.5130083161671,0.579842832074519,-21.1490043488211
1580421718.38255,70.3440909437709,-0.335698481727377,-19.5620660715647
1580421718.38655,72.0531013962009,-0.946059357595232,-17.5478751812009
1580421718.39054,71.5037766079195,-1.80056458381023,-15.8999008163576
1580421718.39454,70.8934157320518,-2.7161058976119,-14.9843595025559
1580421718.39854,71.137560082399,-3.87579156176093,-14.6791790646218
1580421718.40254,70.4051270313576,-5.52376592660403,-14.7402151522087
1580421718.40654,69.0012970168614,-7.17174029144735,-15.1064316777295
1580421718.41054,67.4143587396052,-7.84313725490188,-15.8388647287709
1580421718.41454,64.85084306096,-8.02624551766235,-17.5478751812009
1580421718.41854,58.0758373388262,-7.96520943007545,-20.355535210193
1580421718.42255,49.042496375982,-8.39246204318306,-24.3839169909209
1580421718.42654,39.3377584496832,-8.94178683146401,-28.5954070344089
1580421718.43054,27.1305409323261,-9.00282291905091,-32.4406805523768
1580421718.43454,14.9843595025559,-9.61318379491877,-35.7976653696498
1580421718.43854,4.97444113832307,-10.8339055466545,-38.1780727855346
1580421718.44254,-4.11993591210808,-11.9935912108033,-39.9481193255513
1580421718.44654,-11.6884107728695,-12.9091325246052,-41.5960936903946
1580421718.45054,-17.3647669184404,-13.3363851377126,-43.2440680552377
1580421718.45454,-18.0361638818952,-13.0922407873654,-44.0985732814527
1580421718.45853,-13.9467460135804,-12.2377355611504,-43.5492484931717
1580421718.46253,-6.01205462729831,-10.7118333714809,-41.9623102159153
1580421718.46653,4.05889982452118,-9.79629205767901,-40.0701915007248
1580421718.47053,12.359807736324,-8.81971465629044,-37.9339284351875
1580421718.47453,20.5386434729533,-6.62241550316617,-35.3704127565425
1580421718.47853,29.8161287861446,-3.75371938658736,-32.0134279392691
1580421718.48253,36.8963149462118,-2.16678110933094,-28.5343709468223
1580421718.48653,40.3143358510717,-1.9226367589838,-26.2149996185244
1580421718.49053,40.7415884641794,-2.96025024795904,-25.482566567483
1580421718.49452,40.4974441138322,-4.18097199969475,-25.6046387426566
1580421718.49852,42.5726710917829,-4.8523689631495,-25.6046387426566
1580421718.5025,46.2958724345767,-4.97444113832307,-24.5670252536811
1580421718.5065,53.07087815671,-3.75371938658736,-22.613870450904
1580421718.5105,57.3434042877848,-2.47196154726475,-21.4541847867551
1580421718.5145,61.6769665064467,-2.53299763485165,-22.064545662623
1580421718.5185,63.8132295719847,-2.7771419851988,-24.0787365529868
1580421718.5225,65.2780956740676,-2.65506981002522,-26.7032883192187
1580421718.52649,65.1560234988938,-1.67849240863666,-29.6330205233844
1580421718.53049,60.2731364919505,-0.823987182421661,-33.1731136034182
1580421718.53449,53.9864194705119,-1.43434805828952,-37.201495384146
1580421718.53849,46.784161135271,-2.41092545967808,-41.2298771648739
1580421718.54249,39.7039749752039,-3.87579156176093,-45.8686198214696
1580421718.54649,33.4172579537651,-5.27962157625689,-50.6294346532388
1580421718.55049,29.8771648737315,-6.13412680247188,-55.4512855725948
1580421718.55449,29.3278400854504,-6.37827115281902,-59.7238117036698
1580421718.55849,30.9758144502937,-6.62241550316617,-63.6911573968109
1580421718.56248,33.3562218661782,-6.5003433279926,-67.7195391775388
1580421718.56648,35.6755931944761,-6.37827115281902,-71.8089570458533
1580421718.57048,37.6897840848401,-5.88998245212474,-75.6542305638209
1580421718.57448,38.5442893110551,-5.40169375143046,-79.4384679942016
1580421718.57848,38.4222171358815,-5.09651331349664,-83.7720302128632
1580421718.58246,38.1780727855344,-4.8523689631495,-87.861448081178
1580421718.58646,36.8352788586251,-4.36408026245522,-92.1950102998396
1580421718.59046,34.3938353551537,-4.66926070038903,-97.871366445411
1580421718.59445,32.9900053406575,-5.15754940108332,-104.097047379263
1580421718.59845,32.8068970778972,-5.46272983901736,-110.139620050355
1580421718.60245,33.9055466544594,-5.76791027695117,-116.182192721447
1580421718.60645,35.8587014572365,-6.07309071488521,-121.858548867018
1580421718.61045,38.3611810482946,-5.88998245212474,-126.985580224308
1580421718.61445,38.7273975738153,-5.82894636453807,-132.295719844358
1580421718.61845,35.8587014572365,-6.56137941557949,-138.033112077516
1580421718.62245,30.8537422751201,-7.7821011673152,-144.197756923781
1580421718.62644,25.6046387426566,-9.06385900663759,-150.545510032807
1580421718.63044,21.3321126115816,-9.91836423285258,-156.404974441138
1580421718.63444,19.0127412832837,-9.79629205767901,-161.532005798428
1580421718.63844,17.792019531548,-9.00282291905091,-166.231784542611
1580421718.64244,18.5244525825894,-8.51453421835663,-170.687418936446
1580421718.64644,20.6607156481268,-8.14831769283592,-174.898908979935
1580421718.65044,23.9566643778132,-7.84313725490188,-179.049362935836
1580421718.65444,28.8395513847561,-6.68345159075307,-182.711528191043
1580421718.65843,33.6614023041122,-4.8523689631495,-185.702296482795
1580421718.66241,38.7273975738153,-3.08232242313261,-188.387884336614
1580421718.66641,44.4037537193865,-1.49538414587619,-190.768291752499
1580421718.67041,50.1411459525443,-0.396734569314049,-191.927977416648
1580421718.67441,55.2071412222476,0.396734569314049,-192.721446555276
1580421718.67841,59.6627756160829,1.31227588311594,-193.331807431144
1580421718.68241,65.5222400244147,1.98367284657047,-193.881132219425
1580421718.68641,74.2504005493251,2.83817807278547,-194.064240482185
1580421718.6904,84.9927519645994,3.81475547417404,-194.247348744945
1580421718.6944,96.6506446936751,4.7913328755626,-194.369420920119
1580421718.6984,107.820248722057,5.95101853971164,-194.491493095293
1580421718.7024,117.952239261464,7.47692072938116,-194.003204394598
1580421718.7064,127.718013275349,9.00282291905091,-193.39284351873
1580421718.7104,136.324101625086,9.79629205767901,-193.20973525597
1580421718.7144,141.75631342031,10.1014724956131,-192.660410467689
1580421718.7184,144.441901274128,9.91836423285258,-191.378652628367
1580421718.7224,141.512169069963,8.81971465629044,-190.035858701457
1580421718.72639,134.248874647135,6.07309071488521,-190.035858701457
1580421718.73039,126.37521934844,1.8616006713969,-191.195544365606
1580421718.73439,119.783321889067,-2.28885328450451,-192.172121766995
1580421718.73839,113.740749217975,-5.34065766384379,-192.599374380102
1580421718.7424,110.872053101396,-8.39246204318306,-192.111085679408
1580421718.7464,105.256733043412,-12.6039520866711,-191.012436102846
1580421718.7504,99.3362325474936,-15.0453955901426,-188.937209124895
1580421718.7544,93.3546959639889,-16.7544060425726,-185.641260395209
1580421718.7584,85.0537880521861,-17.4258030060273,-181.368734264134
1580421718.76239,69.8558022430766,-16.8764782177461,-177.096208133059
1580421718.76639,50.8125429159991,-15.2895399404897,-173.739223315785
1580421718.77039,33.1120775158311,-13.9467460135804,-171.17570763714
1580421718.77439,18.4634164950025,-13.7636377508202,-168.245975432975
1580421718.77839,9.18593118181116,-13.0922407873654,-165.011062790875
1580421718.78239,-9.85732814526591,-12.0546272983902,-162.630655374991
1580421718.78639,-35.187304493782,-6.86655985351331,-164.278629739834
1580421718.79039,-50.5683985656519,0.51880674448762,-173.311970702678
1580421718.79438,-46.8451972228581,4.8523689631495,-187.411306935225
1580421718.79838,-26.2149996185244,-0.946059357595232,-188.998245212482
1580421718.80238,-7.84313725490188,-15.2895399404897,-170.931563286793
1580421718.80638,-6.19516289005878,-14.068818188754,-145.662623025864
1580421718.81038,-17.6699473563745,1.25123979552905,-119.356069275959
1580421718.81438,-31.2199588006408,5.6458381017776,-89.2042420080872
1580421718.81838,-34.8821240558482,0.946059357595232,-57.5265125505455
1580421718.82236,-32.5627527275503,-0.579842832074519,-29.9382009613182
1580421718.82636,-34.637979705501,1.37331197070262,-8.39246204318306
1580421718.83035,-46.5400167849241,2.53299763485165,7.35484855420759
1580421718.83435,-65.7053482871747,1.98367284657047,17.5478751812009
1580421718.83835,-85.9082932784008,2.65506981002522,23.1631952391851
1580421718.84235,-99.9465934233617,6.92759594110021,25.6656748302432
1580421718.84635,-104.463263904784,12.8480964370183,27.1305409323261
1580421718.85035,-104.463263904784,16.0219729915311,29.3888761730373
1580421718.85435,-108.613717860685,15.9609369039445,34.027618829633
1580421718.85835,-121.187151903563,13.0922407873654,41.9623102159151
1580421718.86234,-139.742122529946,9.4911116197452,53.2539864194705
1580421718.86634,-158.419165331502,6.01205462729831,67.7805752651257
1580421718.87034,-173.311970702678,3.32646677347975,84.8096437018389
1580421718.87434,-180.880445563439,2.04470893415737,103.059433890288
1580421718.87834,-178.133821622034,2.04470893415737,121.492332341497
1580421718.88234,-164.400701915007,2.96025024795904,139.497978179599
1580421718.88634,-141.878385595483,4.18097199969475,156.466010528725
1580421718.89034,-114.106965743496,4.42511635004189,172.091248950942
1580421718.89433,-85.9082932784008,3.81475547417404,186.434729533837
1580421718.89833,-60.8224612802319,3.14335851071951,199.86266880293
1580421718.90234,-40.8026245517663,2.10574502174404,212.497138933395
1580421718.90634,-24.9942778667887,0.091554131380235,224.460212100405
1580421718.91034,-11.810482948043,-2.7771419851988,235.629816128786
1580421718.91434,-1.55642023346309,-5.76791027695117,246.799420157168
1580421718.91834,6.5003433279926,-8.6366063935302,258.15213244831
1580421718.92234,12.5429159990845,-11.810482948043,269.810025177386
1580421718.92634,14.4960708018616,-14.1908903639276,281.89517051957
1580421718.93034,11.1390859845883,-15.3505760280766,293.736171511406
1580421718.93433,5.46272983901736,-14.923323414969,304.539559014267
1580421718.93833,-0.152590218966907,-14.0077821011673,314.36636911574
1580421718.94233,-3.75371938658736,-12.4208438239109,323.09452964065
1580421718.94633,-5.52376592660403,-10.7728694590676,330.968184939346
1580421718.95033,-6.37827115281902,-9.18593118181116,338.170443274586
1580421718.95433,-6.13412680247188,-7.35484855420759,344.823376821546
1580421718.95833,-5.46272983901736,-5.27962157625689,351.049057755398
1580421718.96232,-4.73029678797593,-3.69268329900046,356.786449988556
1580421718.96632,-3.93682764934761,-2.53299763485165,361.791409170672
1580421718.97032,-1.8616006713969,-0.762951094834762,366.735332265202
1580421718.97432,1.55642023346309,1.55642023346309,371.252002746624
1580421718.97832,4.97444113832307,4.24200808728165,375.707637140459
1580421718.9823,7.11070420386045,7.53795681696806,379.49187457084
1580421718.9863,7.29381246662092,11.0170138094147,382.72678721294
1580421718.9903,6.5003433279926,14.0077821011673,385.046158541238
1580421718.9943,5.40169375143046,17.2426947432668,386.816205081254
1580421718.99829,3.50957503624022,20.8438239108873,388.03692683299
1580421719.00229,0.274662394140478,23.4073395895323,388.830395971618
1580421719.00629,-4.05889982452118,24.0177004654001,389.440756847486
1580421719.01029,-11.0170138094147,23.7125200274661,389.623865110246
1580421719.01429,-21.2710765239947,22.9800869764247,388.769359884031
1580421719.01829,-35.3093766689556,22.064545662623,386.205844205386
1580421719.02229,-51.9722285801481,20.1724269474325,381.933318074312
1580421719.02629,-70.7103074692911,18.8296330205233,376.623178454261
1580421719.03028,-90.8522163729303,18.0361638818952,369.665064469368
1580421719.03428,-110.566872663462,17.3647669184404,361.547264820325
1580421719.03828,-129.97634851606,15.228503852903,352.025635156786
1580421719.04228,-148.348210879682,10.7118333714809,341.588464179446
1580421719.04628,-164.644846265355,5.40169375143046,330.663004501412
1580421719.05028,-178.133821622034,-0.457770656900948,319.981689173724
1580421719.05428,-188.143739986267,-6.80552376592664,309.544518196383
1580421719.05828,-194.430457007706,-12.7260242618447,299.595635919738
1580421719.06229,-196.81086442359,-17.8530556191347,290.135042343786
1580421719.06628,-194.430457007706,-22.1255817502097,281.284809643702
1580421719.07028,-189.181353475242,-24.9332417792018,273.105973907072
1580421719.07428,-182.040131227588,-26.0929274433508,265.354390783551
1580421719.07828,-172.823682001984,-25.482566567483,257.175555046922
1580421719.08228,-159.639887083238,-22.919050888838,247.959105821317
1580421719.08628,-142.12252994583,-21.4541847867551,237.46089875639
1580421719.09028,-123.567559319448,-19.8062104219118,224.704356450752
1580421719.09428,-105.378805218586,-19.4399938963911,210.11673151751
1580421719.09827,-91.4625772487982,-19.3789578088044,194.064240482185
1580421719.10227,-82.0019836728466,-17.792019531548,177.096208133059
1580421719.10627,-75.3490501258868,-14.6791790646218,159.945067521172
1580421719.11027,-70.0999465934233,-10.955977721828,142.122529945831
1580421719.11427,-65.6443121995881,-5.7068741893645,123.750667582208
1580421719.11827,-59.5407034409095,0.091554131380235,104.585336079957
1580421719.12227,-53.0708781567103,3.93682764934761,85.0537880521861
1580421719.12627,-46.9672693980317,6.80552376592664,65.4001678492409
1580421719.13026,-42.0843823910889,9.18593118181116,45.5024032959486
1580421719.13426,-37.9949645227741,11.3832303349354,24.8722056916151
1580421719.13826,-34.0886549172199,13.6415655756466,3.87579156176093
1580421719.14224,-30.0602731364918,15.4726482032502,-17.1206225680933
1580421719.14624,-26.1539635309375,16.5102616922254,-37.9339284351875
1580421719.15024,-22.1866178377966,16.3271534294652,-58.1368734264133
1580421719.15424,-16.4492256046387,15.3505760280766,-76.8139162279697
1580421719.15824,-7.29381246662092,13.3363851377126,-93.2326237888151
1580421719.16224,11.8715190356297,17.4258030060273,-106.843671320668
1580421719.16623,43.5492484931715,31.6472114137482,-116.12115663386
1580421719.17023,46.784161135271,21.6983291371023,-118.440527962158
1580421719.17423,27.8019378957808,23.2852674143587,-126.131074998093
1580421719.17823,12.7260242618447,30.8537422751201,-138.216220340276
1580421719.18223,41.5960936903944,11.6273746852826,-145.845731288624
1580421719.18623,106.294346532387,-26.1539635309375,-134.737163347829
1580421719.19023,152.803845273518,-48.9814602883955,-111.848630502785
1580421719.19423,159.517814908064,-42.5116350041963,-91.5236133363851
1580421719.19823,119.356069275959,-22.7359426260775,-82.2461280231937
1580421719.20222,53.1319142442967,-1.0681315327688,-85.9693293659875
1580421719.20622,-14.2519264515145,18.0971999694818,-98.0544747081713
1580421719.21022,-73.8231479362173,30.0602731364918,-114.045929655909
1580421719.21422,-112.581063553826,33.2341496910046,-134.004730296788
1580421719.21822,-122.224765392538,30.1213092240787,-151.583123521782
1580421719.22223,-103.303578240635,16.9985503929197,-154.634927901122
1580421719.22623,-65.2170595864804,0.152590218966907,-142.610818646525
1580421719.23023,-37.201495384146,-3.20439459830618,-128.816662851911
1580421719.23423,-32.3796444647899,9.61318379491877,-123.750667582208
1580421719.23822,-45.8075837338827,26.337071793698,-126.924544136721
1580421719.24222,-66.7429617761502,35.0041962310215,-133.882658121614
1580421719.24622,-85.8472571908139,36.0418097199968,-141.817349507897
1580421719.25022,-101.533531700618,28.7785152971694,-147.737850003815
1580421719.25422,-109.65133134966,18.646524757763,-152.742809185931
1580421719.25822,-104.280155642023,9.36903944457163,-156.404974441138
1580421719.26222,-89.9366750591287,5.34065766384379,-159.212634470131
1580421719.26621,-68.0247196154726,7.17174029144735,-161.776150148776
1580421719.27021,-37.201495384146,10.8339055466545,-161.409933623255
1580421719.27421,-7.72106507972831,12.1766994735638,-156.527046616312
1580421719.27821,13.2753490501259,14.2519264515145,-148.653391317617
1580421719.28221,25.482566567483,19.8062104219118,-139.192797741665
1580421719.28621,30.9758144502937,27.3746852826732,-130.342565041581
1580421719.29021,31.3420309758144,35.4924849317158,-123.628595407034
1580421719.29421,30.1823453116654,42.7557793545432,-118.440527962158
1580421719.2982,32.9900053406575,47.7607385366596,-114.168001831083
1580421719.30218,41.2298771648736,48.9204242008086,-109.4682230869
1580421719.30618,50.6294346532386,47.089341573205,-103.913939116503
1580421719.31018,58.0148012512395,44.7089341573203,-97.1389333943696
1580421719.31418,63.9963378347452,42.9999237048903,-89.8756389715418
1580421719.31818,70.0999465934237,41.4740215152208,-83.3447775997558
1580421719.32218,75.715266651408,39.4598306248567,-77.6684214541847
1580421719.32618,80.2929732204166,37.5677119096665,-72.6634622720683
1580421719.33018,83.2227054245823,35.3704127565422,-68.6350804913404
1580421719.33417,83.7109941252766,33.1120775158311,-65.7053482871747
1580421719.33817,80.842298008698,30.4264896620125,-63.9963378347447
1580421719.34217,75.2269779507137,25.6046387426566,-63.2639047837033
1580421719.34617,65.2170595864809,18.341344319829,-63.6911573968109
1580421719.35017,50.202182040131,11.2611581597619,-65.1560234988938
1580421719.35417,31.8303196765087,6.37827115281902,-66.9871061264973
1580421719.35817,12.7870603494316,2.89921416037237,-68.757152666514
1580421719.36217,-3.57061112382689,-0.946059357595232,-69.7337300679026
1580421719.36616,-14.6791790646218,-4.05889982452118,-69.3064774547952
1580421719.37016,-20.7217517357137,-6.37827115281902,-67.6585030899519
1580421719.37416,-22.3697261005568,-8.27038986800949,-64.9118791485466
1580421719.37816,-20.9658960860609,-9.30800335698473,-62.2262912947281
1580421719.38214,-16.5712977798123,-9.79629205767901,-59.2355230029755
1580421719.38614,-8.14831769283592,-9.79629205767901,-56.1837186236362
1580421719.39014,1.80056458381023,-9.06385900663759,-52.9488059815367
1580421719.39414,11.2611581597619,-8.75867856870377,-49.2256046387427
1580421719.39814,18.7685969329366,-9.18593118181116,-45.1972228580148
1580421719.40213,25.1773861295489,-10.2235446707866,-40.7415884641796
1580421719.40613,33.2951857785915,-10.650797283894,-35.8587014572367
1580421719.41013,43.9154650186922,-9.61318379491877,-31.1589227130539
1580421719.41413,51.1177233539329,-7.7821011673152,-27.6798657206073
1580421719.41813,52.7656977187762,-7.04966811627378,-25.6656748302432
1580421719.42213,51.4229037918667,-6.80552376592664,-25.2994583047225
1580421719.42613,47.94384679942,-6.74448767833974,-25.6656748302432
1580421719.43013,44.220645456626,-6.86655985351331,-25.7267109178301
1580421719.43412,40.2532997634851,-6.92759594110021,-25.8487830930037
1580421719.43812,35.6755931944761,-7.47692072938116,-26.1539635309375
1580421719.44212,32.6237888151368,-7.90417334248878,-26.6422522316318
1580421719.44612,31.7692835889218,-7.59899290455473,-26.7643244068054
1580421719.45012,33.3562218661782,-6.80552376592664,-26.4591439688716
1580421719.45412,34.882124055848,-6.07309071488521,-26.3981078812847
1580421719.45812,33.2341496910046,-6.5003433279926,-27.191577019913
1580421719.46213,29.2668039978637,-7.41588464179449,-28.7785152971694
1580421719.46613,24.1397726405737,-8.27038986800949,-30.9147783627068
1580421719.47012,18.2192721446554,-8.6366063935302,-33.1120775158313
1580421719.47412,13.519493400473,-9.36903944457163,-34.637979705501
1580421719.47812,11.4442664225223,-9.30800335698473,-35.6755931944763
1580421719.48212,12.4818799114976,-9.36903944457163,-36.2249179827575
1580421719.48612,14.9843595025559,-9.00282291905091,-35.8587014572367
1580421719.49012,19.2568856336309,-8.51453421835663,-34.4548714427406
1580421719.49412,25.1773861295489,-8.02624551766235,-32.3186083772032
1580421719.49812,31.7082475013351,-7.29381246662092,-29.6330205233844
1580421719.50212,34.0886549172196,-6.37827115281902,-27.7409018081939
1580421719.50611,32.8679331654839,-6.43930724040592,-27.191577019913
1580421719.51011,31.4030670634011,-6.56137941557949,-27.3136491950866
1580421719.51411,30.3044174868389,-7.23277637903402,-28.2902265964751
1580421719.51811,31.3420309758144,-7.47692072938116,-28.6564431219958
1580421719.52211,34.8210879682611,-7.35484855420759,-28.5343709468223
1580421719.52611,39.5819028000303,-7.04966811627378,-28.2291905088882
1580421719.53011,44.6478980697336,-6.86655985351331,-27.4357213702601
1580421719.5341,48.7373159380481,-6.74448767833974,-26.5201800564582
1580421719.5381,53.2539864194705,-6.07309071488521,-25.7877470054168
1580421719.54208,58.3810177767605,-4.97444113832307,-25.6656748302432
1580421719.54608,58.747234302281,-4.24200808728165,-26.5201800564582
1580421719.55008,57.8927290760662,-4.05889982452118,-28.046082246128
1580421719.55408,56.0006103608757,-4.18097199969475,-30.1823453116654
1580421719.55808,53.3760585946438,-4.7913328755626,-32.3796444647899
1580421719.56208,53.5591668574043,-4.97444113832307,-34.1496910048068
1580421719.56608,53.1319142442967,-4.66926070038903,-36.1638818951706
1580421719.57008,52.2774090180819,-5.03547722590974,-39.0936140993363
1580421719.57407,52.9488059815362,-5.21858548867021,-42.6337071793698
1580421719.57807,54.1084916456853,-5.03547722590974,-46.1738002594034
1580421719.58207,54.4136720836191,-4.91340505073617,-49.5307850766767
1580421719.58607,54.3526359960324,-4.60822461280236,-52.7656977187762
1580421719.59007,52.7046616311891,-4.54718852521546,-55.6954299229419
1580421719.59407,48.8593881132219,-5.03547722590974,-58.9913786526283
1580421719.59807,44.4647898069732,-5.82894636453807,-62.775616083009
1580421719.60206,40.3753719386586,-6.56137941557949,-66.9260700389104
1580421719.60606,38.8494697489889,-6.92759594110021,-70.8934157320516
1580421719.61006,38.6663614862287,-7.04966811627378,-75.1049057755397
1580421719.61406,38.4222171358815,-7.11070420386045,-79.6215762569618
1580421719.61806,37.6897840848401,-7.53795681696806,-84.3823910887311
1580421719.62207,35.2483405813687,-8.02624551766235,-89.0821698329137
1580421719.62607,30.7927061875332,-8.45349813076973,-94.5143816281377
1580421719.63007,26.7032883192187,-9.00282291905091,-99.9465934233617
1580421719.63407,21.9424734874494,-9.55214770733187,-105.500877393759
1580421719.63806,18.5854886701761,-9.73525597009234,-110.99412527657
1580421719.64206,15.777828641184,-9.73525597009234,-116.609445334554
1580421719.64606,14.4960708018616,-10.4066529335469,-122.163729304952
1580421719.65006,13.9467460135804,-11.0170138094147,-127.229724574655
1580421719.65406,14.4960708018616,-11.0170138094147,-131.624322880903
1580421719.65806,13.7026016632333,-10.2235446707866,-135.896849011978
1580421719.66206,12.5429159990845,-9.91836423285258,-140.901808194095
1580421719.66606,13.519493400473,-9.97940032043948,-145.967803463798
1580421719.67005,16.0219729915311,-9.97940032043948,-150.606546120394
1580421719.67405,19.7451743343252,-9.73525597009234,-155.001144426642
1580421719.67805,23.7125200274661,-9.06385900663759,-159.02952620737
1580421719.68205,27.0084687571525,-8.02624551766235,-163.179980163272
1580421719.68605,29.8771648737315,-7.29381246662092,-167.269398031586
1580421719.69005,32.8068970778972,-6.98863202868688,-171.663996337835
1580421719.69405,35.6755931944761,-6.74448767833974,-176.30273899443
1580421719.69805,39.3987945372701,-6.56137941557949,-180.331120775158
1580421719.70203,43.6102845807582,-6.25619897764545,-184.054322117952
1580421719.70602,48.3100633249405,-5.95101853971164,-187.716487373159
1580421719.71002,53.8643472953381,-5.76791027695117,-191.31761654078
1580421719.71402,60.0289921416033,-5.34065766384379,-194.308384832532
1580421719.71802,66.1326009002823,-4.54718852521546,-196.871900511177
1580421719.72202,71.9310292210271,-3.99786373693451,-199.191271839475
1580421719.72602,78.7060349431604,-4.24200808728165,-201.449607080186
1580421719.73002,86.7627985046161,-5.27962157625689,-203.158617532616
1580421719.73402,95.1247425040056,-6.31723506523235,-204.074158846418
1580421719.73801,100.74006256199,-5.88998245212474,-204.135194934005
1580421719.74201,103.547722590982,-4.60822461280236,-203.952086671244
1580421719.74601,104.890516517891,-3.63164721141379,-204.196231021592
1580421719.75001,106.416418707561,-3.81475547417404,-204.501411459525
1580421719.75401,109.529259174487,-5.09651331349664,-203.830014496071
1580421719.75801,109.28511482414,-6.19516289005878,-201.998931868467
1580421719.76201,104.036011291676,-7.53795681696806,-200.350957503624
1580421719.76601,96.9558251316093,-9.18593118181116,-199.191271839475
1580421719.77,91.7067215991456,-11.7494468604561,-198.458838788434
1580421719.774,88.0445563439384,-14.6791790646218,-198.33676661326
1580421719.778,86.6407263294423,-17.0595864805066,-197.726405737392
1580421719.78201,83.894102388037,-19.6231021591516,-195.834287022202
1580421719.78601,80.842298008698,-21.759365224689,-192.538338292515
1580421719.79001,78.6449988555737,-23.7125200274661,-187.655451285573
1580421719.79401,73.3958953231099,-24.8111696040282,-181.795986877241
1580421719.79801,61.61593041886,-23.773556115053,-175.692378118563
1580421719.80201,44.0985732814524,-21.3321126115816,-169.893949797818
1580421719.80601,26.4591439688716,-19.3789578088044,-162.813763637751
1580421719.81,15.2895399404897,-17.486839093614,-153.841458762493
1580421719.814,11.2001220721752,-16.632333867399,-143.83154039826
1580421719.818,12.2987716487373,-16.4492256046387,-134.126802471962
1580421719.822,5.76791027695117,-17.0595864805066,-127.901121538109
1580421719.826,-9.91836423285258,-16.2661173418783,-130.098420691234
1580421719.83,-22.919050888838,-14.8622873273823,-141.512169069963
1580421719.834,-23.0411230640116,-11.5663385976959,-155.61150530251
1580421719.83799,-11.810482948043,-8.33142595559616,-164.15655756466
1580421719.84199,-7.17174029144735,-2.47196154726475,-167.635614557107
1580421719.84599,-13.0922407873654,6.74448767833974,-167.635614557107
1580421719.84999,-21.8814373998625,8.94178683146401,-157.381551842527
1580421719.85399,-29.0836957351032,0.335698481727377,-128.633554589151
1580421719.85799,-31.5251392385749,-6.62241550316617,-90.7911802853437
1580421719.86197,-33.1731136034182,-7.47692072938116,-56.9771877622645
1580421719.86597,-37.6287479972534,-7.90417334248878,-29.755092698558
1580421719.86997,-43.9154650186924,-9.55214770733187,-8.14831769283592
1580421719.87397,-51.8501564049745,-10.1625085831997,8.20935378042259
1580421719.87796,-64.1794460975052,-8.20935378042259,19.3179217212175
1580421719.88196,-77.5463492790111,-1.9226367589838,26.0318913557639
1580421719.88596,-82.8564888990616,5.6458381017776,30.9147783627068
1580421719.88996,-82.6733806363011,11.6884107728695,34.1496910048065
1580421719.89396,-81.0864423590447,15.228503852903,36.3469901579308
1580421719.89796,-81.9409475852597,16.3881895170518,39.2156862745096
1580421719.90196,-91.1573968108644,15.5336842908368,44.5258258945601
1580421719.90595,-107.942320897231,14.373998626688,52.5825894560157
1580421719.90995,-128.328374151217,14.4960708018616,62.7756160830095
1580421719.91395,-146.944380865187,15.2895399404897,75.1049057755399
1580421719.91795,-158.602273594263,15.2895399404897,90.3028915846494
1580421719.92195,-160.128175783932,14.8012512397954,108.796826123445
1580421719.92595,-150.057221332112,14.6791790646218,129.610131990539
1580421719.92995,-129.732204165713,15.1674677653161,151.155870908675
1580421719.93395,-104.15808346685,16.5102616922254,171.541924162661
1580421719.93794,-78.4008545052261,18.5244525825894,188.998245212482
1580421719.94195,-55.9395742732891,20.2334630350194,202.853437094682
1580421719.94595,-37.0183871213856,21.6983291371023,213.290608072023
1580421719.94995,-20.7217517357137,21.759365224689,222.323949034867
1580421719.95395,-7.53795681696806,20.1724269474325,231.296253910125
1580421719.95795,-0.152590218966907,17.9140917067216,241.733424887465
1580421719.96195,1.67849240863666,15.5336842908368,253.086137178607
1580421719.96595,0.457770656900948,13.3974212252995,264.927138170443
1580421719.96995,-2.41092545967808,11.3832303349354,276.76813916228
1580421719.97394,-5.7068741893645,9.4300755321583,287.937743190661
1580421719.97794,-8.69764248111687,8.5755703059433,298.435950255589
1580421719.98194,-10.1014724956131,8.39246204318306,308.140688181888
1580421719.98594,-8.6366063935302,8.33142595559616,316.868848706798
1580421719.98994,-4.7913328755626,8.33142595559616,324.80354009308
1580421719.99394,-0.640878919661191,8.69764248111687,332.310978866255
1580421719.99794,3.08232242313261,8.75867856870377,339.024948500801
1580421720.00194,6.62241550316617,8.88075074387734,345.067521171893
1580421720.00593,8.75867856870377,9.73525597009234,350.865949492638
1580421720.00993,9.06385900663759,10.7118333714809,356.176089112688
1580421720.01393,6.86655985351331,11.505302510109,361.120012207218
1580421720.01793,3.50957503624022,12.4818799114976,365.941863126573
1580421720.02191,1.19020370794237,13.8246738384069,370.885786221103
1580421720.02591,-1.19020370794237,15.6557564660104,375.524528877699
1580421720.02991,-4.48615243762879,16.632333867399,380.041199359121
1580421720.03391,-8.45349813076973,16.8764782177461,384.008545052262
1580421720.03791,-12.5429159990845,17.6699473563745,387.304493781949
1580421720.0419,-16.2050812542916,18.8296330205233,390.173189898528
1580421720.0459,-19.3789578088044,20.4165712977797,392.858777752346
1580421720.0499,-20.9658960860609,21.3931486991683,395.605401693751
1580421720.0539,-21.0269321736475,21.3931486991683,398.352025635157
1580421720.0579,-21.5152208743418,21.5152208743418,400.732433051041
1580421720.0619,-23.468375677119,22.613870450904,402.258335240711
1580421720.0659,-27.5577935454337,23.6514839398794,402.136263065538
1580421720.0699,-34.637979705501,24.628061341268,400.244144350347
1580421720.07389,-45.1361867704281,24.9942778667887,396.7650873579
1580421720.07789,-60.0900282291905,24.9332417792018,392.431525139239
1580421720.08189,-78.5229266803997,24.0177004654001,387.121385519188
1580421720.08589,-99.3362325474939,22.4307621881437,380.956740672923
1580421720.08989,-121.309224078737,20.7827878233004,374.059662775616
1580421720.09389,-142.915999084459,18.2803082322423,366.186007476921
1580421720.09789,-162.630655374991,15.2895399404897,357.27473868925
1580421720.1019,-178.988326848249,11.6884107728695,347.692072938125
1580421720.1059,-190.218966964218,7.47692072938116,337.621118486305
1580421720.10989,-195.10185397116,2.83817807278547,327.244983596552
1580421720.11389,-191.866941329061,-1.8616006713969,316.563668268864
1580421720.11789,-181.918059052415,-6.56137941557949,306.00442511635
1580421720.12189,-167.452506294347,-10.650797283894,296.055542839704
1580421720.12589,-149.691004806592,-14.1298542763409,286.839093614099
1580421720.12989,-130.586709391928,-15.9609369039445,278.171969176776
1580421720.13389,-112.031738765545,-16.2661173418783,270.054169527733
1580421720.13789,-96.6506446936753,-14.5571068894483,260.959792477302
1580421720.14189,-84.9927519645989,-9.85732814526591,250.461585412375
1580421720.14588,-77.9736018921187,-4.54718852521546,237.888151369497
1580421720.14988,-76.3866636148623,-0.091554131380235,223.117418173495
1580421720.15388,-79.5605401693751,4.54718852521546,206.332494087129
1580421720.15788,-85.2368963149461,8.5755703059433,188.143739986267
1580421720.16188,-90.4859998474096,11.6884107728695,168.184939345388
1580421720.16588,-91.2184328984511,13.3363851377126,146.578164339666
1580421720.16988,-82.734416723888,13.0922407873654,123.628595407034
1580421720.17387,-64.7898069733731,11.2001220721752,98.9700160219732
1580421720.17787,-42.2064545662624,9.24696726939806,73.3348592355233
1580421720.18185,-21.4541847867551,8.02624551766235,46.7231250476843
1580421720.18585,-6.5003433279926,7.7821011673152,19.6841382467383
1580421720.18985,2.10574502174404,7.96520943007545,-7.41588464179449
1580421720.19385,6.74448767833974,8.6366063935302,-34.1496910048068
1580421720.19785,9.00282291905091,9.4911116197452,-59.8458838788433
1580421720.20185,12.1156633859769,12.2377355611504,-83.4058136873425
1580421720.20585,29.0226596475165,34.8210879682611,-104.585336079957
1580421720.20984,44.5868619821467,45.8075837338824,-115.693904020752
1580421720.21384,30.7927061875332,37.5066758220796,-126.009002822919
1580421720.21784,6.13412680247188,46.6010528725108,-142.366674296178
1580421720.22184,25.7267109178301,47.8217746242465,-155.367360952163
1580421720.22584,113.740749217975,9.67421988250544,-149.324788281071
1580421720.22984,204.562447547112,-44.6478980697339,-128.328374151217
1580421720.23384,239.780270084688,-73.5179674982833,-99.8855573357748
1580421720.23784,185.214007782101,-66.4988174258031,-78.7670710307468
1580421720.24183,79.8046845197223,-38.4222171358817,-82.3071641107804
1580421720.24583,-15.9609369039445,-1.61745632104976,-103.608758678569
1580421720.24983,-99.7024490730146,28.4733348592354,-131.563286793317
1580421720.25383,-160.494392309453,42.5726710917829,-165.68245975433
1580421720.25783,-172.091248950942,33.1120775158311,-198.947127489128
1580421720.26184,-142.244602121004,4.91340505073617,-209.018081940947
1580421720.26584,-89.5094224460211,-25.0553139543754,-192.599374380102
1580421720.26984,-53.6202029449912,-31.1589227130539,-169.649805447471
1580421720.27384,-49.4087129015031,-12.1156633859769,-157.381551842527
1580421720.27783,-60.3952086671245,14.7402151522087,-157.625696192874
1580421720.28183,-81.025406271458,32.3796444647896,-163.851377126726
1580421720.28583,-106.172274357214,38.1170366979475,-170.504310673686
1580421720.28983,-127.718013275349,36.1638818951703,-172.945754177157
1580421720.29383,-144.563973449302,29.3888761730373,-171.602960250248
1580421720.29783,-151.216906996262,22.613870450904,-170.504310673686
1580421720.30183,-142.061493858244,17.1816586556802,-170.077058060578
1580421720.30583,-122.468909742885,13.7026016632333,-171.17570763714
1580421720.30983,-90.9742885481039,13.1532768749523,-171.908140688182
1580421720.31382,-55.2071412222476,11.6273746852826,-169.405661097124
1580421720.31782,-27.6188296330204,7.96520943007545,-163.912413214313
1580421720.32182,-7.53795681696806,6.62241550316617,-157.869840543221
1580421720.32582,8.27038986800949,9.79629205767901,-152.681773098344
1580421720.32982,19.1348134584573,16.083009079118,-148.95857175555
1580421720.33382,22.919050888838,23.0411230640116,-145.54055085069
1580421720.33782,19.1348134584573,30.3044174868389,-142.061493858244
1580421720.3418,13.7636377508202,36.5911345082779,-139.131761654078
1580421720.34579,15.8388647287709,38.8494697489889,-135.896849011978
1580421720.34979,27.7409018081939,34.5159075303272,-130.281528953994
1580421720.35379,44.7699702449072,27.2526131074997,-121.24818799115
1580421720.35779,61.6769665064467,23.9566643778132,-109.712367437247
1580421720.36179,73.2127870603495,24.7501335164416,-98.0544747081713
1580421720.36579,80.9643701838713,26.0929274433508,-88.2887006942854
1580421720.36979,88.4107728694594,26.8863965819789,-80.5981536583504
1580421720.37379,94.7585259784851,25.9708552681773,-74.5555809872587
1580421720.37778,98.6037994964522,23.1631952391851,-69.8558022430761
1580421720.38178,100.373846036469,17.9751277943083,-65.8274204623483
1580421720.38578,98.725871671626,11.9325551232166,-62.2873273823147
1580421720.38978,91.6456855115589,7.17174029144735,-59.1744869153888
1580421720.39378,79.0112153810942,4.11993591210808,-57.0992599374381
1580421720.39778,64.1184100099185,0.762951094834762,-56.7330434119174
1580421720.40178,48.6152437628748,-2.7771419851988,-58.2589456015869
1580421720.40578,32.6237888151368,-5.76791027695117,-61.4938582436866
1580421720.40978,14.6791790646218,-8.81971465629044,-65.8884565499352
1580421720.41377,-2.22781719691761,-12.4818799114976,-69.7337300679026
1580421720.41777,-14.1298542763409,-15.5947203784237,-71.9920653086137
1580421720.42175,-20.7827878233004,-16.8154421301595,-71.6868848706797
1580421720.42575,-22.7969787136644,-16.2661173418783,-69.9778744182497
1580421720.42975,-22.7359426260775,-15.5947203784237,-67.5974670023652
1580421720.43375,-21.3321126115816,-15.6557564660104,-65.339131761654
1580421720.43775,-18.2803082322423,-16.4492256046387,-62.6535439078355
1580421720.44175,-16.6933699549859,-16.2050812542916,-59.2965590905624
1580421720.44574,-14.9843595025559,-14.923323414969,-55.9395742732891
1580421720.44974,-11.2611581597619,-12.7260242618447,-52.7656977187762
1580421720.45374,-6.31723506523235,-10.8949416342411,-49.7138933394369
1580421720.45774,-1.0681315327688,-9.24696726939806,-46.3569085221638
1580421720.46174,4.24200808728165,-7.53795681696806,-42.5726710917831
1580421720.46574,9.85732814526591,-6.01205462729831,-38.6663614862289
1580421720.46974,15.8999008163576,-4.42511635004189,-35.2483405813689
1580421720.47374,21.9424734874494,-3.87579156176093,-32.1355001144427
1580421720.47774,27.8629739833675,-4.05889982452118,-28.8395513847561
1580421720.48173,35.3093766689553,-3.93682764934761,-25.4215304798961
1580421720.48573,42.8778515297167,-3.14335851071951,-22.4307621881437
1580421720.48973,47.8828107118331,-2.04470893415737,-19.9282825970854
1580421720.49373,50.202182040131,-1.19020370794237,-18.0971999694818
1580421720.49773,50.9956511787591,-0.213626306553806,-16.5712977798123
1580421720.50174,50.9956511787591,0.70191500724809,-15.228503852903
1580421720.50574,50.3242542153048,0.946059357595232,-14.068818188754
1580421720.50974,47.8828107118331,0.457770656900948,-13.7636377508202
1580421720.51373,43.6102845807582,-0.51880674448762,-14.4960708018616
1580421720.51773,38.7884336614022,-1.55642023346309,-15.7167925535973
1580421720.52173,35.0652323186082,-2.04470893415737,-16.7544060425726
1580421720.52573,31.4030670634011,-1.98367284657047,-17.8530556191347
1580421720.52973,27.0084687571525,-2.65506981002522,-18.7075608453497
1580421720.53373,22.7969787136644,-3.14335851071951,-19.3179217212175
1580421720.53773,19.0127412832837,-3.08232242313261,-19.8672465094987
1580421720.54173,15.228503852903,-3.14335851071951,-20.1724269474325
1580421720.54572,13.0922407873654,-3.38750286106665,-20.4165712977797
1580421720.54972,12.9091325246052,-2.89921416037237,-19.9282825970854
1580421720.55372,14.1298542763409,-2.47196154726475,-18.9517051956968
1580421720.55772,15.5947203784237,-2.7161058976119,-17.792019531548
1580421720.56172,18.1582360570687,-3.02128633554594,-16.2050812542916
1580421720.56572,21.8204013122759,-2.96025024795904,-14.4960708018616
1580421720.56972,24.8111696040282,-3.69268329900046,-13.3974212252995
1580421720.57372,27.6188296330204,-4.66926070038903,-12.6039520866711
1580421720.57771,30.9147783627068,-5.15754940108332,-11.8715190356297
1580421720.58169,34.5159075303272,-5.34065766384379,-10.8949416342411
1580421720.58569,38.1170366979475,-5.34065766384379,-10.1625085831997
1580421720.58969,41.0467689021132,-5.34065766384379,-10.3456168459602
1580421720.59369,44.6478980697336,-6.01205462729831,-11.2611581597619
1580421720.59769,48.0048828870067,-6.92759594110021,-12.5429159990845
1580421720.60169,48.9204242008086,-6.80552376592664,-14.8012512397954
1580421720.60569,48.7373159380481,-6.62241550316617,-17.792019531548
1580421720.60969,47.7607385366596,-6.13412680247188,-21.759365224689
1580421720.61368,45.1972228580146,-6.01205462729831,-27.0695048447394
1580421720.61768,41.9623102159151,-6.86655985351331,-33.2341496910049
1580421720.62168,38.6053253986418,-7.53795681696806,-39.5819028000305
1580421720.62568,34.7600518806744,-7.7821011673152,-45.6855115587091
1580421720.62968,30.0602731364918,-8.33142595559616,-51.4229037918669
1580421720.63368,25.9098191805904,-8.14831769283592,-56.8551155870909
1580421720.63768,22.0035095750361,-7.84313725490188,-62.2873273823147
1580421720.64168,19.5620660715647,-7.84313725490188,-67.1091783016709
1580421720.64567,18.4023804074159,-7.41588464179449,-71.7479209582666
1580421720.64967,17.5478751812009,-7.23277637903402,-76.5697718776225
1580421720.65367,17.9751277943083,-7.41588464179449,-81.2085145342182
1580421720.65767,19.0737773708704,-7.11070420386045,-85.4810406652932
1580421720.66168,20.5996795605402,-6.80552376592664,-89.3873502708475
1580421720.66568,21.3931486991683,-6.56137941557949,-93.2936598764018
1580421720.66968,21.1490043488211,-6.07309071488521,-97.1999694819563
1580421720.67368,20.4165712977797,-5.6458381017776,-101.228351262684
1580421720.67768,19.195849546044,-5.03547722590974,-105.195696955825
1580421720.68168,16.7544060425726,-4.42511635004189,-109.4682230869
1580421720.68567,14.373998626688,-4.54718852521546,-114.22903791867
1580421720.68967,11.6884107728695,-4.60822461280236,-119.172961013199
1580421720.69367,8.88075074387734,-4.54718852521546,-123.994811932555
1580421720.69767,7.04966811627378,-4.60822461280236,-128.633554589151
1580421720.70167,5.46272983901736,-4.11993591210808,-132.845044632639
1580421720.70567,4.11993591210808,-3.38750286106665,-136.99549858854
1580421720.70967,3.14335851071951,-2.7771419851988,-141.451132982376
1580421720.71367,3.20439459830618,-2.59403372243833,-145.967803463798
1580421720.71766,4.48615243762879,-2.16678110933094,-150.057221332112
1580421720.72166,6.92759594110021,-1.31227588311594,-153.292133974212
1580421720.72566,10.3456168459602,-0.946059357595232,-156.588082703899
1580421720.72966,15.7167925535973,-0.640878919661191,-159.578850995651
1580421720.73366,22.0035095750361,0.0305180437933359,-162.203402761883
1580421720.73766,28.2291905088882,1.67849240863666,-164.400701915007
1580421720.74164,34.2107270923932,3.75371938658736,-166.781109330892
1580421720.74564,39.5819028000303,5.09651331349664,-169.527733272297
1580421720.74963,45.2582589456015,5.52376592660403,-172.70160982681
1580421720.75363,50.2632181277177,5.76791027695117,-175.326161593042
1580421720.75763,53.7422751201648,6.07309071488521,-177.035172045472
1580421720.76163,55.5123216601814,6.5003433279926,-178.622110322728
1580421720.76563,55.329213397421,6.86655985351331,-180.697337300679
1580421720.76963,56.9771877622643,6.43930724040592,-182.833600366217
1580421720.77363,60.3341725795376,5.82894636453807,-184.969863431754
1580421720.77763,65.0339513237204,5.95101853971164,-186.55680170901
1580421720.78163,69.0012970168614,7.04966811627378,-188.143739986267
1580421720.78562,71.3817044327461,8.33142595559616,-189.852750438697
1580421720.78962,73.3348592355233,9.67421988250544,-191.50072480354
1580421720.79362,76.1425192645152,10.650797283894,-192.843518730449
1580421720.79762,80.3540093080037,11.7494468604561,-193.331807431144
1580421720.80162,85.4810406652937,12.664988174258,-192.965590905623
1580421720.80562,89.8146028839551,13.6415655756466,-191.6838330663
1580421720.80962,95.1247425040056,15.1674677653161,-190.035858701457
1580421720.81361,100.251773861296,16.2661173418783,-188.26581216144
1580421720.81761,107.942320897231,16.2050812542916,-186.251621271077
1580421720.82162,117.280842298009,15.1064316777295,-183.566033417258
1580421720.82562,125.032425421531,14.1298542763409,-180.392156862745
1580421720.82962,131.013962005035,13.0922407873654,-176.729991607538
1580421720.83362,136.018921187152,11.5663385976959,-172.457465476463
1580421720.83762,138.948653391318,9.73525597009234,-168.429083695735
1580421720.84162,138.643472953383,7.90417334248878,-165.072098878462
1580421720.84562,137.788967727169,4.24200808728165,-162.08133058671
1580421720.84962,135.164415960937,0.152590218966907,-158.724345769436
1580421720.85361,128.816662851911,-3.69268329900046,-155.61150530251
1580421720.85761,119.600213626306,-5.34065766384379,-152.559700923171
1580421720.86161,108.186465247578,-5.15754940108332,-149.507896543832
1580421720.86561,95.0026703288322,-3.32646677347975,-146.272983901732
1580421720.86961,81.1474784466318,-0.579842832074519,-143.221179522393
1580421720.87361,69.7337300679028,1.9226367589838,-140.23041123064
1580421720.87761,64.2404821850923,2.34988937209118,-136.751354238193
1580421720.88161,58.747234302281,-1.19020370794237,-132.845044632639
1580421720.8856,50.0190737773705,-4.36408026245522,-129.854276340887
1580421720.8896,40.8636606393529,-4.91340505073617,-127.595941100175
1580421720.8936,28.5343709468223,-4.7913328755626,-127.046616311894
1580421720.8976,14.2519264515145,-2.47196154726475,-130.464637216754
1580421720.90158,4.97444113832307,2.22781719691761,-138.460364690623
1580421720.90558,5.15754940108332,3.81475547417404,-145.296406500343
1580421720.90958,7.47692072938116,-2.96025024795904,-144.563973449302
1580421720.91358,3.02128633554594,-8.39246204318306,-137.361715114061
1580421720.91757,-5.6458381017776,-5.95101853971164,-124.238956282902
1580421720.92157,-15.8999008163576,-2.7771419851988,-103.791866941329
1580421720.92557,-21.4541847867551,-6.13412680247188,-75.898374914168
1580421720.92957,-19.8062104219118,-9.67421988250544,-46.6620889600977
1580421720.93357,-15.777828641184,-10.2235446707866,-21.2710765239947
1580421720.93757,-13.9467460135804,-10.650797283894,-0.51880674448762
1580421720.94157,-16.1440451667047,-12.7870603494316,16.6933699549859
1580421720.94557,-22.7359426260775,-15.4116121156633,30.8537422751201
1580421720.94957,-31.4641031509882,-15.3505760280766,41.7792019531546
1580421720.95356,-40.1312275883117,-10.955977721828,49.7749294270234
1580421720.95756,-47.7607385366598,-3.75371938658736,55.3902494850076
1580421720.96156,-54.7188525215533,3.02128633554594,59.6627756160829
1580421720.96556,-62.2873273823147,7.66002899214163,63.8132295719847
1580421720.96956,-71.6868848706797,9.79629205767901,69.1233691920352
1580421720.97356,-83.9551384756237,10.2845807583733,76.5087357900361
1580421720.97756,-98.1765468833448,10.1014724956131,85.7862211032275
1580421720.98157,-113.435568780041,9.97940032043948,97.0778973067827
1580421720.98557,-127.351796749828,9.4911116197452,109.529259174487
1580421720.98956,-138.399328603037,9.06385900663759,123.079270618754
1580421720.99356,-145.17433432517,9.06385900663759,137.361715114061
1580421720.99756,-146.700236514839,9.79629205767901,151.522087434195
1580421721.00156,-141.451132982376,11.0780498970016,165.072098878462
1580421721.00556,-129.060807202258,11.9325551232166,177.8286411841
1580421721.00956,-111.482413977264,12.4818799114976,190.035858701458
1580421721.01356,-91.7677576867322,12.1766994735638,201.510643167773
1580421721.01756,-72.175173571374,11.3221942473488,212.680247196155
1580421721.02155,-53.7422751201648,10.5287251087204,223.727779049363
1580421721.02555,-36.7132066834517,10.1014724956131,234.958419165332
1580421721.02955,-21.3931486991683,10.5897611963073,246.066987106126
1580421721.03355,-9.06385900663759,10.8339055466545,256.687266346227
1580421721.03755,-0.946059357595232,11.0780498970016,266.819256885633
1580421721.04155,2.83817807278547,11.2611581597619,276.646066987106
1580421721.04555,2.28885328450451,10.8339055466545,286.106660563058
1580421721.04955,-2.34988937209118,10.7118333714809,294.834821087968
1580421721.05354,-10.3456168459602,10.650797283894,302.403295948729
1580421721.05754,-20.4165712977797,10.7728694590676,308.567940794995
1580421721.06152,-30.7927061875332,10.8949416342411,313.633936064698
1580421721.06552,-40.8636606393532,10.955977721828,318.150606546121
1580421721.06952,-49.8359655146105,11.2001220721752,322.606240939956
1580421721.07352,-58.0148012512398,10.4676890211338,327.122911421378
1580421721.07752,-64.9118791485466,9.97940032043948,331.761654077974
1580421721.08152,-71.320668345159,9.36903944457163,336.76661326009
1580421721.08552,-75.7763027389944,8.51453421835663,342.015716792554
1580421721.08951,-77.1190966659037,7.90417334248878,347.753109025712
1580421721.09351,-75.2269779507133,8.08728160524902,353.67360952163
1580421721.09751,-71.7479209582666,8.02624551766235,359.655146105135
1580421721.10151,-67.1702143892576,7.41588464179449,365.453574425879
1580421721.10551,-61.7380025940338,7.72106507972831,371.007858396277
1580421721.10951,-58.3810177767605,8.45349813076973,375.829709315633
1580421721.11351,-56.6720073243305,8.51453421835663,379.980163271534
1580421721.11751,-55.6343938353552,7.84313725490188,383.459220263981
1580421721.1215,-54.2305638208591,7.23277637903402,386.449988555733
1580421721.1255,-52.2774090180819,5.95101853971164,388.769359884031
1580421721.1295,-49.8970016021974,3.69268329900046,390.234225986114
1580421721.1335,-47.1503776607919,0.335698481727377,390.844586861982
1580421721.1375,-45.3192950331884,-2.83817807278547,390.234225986114
1580421721.14151,-45.6855115587091,-5.21858548867021,388.647287708858
1580421721.14551,-48.7373159380484,-6.86655985351331,385.900663767452
1580421721.14951,-54.2305638208591,-7.17174029144735,382.360570687419
1580421721.15351,-61.3107499809262,-6.56137941557949,377.965972381171
1580421721.15751,-69.062333104448,-6.13412680247188,373.083085374228
1580421721.1615,-76.752880140383,-4.97444113832307,367.711909666591
1580421721.1655,-83.4668497749294,-3.99786373693451,361.669336995499
1580421721.1695,-88.1666285191118,-3.63164721141379,355.56572823682
1580421721.1735,-89.2042420080872,-3.87579156176093,349.034866865034
1580421721.1775,-86.152437628748,-4.05889982452118,342.259861142901
1580421721.1815,-78.8281071183337,-4.36408026245522,334.996566720074
1580421721.1855,-70.466163118944,-5.40169375143046,327.489127946899
1580421721.18949,-63.5080491340505,-7.47692072938116,319.49340047303
1580421721.19349,-60.2731364919509,-9.67421988250544,310.887312123293
1580421721.19749,-61.9821469443809,-11.4442664225223,301.182574196994
1580421721.20149,-68.0247196154726,-11.2611581597619,290.012970168612
1580421721.20549,-76.3866636148623,-8.69764248111687,277.073319600213
1580421721.20949,-85.1148241397725,-5.82894636453807,262.363622491798
1580421721.21349,-93.2326237888151,-1.8616006713969,246.00595101854
1580421721.21749,-98.7869077592127,2.04470893415737,229.282063019761
1580421721.22147,-101.228351262684,3.50957503624022,213.046463721676
1580421721.22546,-103.120469977875,4.05889982452118,196.932936598764
1580421721.22946,-103.120469977875,4.48615243762879,181.063553826199
1580421721.23346,-92.6222629129472,2.83817807278547,166.353856717784
1580421721.23746,-68.9402609292745,-0.0305180437933359,152.376592660411
1580421721.24146,-37.8118562600139,-1.0070954451819,137.483787289235
1580421721.24546,-4.8523689631495,1.19020370794237,120.149538414588
1580421721.24946,26.2149996185244,4.73029678797593,100.251773861296
1580421721.25346,51.9722285801477,7.41588464179449,78.3398184176394
1580421721.25745,70.8934157320518,8.88075074387734,55.2681773098343
1580421721.26145,82.734416723888,9.91836423285258,31.7692835889218
1580421721.26545,88.0445563439384,10.650797283894,8.94178683146401
1580421721.26945,87.7393759060046,11.0170138094147,-13.0312046997788
1580421721.27345,84.1382467383842,10.8339055466545,-34.2717631799803
1580421721.27745,78.7060349431604,10.8339055466545,-54.4136720836195
1580421721.28145,72.6024261844818,10.5287251087204,-73.2127870603495
1580421721.28545,66.1936369878695,9.4911116197452,-90.3639276722361
1580421721.28944,59.6017395284962,7.41588464179449,-105.989166094453
1580421721.29344,56.48889906157,10.8339055466545,-119.356069275959
1580421721.29744,67.4753948271918,32.9289692530708,-127.718013275349
1580421721.30145,72.2362096589609,36.4080262455175,-128.26733806363
1580421721.30545,62.9587243457695,26.2149996185244,-128.389410238804
1580421721.30945,78.7060349431604,26.9474326695658,-126.5583276112
1580421721.31345,100.373846036469,9.12489509422448,-117.708094911116
1580421721.31745,100.007629510948,-30.2433813992523,-102.571145189593
1580421721.32145,79.9877927824828,-60.7614251926452,-82.6733806363011
1580421721.32544,26.4591439688716,-60.8224612802319,-71.8699931334402
1580421721.32944,-40.8636606393532,-36.9573510337989,-84.2603189135575
1580421721.33344,-98.2986190585184,-12.7870603494316,-110.99412527657
1580421721.33744,-150.972762645914,3.93682764934761,-141.206988632029
1580421721.34144,-186.129549095903,9.55214770733187,-171.663996337835
1580421721.34544,-185.580224307622,1.25123979552905,-194.186312657359
1580421721.34944,-145.418478675517,-11.2611581597619,-194.73563744564
1580421721.35344,-82.3682001983673,-15.228503852903,-174.715800717174
1580421721.35743,-24.5059891660944,-15.0453955901426,-149.446860456245
1580421721.36143,3.44853894865332,-7.41588464179449,-133.455405508507
1580421721.36543,0.335698481727377,3.87579156176093,-128.877698939498
1580421721.36943,-22.8580148012511,14.8622873273823,-133.272297245747
1580421721.37343,-51.4839398794538,24.1397726405737,-142.305638208591
1580421721.37743,-76.1425192645152,31.6472114137482,-150.362401770047
1580421721.38141,-91.5236133363851,34.6990157930875,-154.08560311284
1580421721.38541,-98.725871671626,29.0226596475165,-153.780422674907
1580421721.38941,-101.289387350271,21.5762569619287,-152.071412222477
1580421721.3934,-97.9934386205846,20.1724269474325,-151.216906996262
1580421721.3974,-94.3923094529641,24.0787365529868,-153.047989623865
1580421721.4014,-89.5094224460211,27.6188296330204,-156.95429922942
1580421721.4054,-77.1801327534904,29.5109483482108,-159.639887083238
1580421721.4094,-61.5548943312733,27.0084687571525,-159.761959258412
1580421721.4134,-44.4037537193867,21.9424734874494,-158.419165331502
1580421721.4174,-25.7877470054168,16.7544060425726,-156.282902265965
1580421721.4214,-7.7821011673152,15.3505760280766,-153.414206149386
1580421721.4254,3.26543068589308,19.4399938963911,-151.033798733501
1580421721.42939,11.3832303349354,27.8019378957808,-149.141680018311
1580421721.43339,17.9140917067216,34.1496910048065,-147.981994354162
1580421721.43739,25.1773861295489,34.027618829633,-146.822308690013
1580421721.44139,30.7316700999465,26.7643244068054,-141.75631342031
1580421721.44539,29.755092698558,18.2803082322423,-131.929503318837
1580421721.44939,19.5620660715647,16.1440451667047,-120.393682764935
1580421721.45339,11.0170138094147,23.2852674143587,-110.444800488289
1580421721.45738,16.083009079118,34.5159075303272,-103.791866941329
1580421721.46136,29.755092698558,42.2064545662622,-99.7634851606012
1580421721.46536,41.9623102159151,43.0609597924772,-96.4065003433282
1580421721.46936,51.2397955291062,37.8118562600137,-91.5236133363851
1580421721.47336,52.9488059815362,30.1823453116654,-85.3589684901197
1580421721.47736,49.5307850766762,24.2618448157473,-78.8891432059204
1580421721.48136,51.4839398794534,20.7827878233004,-71.9920653086137
1580421721.48536,57.648584725719,18.2803082322423,-65.5832761120012
1580421721.48936,61.3717860685128,16.6933699549859,-60.6393530174716
1580421721.49335,61.5548943312733,15.6557564660104,-57.0992599374381
1580421721.49735,57.7706569008924,15.3505760280766,-54.7188525215533
1580421721.50135,51.1177233539329,14.923323414969,-53.6202029449912
1580421721.50535,44.0985732814524,13.1532768749523,-53.0098420691234
1580421721.50935,38.4832532234682,11.2611581597619,-52.7046616311895
1580421721.51335,32.3796444647896,9.18593118181116,-52.6436255436026
1580421721.51735,25.1163500419623,6.56137941557949,-52.8877698939498
1580421721.52135,18.5244525825894,3.93682764934761,-53.1319142442969
1580421721.52534,13.8857099259938,1.8616006713969,-53.3760585946441
1580421721.52934,9.61318379491877,-0.0305180437933359,-53.3760585946441
1580421721.53334,4.11993591210808,-1.9226367589838,-53.2539864194705
1580421721.53734,-0.335698481727377,-3.99786373693451,-52.9488059815367
1580421721.54135,-3.87579156176093,-5.76791027695117,-51.9722285801481
1580421721.54535,-7.04966811627378,-7.04966811627378,-50.8125429159991
1580421721.54935,-10.4066529335469,-8.08728160524902,-49.5918211642634
1580421721.55335,-13.519493400473,-8.94178683146401,-48.1879911497674
1580421721.55735,-15.1064316777295,-9.61318379491877,-46.4789806973374
1580421721.56134,-14.8622873273823,-9.79629205767901,-44.2816815442131
1580421721.56534,-13.3363851377126,-9.61318379491877,-41.5350576028077
1580421721.56934,-10.8949416342411,-9.30800335698473,-38.1170366979477
1580421721.57334,-7.47692072938116,-8.45349813076973,-34.2717631799803
1580421721.57734,-2.22781719691761,-7.04966811627378,-30.1213092240787
1580421721.58134,4.42511635004189,-5.95101853971164,-25.8487830930037
1580421721.58534,11.2001220721752,-5.09651331349664,-21.9424734874494
1580421721.58934,18.1582360570687,-4.42511635004189,-18.2192721446554
1580421721.59333,23.1631952391851,-3.75371938658736,-14.9843595025559
1580421721.59733,27.191577019913,-2.65506981002522,-12.1766994735638
1580421721.60133,31.7692835889218,-1.49538414587619,-9.73525597009234
1580421721.60533,36.1028458075837,-0.0305180437933359,-7.53795681696806
1580421721.60933,39.2767223620965,1.31227588311594,-5.58480201419093
1580421721.61333,41.3519493400472,2.28885328450451,-4.36408026245522
1580421721.61733,42.6337071793696,2.89921416037237,-3.63164721141379
1580421721.62131,42.9388876173036,3.63164721141379,-3.26543068589308
1580421721.62531,42.1454184786753,3.75371938658736,-3.38750286106665
1580421721.6293,40.1922636758982,3.75371938658736,-3.87579156176093
1580421721.6333,36.9573510337987,3.38750286106665,-4.97444113832307
1580421721.6373,33.1120775158311,3.14335851071951,-6.37827115281902
1580421721.6413,28.5954070344089,2.59403372243833,-8.02624551766235
1580421721.6453,23.4073395895323,1.80056458381023,-9.91836423285258
1580421721.6493,19.195849546044,1.12916762035547,-11.2611581597619
1580421721.6533,15.777828641184,0.640878919661191,-12.2987716487373
1580421721.6573,12.4208438239109,0.274662394140478,-13.214312962539
1580421721.66129,10.2235446707866,0.091554131380235,-13.8857099259938
1580421721.66529,9.4300755321583,0.091554131380235,-14.4960708018616
1580421721.66929,10.4066529335469,0.091554131380235,-14.8012512397954
1580421721.67329,12.4208438239109,0.0305180437933359,-14.7402151522087
1580421721.67729,15.1064316777295,0.213626306553806,-14.6181429770352
1580421721.68129,17.486839093614,0.457770656900948,-14.1298542763409
