Timestamp_seconds,Accel_X_g,Accel_Y_g,Accel_Z_g
1580421714.87187,-0.988540474555581,-0.0930189974822611,-0.204837109941252
1580421714.87587,-0.99293507286183,-0.0876478217746239,-0.203860532539863
1580421714.87986,-0.992446784161135,-0.0935072861829553,-0.207278553444723
1580421714.88386,-0.990493629358358,-0.0939955748836496,-0.214114595254443
1580421714.88786,-0.988540474555581,-0.0974135957885096,-0.221438925764858
1580421714.89186,-0.980239566643778,-0.107179369802395,-0.220462348363469
1580421714.89586,-0.97926298924239,-0.108644235904478,-0.220950637064163
1580421714.89986,-0.981704432745861,-0.109620813305867,-0.215579461356526
1580421714.90387,-0.982192721446555,-0.10083161669337,-0.209719996948195
1580421714.90787,-0.98268101014725,-0.099855039291981,-0.213626306553749
1580421714.91187,-0.980239566643778,-0.100343327992675,-0.223392080567635
1580421714.91587,-0.97926298924239,-0.104737926298924,-0.223392080567635
1580421714.91986,-0.982192721446555,-0.108644235904478,-0.217044327458609
1580421714.92386,-0.982192721446555,-0.113527122911421,-0.221927214465552
1580421714.92786,-0.981704432745861,-0.113038834210727,-0.220462348363469
1580421714.93186,-0.982192721446555,-0.113038834210727,-0.219485770962081
1580421714.93586,-0.983657587548638,-0.112062256809338,-0.216556038757915
1580421714.93986,-0.984634164950027,-0.11108567940795,-0.218997482261386
1580421714.94386,-0.984634164950027,-0.107179369802395,-0.218997482261386
1580421714.94786,-0.98268101014725,-0.106202792401007,-0.215091172655832
1580421714.95185,-0.981216144045167,-0.113527122911421,-0.226321812771801
1580421714.95585,-0.978286411841001,-0.118898298619058,-0.217044327458609
1580421714.95985,-0.980727855344472,-0.118410009918364,-0.213626306553749
1580421714.96385,-0.978774700541695,-0.11108567940795,-0.215091172655832
1580421714.96785,-0.974380102235447,-0.112062256809338,-0.213138017853055
1580421714.97185,-0.97242694743267,-0.110109102006561,-0.212649729152361
1580421714.97585,-0.971938658731975,-0.106202792401007,-0.217044327458609
1580421714.97985,-0.970473792629893,-0.10083161669337,-0.213626306553749
1580421714.98382,-0.969497215228504,-0.106202792401007,-0.215579461356526
1580421714.98782,-0.972915236133364,-0.109132524605172,-0.217532616159303
1580421714.99182,-0.973403524834058,-0.108644235904478,-0.216556038757915
1580421714.99582,-0.974380102235447,-0.112062256809338,-0.216556038757915
1580421714.99982,-0.973403524834058,-0.11108567940795,-0.213626306553749
1580421715.00382,-0.978774700541695,-0.105714503700312,-0.206790264744029
1580421715.00782,-0.978286411841001,-0.0979018844892039,-0.206790264744029
1580421715.01182,-0.980239566643778,-0.0900892652780954,-0.206301976043335
1580421715.01582,-0.983657587548638,-0.0886243991760125,-0.213138017853055
1580421715.01981,-0.983657587548638,-0.0896009765774011,-0.216067750057221
1580421715.02381,-0.980239566643778,-0.0983901731898982,-0.213138017853055
1580421715.02781,-0.98268101014725,-0.104737926298924,-0.209719996948195
1580421715.03181,-0.983169298847944,-0.104737926298924,-0.206790264744029
1580421715.03581,-0.98268101014725,-0.103273060196841,-0.208743419546806
1580421715.03981,-0.98609903105211,-0.101319905394064,-0.207278553444723
1580421715.04381,-0.984145876249332,-0.103273060196841,-0.211673151750972
1580421715.0478,-0.982192721446555,-0.106691081101701,-0.216556038757915
1580421715.0518,-0.983169298847944,-0.109132524605172,-0.216067750057221
1580421715.0558,-0.984634164950027,-0.114015411612115,-0.213138017853055
1580421715.0598,-0.984634164950027,-0.112062256809338,-0.209231708247501
1580421715.06381,-0.988052185854887,-0.112550545510032,-0.211184863050278
1580421715.06781,-0.985122453650721,-0.10424963759823,-0.206301976043335
1580421715.07181,-0.981704432745861,-0.10424963759823,-0.208255130846112
1580421715.07581,-0.97926298924239,-0.102784771496147,-0.212649729152361
1580421715.07981,-0.97926298924239,-0.102296482795452,-0.212161440451666
1580421715.08381,-0.978286411841001,-0.102784771496147,-0.209231708247501
1580421715.0878,-0.976821545738918,-0.101808194094758,-0.208255130846112
1580421715.0918,-0.977798123140307,-0.096437018387121,-0.209231708247501
1580421715.0958,-0.976333257038224,-0.0959487296864268,-0.209719996948195
1580421715.0998,-0.977309834439613,-0.0969253070878153,-0.212161440451666
1580421715.1038,-0.973891813534753,-0.0959487296864268,-0.208255130846112
1580421715.1078,-0.978774700541695,-0.0969253070878153,-0.203372243839169
1580421715.1118,-0.981704432745861,-0.0959487296864268,-0.201419089036392
1580421715.1158,-0.978286411841001,-0.0983901731898982,-0.206790264744029
1580421715.11979,-0.976821545738918,-0.0974135957885096,-0.203860532539863
1580421715.12379,-0.977309834439613,-0.102784771496147,-0.198001068131532
1580421715.12779,-0.976333257038224,-0.101808194094758,-0.203860532539863
1580421715.13179,-0.977309834439613,-0.10424963759823,-0.202883955138475
1580421715.13579,-0.980239566643778,-0.105226214999618,-0.196536202029449
1580421715.13979,-0.978286411841001,-0.0993667505912867,-0.199465934233615
1580421715.14377,-0.98268101014725,-0.101319905394064,-0.202883955138475
1580421715.14777,-0.98268101014725,-0.103273060196841,-0.206301976043335
1580421715.15176,-0.987563897154192,-0.107179369802395,-0.208743419546806
1580421715.15576,-0.98609903105211,-0.107179369802395,-0.208255130846112
1580421715.15976,-0.988540474555581,-0.109132524605172,-0.202883955138475
1580421715.16376,-0.988540474555581,-0.10766765850309,-0.203860532539863
1580421715.16776,-0.985610742351415,-0.107179369802395,-0.201419089036392
1580421715.17176,-0.98609903105211,-0.106202792401007,-0.200930800335698
1580421715.17576,-0.986587319752804,-0.10424963759823,-0.202395666437781
1580421715.17976,-0.984145876249332,-0.108644235904478,-0.199465934233615
1580421715.18375,-0.982192721446555,-0.106202792401007,-0.203372243839169
1580421715.18775,-0.979751277943084,-0.105226214999618,-0.205325398641946
1580421715.19175,-0.983657587548638,-0.101808194094758,-0.205325398641946
1580421715.19575,-0.98268101014725,-0.103273060196841,-0.207766842145418
1580421715.19975,-0.98268101014725,-0.104737926298924,-0.210208285648889
1580421715.20375,-0.983169298847944,-0.105714503700312,-0.208743419546806
1580421715.20775,-0.984145876249332,-0.106202792401007,-0.207766842145418
1580421715.21175,-0.981216144045167,-0.103761348897535,-0.208743419546806
1580421715.21575,-0.983169298847944,-0.108644235904478,-0.215091172655832
1580421715.21974,-0.98268101014725,-0.108155947203784,-0.214114595254443
1580421715.22375,-0.978774700541695,-0.109620813305867,-0.210208285648889
1580421715.22775,-0.981216144045167,-0.108155947203784,-0.213138017853055
1580421715.23175,-0.984634164950027,-0.109132524605172,-0.215091172655832
1580421715.23575,-0.981704432745861,-0.108644235904478,-0.214602883955138
1580421715.23975,-0.980239566643778,-0.110109102006561,-0.214602883955138
1580421715.24375,-0.981704432745861,-0.109132524605172,-0.217532616159303
1580421715.24775,-0.979751277943084,-0.111573968108644,-0.216067750057221
1580421715.25175,-0.978774700541695,-0.104737926298924,-0.216556038757915
1580421715.25574,-0.977798123140307,-0.106691081101701,-0.212161440451666
1580421715.25974,-0.978286411841001,-0.107179369802395,-0.212161440451666
1580421715.26374,-0.978774700541695,-0.108644235904478,-0.213626306553749
1580421715.26774,-0.97926298924239,-0.103761348897535,-0.217044327458609
1580421715.27174,-0.981216144045167,-0.0988784618905925,-0.212161440451666
1580421715.27574,-0.980239566643778,-0.0988784618905925,-0.208255130846112
1580421715.27974,-0.981704432745861,-0.102784771496147,-0.217044327458609
1580421715.28374,-0.981216144045167,-0.105226214999618,-0.216556038757915
1580421715.28773,-0.982192721446555,-0.109132524605172,-0.209231708247501
1580421715.29173,-0.98268101014725,-0.110109102006561,-0.206790264744029
1580421715.29573,-0.987075608453498,-0.108644235904478,-0.208743419546806
1580421715.29973,-0.982192721446555,-0.105714503700312,-0.204348821240558
1580421715.30371,-0.982192721446555,-0.10424963759823,-0.206790264744029
1580421715.30771,-0.980239566643778,-0.101319905394064,-0.212649729152361
1580421715.31171,-0.977798123140307,-0.0988784618905925,-0.206301976043335
1580421715.31571,-0.980727855344472,-0.0993667505912867,-0.207766842145418
1580421715.31971,-0.981704432745861,-0.099855039291981,-0.205325398641946
1580421715.3237,-0.979751277943084,-0.10083161669337,-0.204837109941252
1580421715.3277,-0.982192721446555,-0.102784771496147,-0.206301976043335
1580421715.3317,-0.984145876249332,-0.100343327992675,-0.201907377737086
1580421715.3357,-0.983657587548638,-0.101319905394064,-0.203372243839169
1580421715.3397,-0.984634164950027,-0.0954604409857325,-0.203372243839169
1580421715.3437,-0.980239566643778,-0.0949721522850382,-0.206790264744029
1580421715.3477,-0.982192721446555,-0.096437018387121,-0.207766842145418
1580421715.3517,-0.982192721446555,-0.099855039291981,-0.207278553444723
1580421715.35569,-0.981216144045167,-0.10424963759823,-0.206790264744029
1580421715.35969,-0.98268101014725,-0.10424963759823,-0.206301976043335
1580421715.36369,-0.980727855344472,-0.106202792401007,-0.203860532539863
1580421715.36769,-0.983169298847944,-0.0993667505912867,-0.210696574349583
1580421715.37169,-0.98268101014725,-0.10083161669337,-0.207766842145418
1580421715.37569,-0.984634164950027,-0.101808194094758,-0.215091172655832
1580421715.37969,-0.984634164950027,-0.106202792401007,-0.215579461356526
1580421715.38367,-0.984145876249332,-0.102296482795452,-0.213626306553749
1580421715.38767,-0.983657587548638,-0.105226214999618,-0.210208285648889
1580421715.39166,-0.980239566643778,-0.106691081101701,-0.208743419546806
1580421715.39566,-0.980727855344472,-0.107179369802395,-0.213138017853055
1580421715.39966,-0.98268101014725,-0.108155947203784,-0.215091172655832
1580421715.40366,-0.978774700541695,-0.106202792401007,-0.217532616159303
1580421715.40766,-0.97926298924239,-0.109132524605172,-0.211184863050278
1580421715.41166,-0.980727855344472,-0.106691081101701,-0.211184863050278
1580421715.41566,-0.983657587548638,-0.106691081101701,-0.212649729152361
1580421715.41965,-0.981704432745861,-0.10766765850309,-0.213626306553749
1580421715.42365,-0.979751277943084,-0.10766765850309,-0.212649729152361
1580421715.42765,-0.980239566643778,-0.109620813305867,-0.217044327458609
1580421715.43165,-0.981704432745861,-0.112550545510032,-0.213138017853055
1580421715.43565,-0.978774700541695,-0.109132524605172,-0.215579461356526
1580421715.43965,-0.977798123140307,-0.105226214999618,-0.216556038757915
1580421715.44365,-0.978286411841001,-0.106202792401007,-0.215579461356526
1580421715.44765,-0.980239566643778,-0.107179369802395,-0.219485770962081
1580421715.45164,-0.98268101014725,-0.107179369802395,-0.214114595254443
1580421715.45564,-0.981216144045167,-0.103761348897535,-0.212161440451666
1580421715.45964,-0.981704432745861,-0.106202792401007,-0.213138017853055
1580421715.46365,-0.980239566643778,-0.104737926298924,-0.211184863050278
1580421715.46765,-0.98268101014725,-0.0988784618905925,-0.209231708247501
1580421715.47165,-0.983169298847944,-0.103273060196841,-0.211184863050278
1580421715.47565,-0.980727855344472,-0.102296482795452,-0.209719996948195
1580421715.47965,-0.983657587548638,-0.10766765850309,-0.204348821240558
1580421715.48365,-0.983169298847944,-0.11108567940795,-0.203372243839169
1580421715.48765,-0.984634164950027,-0.11450370031281,-0.203860532539863
1580421715.49164,-0.980239566643778,-0.118410009918364,-0.199465934233615
1580421715.49564,-0.976333257038224,-0.115968566414892,-0.202883955138475
1580421715.49964,-0.974868390936141,-0.115480277714198,-0.204348821240558
1580421715.50364,-0.975356679636835,-0.113038834210727,-0.203860532539863
1580421715.50764,-0.976333257038224,-0.109620813305867,-0.204348821240558
1580421715.51164,-0.974380102235447,-0.10766765850309,-0.205325398641946
1580421715.51564,-0.977798123140307,-0.110109102006561,-0.210208285648889
1580421715.51964,-0.981216144045167,-0.11108567940795,-0.205813687342641
1580421715.52363,-0.981216144045167,-0.108155947203784,-0.210208285648889
1580421715.52763,-0.984145876249332,-0.110109102006561,-0.210208285648889
1580421715.53163,-0.98268101014725,-0.112062256809338,-0.212649729152361
1580421715.53563,-0.982192721446555,-0.11108567940795,-0.206790264744029
1580421715.53963,-0.981216144045167,-0.113038834210727,-0.212161440451666
1580421715.54361,-0.977798123140307,-0.114991989013504,-0.211184863050278
1580421715.54761,-0.976821545738918,-0.117433432516975,-0.212649729152361
1580421715.55161,-0.972915236133364,-0.116945143816281,-0.213138017853055
1580421715.55561,-0.97242694743267,-0.120363164721141,-0.214114595254443
1580421715.5596,-0.973403524834058,-0.12133974212253,-0.209231708247501
1580421715.5636,-0.973403524834058,-0.12133974212253,-0.208255130846112
1580421715.5676,-0.97242694743267,-0.12133974212253,-0.207278553444723
1580421715.5716,-0.971450370031281,-0.12475776302739,-0.212649729152361
1580421715.5756,-0.97584496833753,-0.123292896925307,-0.206790264744029
1580421715.5796,-0.975356679636835,-0.122804608224612,-0.210696574349583
1580421715.5836,-0.976821545738918,-0.123292896925307,-0.207766842145418
1580421715.5876,-0.975356679636835,-0.119386587319752,-0.212649729152361
1580421715.59159,-0.973891813534753,-0.11792172121767,-0.217532616159303
1580421715.59559,-0.972915236133364,-0.121828030823224,-0.209719996948195
1580421715.59959,-0.971450370031281,-0.120363164721141,-0.213626306553749
1580421715.60359,-0.970473792629893,-0.114991989013504,-0.210696574349583
1580421715.60759,-0.969985503929198,-0.113038834210727,-0.205325398641946
1580421715.61159,-0.973403524834058,-0.105714503700312,-0.203372243839169
1580421715.61559,-0.97242694743267,-0.103761348897535,-0.210696574349583
1580421715.61959,-0.972915236133364,-0.106202792401007,-0.213626306553749
1580421715.6236,-0.973891813534753,-0.112550545510032,-0.215091172655832
1580421715.62759,-0.979751277943084,-0.113527122911421,-0.212649729152361
1580421715.63159,-0.984145876249332,-0.108644235904478,-0.209719996948195
1580421715.63559,-0.990493629358358,-0.099855039291981,-0.211673151750972
1580421715.63959,-0.995864805065995,-0.096437018387121,-0.219974059662775
1580421715.64359,-0.994399938963912,-0.103273060196841,-0.216067750057221
1580421715.64759,-0.993423361562524,-0.111573968108644,-0.218020904859998
1580421715.65159,-0.992446784161135,-0.119386587319752,-0.212649729152361
1580421715.65559,-0.990493629358358,-0.120363164721141,-0.210696574349583
1580421715.65958,-0.989028763256275,-0.119386587319752,-0.212649729152361
1580421715.66358,-0.987075608453498,-0.11792172121767,-0.216556038757915
1580421715.66758,-0.981216144045167,-0.119386587319752,-0.218020904859998
1580421715.67158,-0.975356679636835,-0.123781185626001,-0.217532616159303
1580421715.67558,-0.974380102235447,-0.126222629129472,-0.219485770962081
1580421715.67958,-0.974868390936141,-0.127199206530861,-0.216067750057221
1580421715.68358,-0.977309834439613,-0.128664072632944,-0.216067750057221
1580421715.68758,-0.975356679636835,-0.128175783932249,-0.211184863050278
1580421715.69157,-0.976821545738918,-0.127199206530861,-0.214602883955138
1580421715.69557,-0.974868390936141,-0.125246051728084,-0.216067750057221
1580421715.69957,-0.976333257038224,-0.122804608224612,-0.214114595254443
1580421715.70355,-0.973891813534753,-0.118410009918364,-0.214114595254443
1580421715.70755,-0.972915236133364,-0.119386587319752,-0.218509193560692
1580421715.71155,-0.975356679636835,-0.117433432516975,-0.218020904859998
1580421715.71555,-0.978286411841001,-0.121828030823224,-0.220462348363469
1580421715.71955,-0.976821545738918,-0.124269474326695,-0.215579461356526
1580421715.72355,-0.97584496833753,-0.122316319523918,-0.217532616159303
1580421715.72754,-0.975356679636835,-0.120363164721141,-0.225345235370412
1580421715.73154,-0.976333257038224,-0.128175783932249,-0.224856946669718
1580421715.73554,-0.974868390936141,-0.125734340428778,-0.222903791866941
1580421715.73954,-0.974380102235447,-0.123781185626001,-0.222903791866941
1580421715.74354,-0.978286411841001,-0.115480277714198,-0.220950637064163
1580421715.74754,-0.977798123140307,-0.113038834210727,-0.221927214465552
1580421715.75154,-0.974380102235447,-0.118898298619058,-0.226321812771801
1580421715.75554,-0.97584496833753,-0.129152361333638,-0.234622720683603
1580421715.75953,-0.97926298924239,-0.138429846646829,-0.231692988479438
1580421715.76353,-0.979751277943084,-0.148195620660715,-0.221927214465552
1580421715.76753,-0.990005340657664,-0.149660486762798,-0.218509193560692
1580421715.77153,-0.988052185854887,-0.152101930266269,-0.217532616159303
1580421715.77553,-0.990981918059052,-0.153566796368352,-0.219485770962081
1580421715.77953,-0.989028763256275,-0.148683909361409,-0.219485770962081
1580421715.78354,-0.985122453650721,-0.143801022354467,-0.225345235370412
1580421715.78754,-0.984634164950027,-0.136476691844052,-0.228763256275272
1580421715.79154,-0.983657587548638,-0.133546959639887,-0.227298390173189
1580421715.79553,-0.98268101014725,-0.125246051728084,-0.228274967574578
1580421715.79953,-0.97926298924239,-0.116456855115587,-0.223392080567635
1580421715.80353,-0.977798123140307,-0.110109102006561,-0.224856946669718
1580421715.80753,-0.970473792629893,-0.109132524605172,-0.232181277180132
1580421715.81153,-0.96900892652781,-0.102784771496147,-0.233646143282215
1580421715.81553,-0.969985503929198,-0.0993667505912867,-0.232669565880826
1580421715.81953,-0.97242694743267,-0.0954604409857325,-0.232669565880826
1580421715.82353,-0.975356679636835,-0.0920424200808725,-0.230228122377355
1580421715.82752,-0.973403524834058,-0.0900892652780954,-0.230228122377355
1580421715.83152,-0.972915236133364,-0.096437018387121,-0.227298390173189
1580421715.83552,-0.966567483024338,-0.105226214999618,-0.223880369268329
1580421715.83952,-0.970473792629893,-0.116945143816281,-0.216556038757915
1580421715.84352,-0.972915236133364,-0.123292896925307,-0.216067750057221
1580421715.84752,-0.974380102235447,-0.129640650034332,-0.213626306553749
1580421715.85152,-0.975356679636835,-0.130128938735027,-0.218997482261386
1580421715.85552,-0.979751277943084,-0.128664072632944,-0.212161440451666
1580421715.85951,-0.980727855344472,-0.123292896925307,-0.225833524071106
1580421715.86349,-0.980727855344472,-0.120363164721141,-0.221438925764858
1580421715.86749,-0.983657587548638,-0.119874876020447,-0.223392080567635
1580421715.87149,-0.983657587548638,-0.118898298619058,-0.222415503166246
1580421715.87549,-0.989028763256275,-0.125246051728084,-0.218020904859998
1580421715.87949,-0.991958495460441,-0.127687495231555,-0.223880369268329
1580421715.88349,-0.98951705195697,-0.134035248340581,-0.218509193560692
1580421715.88749,-0.989028763256275,-0.135988403143358,-0.218997482261386
1580421715.89149,-0.986587319752804,-0.142336156252384,-0.225833524071106
1580421715.89548,-0.985610742351415,-0.141359578850995,-0.232181277180132
1580421715.89948,-0.977798123140307,-0.139894712748912,-0.228763256275272
1580421715.90348,-0.97242694743267,-0.142336156252384,-0.237064164187075
1580421715.90748,-0.97242694743267,-0.135011825741969,-0.237552452887769
1580421715.91148,-0.974868390936141,-0.125734340428778,-0.240482185091935
1580421715.91548,-0.974380102235447,-0.11792172121767,-0.238040741588463
1580421715.91948,-0.977309834439613,-0.112062256809338,-0.237552452887769
1580421715.92348,-0.974868390936141,-0.110597390707255,-0.234134431982909
1580421715.92747,-0.976821545738918,-0.113527122911421,-0.231692988479438
1580421715.93147,-0.971938658731975,-0.120851453421835,-0.233646143282215
1580421715.93547,-0.974868390936141,-0.12475776302739,-0.231692988479438
1580421715.93947,-0.973403524834058,-0.126710917830167,-0.227786678873883
1580421715.94348,-0.974868390936141,-0.123781185626001,-0.228763256275272
1580421715.94748,-0.977798123140307,-0.121828030823224,-0.228763256275272
1580421715.95148,-0.974380102235447,-0.119874876020447,-0.231692988479438
1580421715.95548,-0.978286411841001,-0.119386587319752,-0.234134431982909
1580421715.95948,-0.973891813534753,-0.121828030823224,-0.237552452887769
1580421715.96347,-0.975356679636835,-0.119874876020447,-0.23315785458152
1580421715.96747,-0.980727855344472,-0.118410009918364,-0.235111009384298
1580421715.97147,-0.984145876249332,-0.11792172121767,-0.231692988479438
1580421715.97547,-0.983169298847944,-0.122316319523918,-0.233646143282215
1580421715.97947,-0.98609903105211,-0.120363164721141,-0.235111009384298
1580421715.98347,-0.980727855344472,-0.120363164721141,-0.235111009384298
1580421715.98747,-0.97584496833753,-0.129152361333638,-0.23657587548638
1580421715.99147,-0.972915236133364,-0.134035248340581,-0.237064164187075
1580421715.99547,-0.970962081330587,-0.147219043259327,-0.230716411078049
1580421715.99946,-0.96900892652781,-0.155519951171129,-0.218020904859998
1580421716.00346,-0.966567483024338,-0.158937972075989,-0.218997482261386
1580421716.00746,-0.967544060425727,-0.160402838178072,-0.215091172655832
1580421716.01146,-0.968520637827115,-0.153566796368352,-0.217044327458609
1580421716.01546,-0.970962081330587,-0.151613641565575,-0.225345235370412
1580421716.01946,-0.97242694743267,-0.144777599755855,-0.231204699778743
1580421716.02344,-0.973403524834058,-0.136476691844052,-0.229251544975966
1580421716.02744,-0.973891813534753,-0.126222629129472,-0.23315785458152
1580421716.03144,-0.972915236133364,-0.12475776302739,-0.227298390173189
1580421716.03543,-0.968032349126421,-0.120363164721141,-0.221438925764858
1580421716.03943,-0.971450370031281,-0.118410009918364,-0.219485770962081
1580421716.04343,-0.974380102235447,-0.126222629129472,-0.222903791866941
1580421716.04743,-0.974380102235447,-0.135011825741969,-0.225345235370412
1580421716.05143,-0.97242694743267,-0.150148775463492,-0.23315785458152
1580421716.05543,-0.976333257038224,-0.151125352864881,-0.229251544975966
1580421716.05943,-0.97584496833753,-0.140383001449607,-0.220462348363469
1580421716.06342,-0.976821545738918,-0.131593804837109,-0.222903791866941
1580421716.06742,-0.97584496833753,-0.130617227435721,-0.221927214465552
1580421716.07142,-0.974868390936141,-0.144777599755855,-0.227298390173189
1580421716.07542,-0.96559090562295,-0.158937972075989,-0.228763256275272
1580421716.07942,-0.963149462119478,-0.139894712748912,-0.227786678873883
1580421716.08342,-0.966079194323644,-0.118410009918364,-0.223880369268329
1580421716.08742,-0.966567483024338,-0.110597390707255,-0.216556038757915
1580421716.09142,-0.966567483024338,-0.123292896925307,-0.202395666437781
1580421716.09541,-0.97242694743267,-0.139894712748912,-0.194094758525978
1580421716.09941,-0.964126039520867,-0.147219043259327,-0.196047913328755
1580421716.10342,-0.966079194323644,-0.142824444953078,-0.196536202029449
1580421716.10742,-0.964126039520867,-0.135500114442664,-0.203372243839169
1580421716.11142,-0.970962081330587,-0.128664072632944,-0.211673151750972
1580421716.11542,-0.973403524834058,-0.128664072632944,-0.212161440451666
1580421716.11942,-0.984145876249332,-0.132570382238498,-0.211673151750972
1580421716.12342,-0.987563897154192,-0.140383001449607,-0.212161440451666
1580421716.12742,-0.989028763256275,-0.146730754558632,-0.210696574349583
1580421716.13141,-0.988540474555581,-0.146242465857938,-0.202395666437781
1580421716.13541,-0.987075608453498,-0.151125352864881,-0.204348821240558
1580421716.13941,-0.979751277943084,-0.147707331960021,-0.208743419546806
1580421716.14341,-0.973891813534753,-0.140383001449607,-0.200930800335698
1580421716.14741,-0.964126039520867,-0.138918135347524,-0.205325398641946
1580421716.15141,-0.964126039520867,-0.133546959639887,-0.205325398641946
1580421716.15541,-0.96900892652781,-0.129640650034332,-0.219485770962081
1580421716.15941,-0.968520637827115,-0.125246051728084,-0.239505607690546
1580421716.1634,-0.974868390936141,-0.11792172121767,-0.241947051194018
1580421716.1674,-0.981216144045167,-0.106691081101701,-0.241458762493323
1580421716.1714,-0.98951705195697,-0.0988784618905925,-0.23999389639124
1580421716.1754,-1.00025940337224,-0.106691081101701,-0.234622720683603
1580421716.1794,-1.00904859998474,-0.109132524605172,-0.232181277180132
1580421716.18338,-1.01393148699168,-0.113038834210727,-0.229739833676661
1580421716.18738,-1.01100175478752,-0.11108567940795,-0.236087586785686
1580421716.19138,-1.00172426947433,-0.106202792401007,-0.23999389639124
1580421716.19538,-0.987075608453498,-0.100343327992675,-0.244876783398183
1580421716.19937,-0.96900892652781,-0.0974135957885096,-0.242923628595406
1580421716.20337,-0.962661173418784,-0.096437018387121,-0.24682993820096
1580421716.20737,-0.95875486381323,-0.102784771496147,-0.248294804303043
1580421716.21137,-0.956313420309758,-0.10766765850309,-0.253177691309988
1580421716.21537,-0.960219729915313,-0.109620813305867,-0.24682993820096
1580421716.21937,-0.965102616922255,-0.112062256809338,-0.252201113908599
1580421716.22337,-0.968032349126421,-0.118410009918364,-0.255619134813459
1580421716.22737,-0.975356679636835,-0.123781185626001,-0.258548867017625
1580421716.23136,-0.981216144045167,-0.11792172121767,-0.254154268711376
1580421716.23536,-0.985610742351415,-0.110597390707255,-0.252689402609294
1580421716.23936,-0.985610742351415,-0.101319905394064,-0.253665980010682
1580421716.24336,-0.984145876249332,-0.0949721522850382,-0.253665980010682
1580421716.24736,-0.977309834439613,-0.096437018387121,-0.257572289616236
1580421716.25136,-0.971938658731975,-0.096437018387121,-0.252689402609294
1580421716.25536,-0.96559090562295,-0.0993667505912867,-0.262455176623179
1580421716.25936,-0.965102616922255,-0.106691081101701,-0.250736247806516
1580421716.26337,-0.965102616922255,-0.112062256809338,-0.244388494697489
1580421716.26736,-0.961684596017395,-0.12133974212253,-0.2434119172961
1580421716.27136,-0.959243152513924,-0.130128938735027,-0.237552452887769
1580421716.27536,-0.959731441214618,-0.140383001449607,-0.219974059662775
1580421716.27936,-0.960219729915313,-0.157473105973907,-0.217044327458609
1580421716.28336,-0.96217288471809,-0.162844281681544,-0.213626306553749
1580421716.28736,-0.966079194323644,-0.155031662470435,-0.207278553444723
1580421716.29136,-0.97242694743267,-0.139406424048218,-0.206790264744029
1580421716.29536,-0.973891813534753,-0.118410009918364,-0.212161440451666
1580421716.29936,-0.970962081330587,-0.0993667505912867,-0.223880369268329
1580421716.30335,-0.970962081330587,-0.0900892652780954,-0.23315785458152
1580421716.30735,-0.969497215228504,-0.0852063782711525,-0.242923628595406
1580421716.31135,-0.970962081330587,-0.0842298008697639,-0.238529030289158
1580421716.31535,-0.974868390936141,-0.080811779964904,-0.237552452887769
1580421716.31935,-0.98609903105211,-0.0700694285496297,-0.228763256275272
1580421716.32335,-0.994399938963912,-0.0627450980392155,-0.230228122377355
1580421716.32735,-0.989028763256275,-0.0710460059510183,-0.248783093003738
1580421716.33134,-0.978774700541695,-0.0944838635843439,-0.261966887922485
1580421716.33534,-0.969497215228504,-0.122316319523918,-0.256107423514154
1580421716.33934,-0.968032349126421,-0.138918135347524,-0.244876783398183
1580421716.34332,-0.971450370031281,-0.151125352864881,-0.237064164187075
1580421716.34732,-0.970962081330587,-0.154543373769741,-0.229739833676661
1580421716.35132,-0.972915236133364,-0.152101930266269,-0.23315785458152
1580421716.35532,-0.96900892652781,-0.150637064164187,-0.239017318989852
1580421716.35932,-0.968032349126421,-0.142336156252384,-0.246341649500266
1580421716.36332,-0.967055771725033,-0.134035248340581,-0.244876783398183
1580421716.36731,-0.967544060425727,-0.12475776302739,-0.237064164187075
1580421716.37131,-0.970473792629893,-0.118898298619058,-0.235111009384298
1580421716.37531,-0.972915236133364,-0.114015411612115,-0.241458762493323
1580421716.37931,-0.976333257038224,-0.106691081101701,-0.242923628595406
1580421716.38331,-0.976333257038224,-0.0983901731898982,-0.243900205996795
1580421716.38731,-0.978286411841001,-0.0876478217746239,-0.241458762493323
1580421716.39131,-0.977798123140307,-0.0749523155565726,-0.252201113908599
1580421716.39531,-0.983657587548638,-0.0612802319371326,-0.253177691309988
1580421716.3993,-0.984145876249332,-0.0495613031204698,-0.258548867017625
1580421716.4033,-0.97926298924239,-0.0544441901274126,-0.260013733119708
1580421716.4073,-0.978774700541695,-0.0656748302433812,-0.257084000915542
1580421716.4113,-0.983657587548638,-0.0651865415426869,-0.244388494697489
1580421716.4153,-0.991470206759747,-0.0588387884336612,-0.238529030289158
1580421716.4193,-0.997817959868772,-0.0510261692225527,-0.23999389639124
1580421716.42328,-1.00025940337224,-0.0529793240253298,-0.236087586785686
1580421716.42728,-0.996841382467384,-0.0695811398489354,-0.229739833676661
1580421716.43128,-0.999282825970855,-0.0871595330739297,-0.226321812771801
1580421716.43527,-1.00270084687572,-0.099855039291981,-0.224368657969023
1580421716.43927,-1.00953688868544,-0.106691081101701,-0.220462348363469
1580421716.44327,-1.01686121919585,-0.100343327992675,-0.218509193560692
1580421716.44727,-1.02272068360418,-0.0769054703593497,-0.198001068131532
1580421716.45127,-1.02760357061112,-0.048096437018387,-0.192629892423895
1580421716.45527,-1.02760357061112,-0.0217288471808956,-0.208255130846112
1580421716.45927,-1.02809185931182,-0.00366216525520713,-0.244388494697489
1580421716.46327,-1.02467383840696,0.00854505226214997,-0.245853360799572
1580421716.46726,-1.04274052033265,0.0158693827725642,-0.226810101472495
1580421716.47126,-1.0637369344625,0.0129396505683985,-0.219974059662775
1580421716.47526,-1.08522163729305,-0.00219729915312428,-0.215579461356526
1580421716.47926,-1.10817120622568,-0.00854505226214997,-0.212161440451666
1580421716.48326,-1.12477302204929,-0.00708018616006711,-0.219485770962081
1580421716.48726,-1.12135500114443,0.00268558785381856,-0.223392080567635
1580421716.49126,-1.11012436102846,0.0173342488746471,-0.236087586785686
1580421716.49526,-1.09694056610971,0.0256351567864499,-0.232669565880826
1580421716.49925,-1.09352254520485,0.0295414663920042,-0.224368657969023
1580421716.50326,-1.09547570000763,0.0178225375753414,-0.221927214465552
1580421716.50726,-1.10084687571527,-0.0124513618677042,-0.211673151750972
1580421716.51126,-1.12672617685206,-0.0466315709163041,-0.181399252307926
1580421716.51526,-1.15846494239719,-0.106202792401007,-0.182864118410009
1580421716.51926,-1.19948119325551,-0.168703746089875,-0.206790264744029
1580421716.52326,-1.25709925993744,-0.215579461356526,-0.224368657969023
1580421716.52726,-1.33131914244297,-0.234134431982909,-0.23315785458152
1580421716.53126,-1.42555886167697,-0.242923628595406,-0.253177691309988
1580421716.53525,-1.52907606622415,-0.235599298084992,-0.242923628595406
1580421716.53925,-1.58962386511025,-0.231204699778743,-0.253665980010682
1580421716.54325,-1.60329594872969,-0.301518272678722,-0.32983901731899
1580421716.54725,-1.60573739223316,-0.434821087968261,-0.430426489662013
1580421716.55125,-1.65261310749981,-0.532478828107118,-0.50074006256199
1580421716.55525,-1.73952849622339,-0.531990539406424,-0.49390402075227
1580421716.55925,-1.82156099794003,-0.446540016784924,-0.431403067063401
1580421716.56325,-1.85085831998169,-0.338139925230793,-0.36060120546273
1580421716.56725,-1.80935378042268,-0.252201113908599,-0.339604791332876
1580421716.57124,-1.7214618142977,-0.203860532539863,-0.365484092469673
1580421716.57524,-1.61599145494774,-0.184328984512092,-0.403570611123827
1580421716.57924,-1.51540398260471,-0.168215457389181,-0.436285954070344
1580421716.58322,-1.42946517128252,-0.146730754558632,-0.46314183260853
1580421716.58722,-1.3454795147631,-0.12133974212253,-0.473884184023804
1580421716.59122,-1.26784161135271,-0.096437018387121,-0.48364995803769
1580421716.59522,-1.17213702601663,-0.108644235904478,-0.469489585717556
1580421716.59922,-1.06324864576181,-0.188723582818341,-0.451911192492561
1580421716.60321,-0.970962081330587,-0.314213778896773,-0.42896162355993
1580421716.60721,-0.943129625391013,-0.404058899824522,-0.389410238803693
1580421716.61121,-1.00074769207294,-0.354741741054399,-0.321049820706493
1580421716.61521,-1.08326848249027,-0.11792172121767,-0.221438925764858
1580421716.61921,-1.11354238193332,0.210208285648889,-0.136964980544747
1580421716.62321,-1.08278019378958,0.54615091172656,-0.0803234912642097
1580421716.62721,-0.997329671168078,0.80152590218967,-0.0417486839093613
1580421716.63121,-0.862073701075762,0.894789044022279,-0.0925307087815668
1580421716.63521,-0.730235751888303,0.889417868314641,-0.218997482261386
1580421716.6392,-0.675059128709849,0.857190814068819,-0.301029983978028
1580421716.6432,-0.699961852445258,0.87672236209659,-0.301029983978028
1580421716.6472,-0.742931258106355,0.950453955901427,-0.292729076066225
1580421716.6512,-0.774670023651485,1.0466468299382,-0.276127260242619
1580421716.6552,-0.790783550774396,1.09108110170138,-0.259037155718319
1580421716.6592,-0.78785381857023,1.05738918135348,-0.234134431982909
1580421716.66321,-0.771740291447319,0.957778286411841,-0.200442511635003
1580421716.66721,-0.762951094834822,0.843030441748684,-0.157961394674601
1580421716.67121,-0.763439383535516,0.725841153582056,-0.107179369802395
1580421716.6752,-0.773693446250096,0.617441062027925,-0.0515144579232469
1580421716.6792,-0.79810788128481,0.526619363698789,-0.00219729915312428
1580421716.6832,-0.830823224231327,0.460212100404362,0.0246585793850613
1580421716.6872,-0.861585412375067,0.406500343327991,0.0441901274128327
1580421716.6912,-0.887464713511864,0.364507515068283,0.0720225833524069
1580421716.6952,-0.906507972838941,0.329839017318989,0.0988784618905925
1580421716.6992,-0.916762035553521,0.30151827267872,0.131105516136415
1580421716.70319,-0.931898985275044,0.268314641031509,0.159914549477378
1580421716.70719,-0.950453955901427,0.242435339894712,0.181887541008621
1580421716.71119,-0.974868390936141,0.223392080567635,0.195559624628061
1580421716.71519,-1.00660715648127,0.202883955138475,0.201907377737086
1580421716.71919,-1.03395132372015,0.187258716716258,0.200442511635003
1580421716.72319,-1.05690089265278,0.172610055695429,0.198489356832226
1580421716.72719,-1.0720378423743,0.159426260776684,0.177004654001678
1580421716.73119,-1.08180361638819,0.141847867551689,0.153078507667658
1580421716.73518,-1.08863965819791,0.130617227435721,0.122804608224612
1580421716.73918,-1.08815136949721,0.119874876020447,0.0944838635843439
1580421716.74316,-1.09938200961318,0.11450370031281,0.060303654535744
1580421716.74716,-1.10914778362707,0.108155947203784,0.0314946211947813
1580421716.75116,-1.12672617685206,0.102296482795452,-0.00805676356145568
1580421716.75516,-1.14821087968261,0.0905775539787896,-0.041260395208667
1580421716.75916,-1.16676585030899,0.0803234912642097,-0.0725108720531011
1580421716.76316,-1.18971541924163,0.063721675440604,-0.106202792401007
1580421716.76716,-1.21901274128328,0.044678416113527,-0.128175783932249
1580421716.77115,-1.24782177462425,0.027588311589227,-0.149172198062104
1580421716.77515,-1.28200198367285,0.00708018616006711,-0.172610055695429
1580421716.77915,-1.31813534752422,-0.00854505226214997,-0.185793850614175
1580421716.78315,-1.3542687113756,-0.0246585793850613,-0.204348821240558
1580421716.78715,-1.3884489204242,-0.0422369726100555,-0.210696574349583
1580421716.79115,-1.42458228427558,-0.0700694285496297,-0.214602883955138
1580421716.79515,-1.45583276112001,-0.100343327992675,-0.203860532539863
1580421716.79915,-1.48122377355612,-0.136964980544747,-0.195559624628061
1580421716.80314,-1.50563820859083,-0.176028076600289,-0.178469520103761
1580421716.80714,-1.52077515831235,-0.229739833676661,-0.164309147783626
1580421716.81114,-1.52224002441443,-0.293705653467613,-0.142336156252384
1580421716.81514,-1.51589227130541,-0.369390402075227,-0.117433432516975
1580421716.81914,-1.49880216678111,-0.438727397573816,-0.0891126878767068
1580421716.82315,-1.47096971084154,-0.515388723582818,-0.0666514076447697
1580421716.82715,-1.43630121309224,-0.601815823605707,-0.0642099641412983
1580421716.83115,-1.39870298313878,-0.67750057221332,-0.073975738155184
1580421716.83515,-1.36501106279088,-0.730235751888303,-0.0847180895704582
1580421716.83914,-1.32350652323186,-0.752697032120242,-0.108155947203784
1580421716.84314,-1.27809567406729,-0.752697032120242,-0.142336156252384
1580421716.84714,-1.22438391699092,-0.738536659800106,-0.187747005416952
1580421716.85114,-1.1750667582208,-0.719981689173723,-0.237552452887769
1580421716.85514,-1.13844510566873,-0.696543831540398,-0.278080415045396
1580421716.85914,-1.11744869153887,-0.686289768825818,-0.324467841611353
1580421716.86314,-1.10475318532082,-0.6877546349279,-0.348393987945373
1580421716.86714,-1.10182345311665,-0.693125810635538,-0.385015640497445
1580421716.87113,-1.10035858701457,-0.695078965438315,-0.407476920729382
1580421716.87513,-1.09449912260624,-0.69117265583276,-0.432867933165484
1580421716.87913,-1.08180361638819,-0.685313191424429,-0.450446326390479
1580421716.88313,-1.06520180056458,-0.681406881818875,-0.462165255207141
1580421716.88713,-1.03443961242084,-0.677012283512626,-0.473884184023804
1580421716.89113,-1.00074769207294,-0.685313191424429,-0.471931029221027
1580421716.89513,-0.965102616922255,-0.706797894254978,-0.467536430914778
1580421716.89913,-0.930922407873656,-0.743907835507743,-0.471931029221027
1580421716.90311,-0.892835889219501,-0.788342107270925,-0.466071564812696
1580421716.9071,-0.857190814068819,-0.832776379034105,-0.451911192492561
1580421716.9111,-0.824963759822996,-0.882093537804227,-0.434821087968261
1580421716.9151,-0.800549324788282,-0.922621499961853,-0.425055313954376
1580421716.9191,-0.787365529869536,-0.960708018616007,-0.409430075532159
1580421716.9231,-0.781994354161899,-0.994399938963912,-0.397222858014802
1580421716.9271,-0.786877241168842,-1.01930266269932,-0.390386816205082
1580421716.9311,-0.795178149080645,-1.04029907682918,-0.383062485694667
1580421716.9351,-0.796643015182728,-1.05201800564584,-0.369390402075227
1580421716.9391,-0.795666437781339,-1.05104142824445,-0.346440833142596
1580421716.94309,-0.796643015182728,-1.06324864576181,-0.337163347829405
1580421716.94709,-0.798596169985505,-1.0808270389868,-0.325444419012742
1580421716.95109,-0.799084458686199,-1.09498741130693,-0.315678644998856
1580421716.95509,-0.790783550774396,-1.10524147402151,-0.313725490196079
1580421716.95909,-0.773205157549402,-1.09742885481041,-0.302006561379416
1580421716.96309,-0.756603341725796,-1.07985046158541,-0.278080415045396
1580421716.96709,-0.737560082398717,-1.05494773785,-0.259525444419014
1580421716.97108,-0.716075379568169,-1.03541618982223,-0.246341649500266
1580421716.97508,-0.702403295948729,-1.01588464179446,-0.238529030289158
1580421716.97908,-0.696055542839703,-1.00025940337224,-0.235599298084992
1580421716.98309,-0.699473563744563,-0.976821545738918,-0.271732661936371
1580421716.98709,-0.756603341725796,-0.860120546272984,-0.474860761425193
1580421716.99109,-0.849866483558404,-0.662363622491798,-0.380132753490502
1580421716.99509,-0.840100709544519,-0.618417639429312,-0.272709239337759
1580421716.99909,-0.786877241168842,-0.750743877317465,-0.396734569314107
1580421717.00309,-0.858167391470207,-0.920180056458381,-0.40503547722591
1580421717.00708,-1.05299458304723,-0.970962081330587,-0.0690928511482412
1580421717.01108,-1.35963988708324,-0.611093308918898,0.23999389639124
1580421717.01508,-1.59890135042344,-0.0129396505683985,0.352300297550926
1580421717.01908,-1.60280766002899,0.409918364232851,0.285404745555809
1580421717.02308,-1.45925078202487,0.656504158083468,0.0656748302433812
1580421717.02708,-1.22096589608606,0.723399710078585,-0.221438925764858
1580421717.03108,-1.00172426947433,0.676035706111239,-0.451422903791867
1580421717.03508,-0.886488136110476,0.588143739986268,-0.612069886320286
1580421717.03907,-0.862073701075762,0.470954451819637,-0.761486228732739
1580421717.04307,-0.905043106736859,0.422125581750208,-0.802990768291753
1580421717.04707,-1.02858014801251,0.507087815671017,-0.54175631342031
1580421717.05107,-1.11793698023957,0.507576104371712,-0.320073243305105
1580421717.05507,-1.09938200961318,0.274662394140535,-0.198001068131532
1580421717.05907,-1.0642252231632,-0.0466315709163041,-0.136964980544747
1580421717.06305,-1.0471351186389,-0.274662394140536,-0.130128938735027
1580421717.06705,-1.04371709773404,-0.397711146715496,-0.154055085069047
1580421717.07105,-1.04225223163195,-0.484626535439078,-0.211184863050278
1580421717.07504,-1.0554360265507,-0.556893263141832,-0.231204699778743
1580421717.07904,-1.07789730678263,-0.679942015716792,-0.230228122377355
1580421717.08304,-1.11207751583123,-0.832776379034105,-0.272220950637065
1580421717.08704,-1.19752803845273,-0.933852140077821,-0.252689402609294
1580421717.09104,-1.27370107576104,-0.95533684290837,-0.216556038757915
1580421717.09504,-1.28395513847562,-0.937270160982681,-0.233646143282215
1580421717.09904,-1.25026321812772,-0.858655680170902,-0.245365072098878
1580421717.10304,-1.19850461585412,-0.738048371099412,-0.234134431982909
1580421717.10703,-1.149187457084,-0.592538338292515,-0.215091172655832
1580421717.11103,-1.10865949492637,-0.441168841077287,-0.191653315022506
1580421717.11503,-1.06715495536736,-0.309819180590525,-0.169192034790569
1580421717.11903,-1.00123598077363,-0.239017318989852,-0.183352407110704
1580421717.12303,-0.923598077363241,-0.234134431982909,-0.232181277180132
1580421717.12703,-0.854261081864653,-0.284916456855116,-0.287846189059282
1580421717.13103,-0.823498893720913,-0.358159761959259,-0.32642099641413
1580421717.13503,-0.836194399938964,-0.42554360265507,-0.320561532005799
1580421717.13902,-0.881116960402839,-0.48023193713283,-0.298588540474556
1580421717.14304,-0.940199893186847,-0.514900434882124,-0.248783093003738
1580421717.14703,-0.997329671168078,-0.510017547875181,-0.193606469825284
1580421717.15103,-1.04518196383612,-0.46655985351339,-0.152101930266269
1580421717.15503,-1.07057297627222,-0.400152590218967,-0.145754177157244
1580421717.15903,-1.07106126497291,-0.342046234836348,-0.163332570382238
1580421717.16303,-1.04615854123751,-0.309819180590525,-0.215091172655832
1580421717.16703,-1.0212558175021,-0.288822766460671,-0.265873197528039
1580421717.17103,-1.00904859998474,-0.278080415045396,-0.313725490196079
1580421717.17503,-1.01637293049516,-0.257572289616236,-0.346440833142596
1580421717.17902,-1.0378576333257,-0.218020904859998,-0.352300297550928
1580421717.18302,-1.04322880903334,-0.172121766994735,-0.360112916762036
1580421717.18702,-1.02906843671321,-0.135500114442664,-0.380132753490502
1580421717.19102,-0.998794537270161,-0.125734340428778,-0.409918364232853
1580421717.19502,-0.971450370031281,-0.133058670939192,-0.427008468757153
1580421717.19902,-0.958266575112535,-0.150148775463492,-0.425055313954376
1580421717.20302,-0.954360265506981,-0.173586633096818,-0.421637293049516
1580421717.20702,-0.959243152513924,-0.203860532539863,-0.415777828641184
1580421717.21101,-0.964614328221561,-0.235599298084992,-0.422613870450904
1580421717.21501,-0.974868390936141,-0.265873197528039,-0.415777828641184
1580421717.21901,-0.987563897154192,-0.275638971541925,-0.410894941634242
1580421717.22299,-0.986587319752804,-0.288334477759976,-0.410894941634242
1580421717.22699,-0.972915236133364,-0.309330891889831,-0.417730983443962
1580421717.23099,-0.954848554207675,-0.333745326924545,-0.421637293049516
1580421717.23499,-0.939711604486153,-0.361089494163425,-0.406500343327993
1580421717.23899,-0.941176470588236,-0.379644464789807,-0.381597619592585
1580421717.24299,-0.946059357595178,-0.385503929198139,-0.352788586251622
1580421717.24698,-0.943617914091707,-0.389410238803693,-0.347417410543985
1580421717.25098,-0.942153047989624,-0.383062485694667,-0.332280460822462
1580421717.25498,-0.942153047989624,-0.37085526817731,-0.303959716182193
1580421717.25898,-0.942641336690318,-0.35034714274815,-0.291264209964142
1580421717.26298,-0.945571068894484,-0.330815594720379,-0.289311055161365
1580421717.26698,-0.960708018616007,-0.305424582284276,-0.300053406576639
1580421717.27098,-0.971938658731975,-0.272709239337759,-0.324467841611353
1580421717.27497,-0.990005340657664,-0.224856946669718,-0.335698481727322
1580421717.27897,-1.01002517738613,-0.174563210498206,-0.337163347829405
1580421717.28297,-1.02418554970626,-0.126710917830167,-0.328374151216908
1580421717.28697,-1.02613870450904,-0.099855039291981,-0.321538109407188
1580421717.29097,-1.02516212710765,-0.101808194094758,-0.306401159685665
1580421717.29497,-1.02565041580835,-0.120363164721141,-0.284916456855116
1580421717.29897,-1.03248645761807,-0.146730754558632,-0.262943465323874
1580421717.30298,-1.02760357061112,-0.171145189593346,-0.240482185091935
1580421717.30698,-1.01441977569238,-0.201907377737086,-0.239017318989852
1580421717.31098,-0.99635309376669,-0.221927214465552,-0.241947051194018
1580421717.31497,-0.978774700541695,-0.23999389639124,-0.260013733119708
1580421717.31897,-0.96217288471809,-0.255619134813459,-0.266849774929428
1580421717.32297,-0.940199893186847,-0.279056992446785,-0.269291218432899
1580421717.32697,-0.928480964370184,-0.309330891889831,-0.279056992446785
1580421717.33097,-0.916762035553521,-0.323979552910659,-0.267338063630122
1580421717.33497,-0.906996261539636,-0.330815594720379,-0.253665980010682
1580421717.33897,-0.898695353627833,-0.328862439917602,-0.239505607690546
1580421717.34297,-0.898695353627833,-0.313237201495385,-0.231204699778743
1580421717.34696,-0.907972838941024,-0.288822766460671,-0.231692988479438
1580421717.35096,-0.911390859845884,-0.258548867017625,-0.234622720683603
1580421717.35496,-0.91773861295491,-0.235599298084992,-0.252689402609294
1580421717.35896,-0.913344014648661,-0.232181277180132,-0.293705653467613
1580421717.36296,-0.92115663385977,-0.230228122377355,-0.324956130312048
1580421717.36696,-0.942153047989624,-0.214602883955138,-0.321538109407188
1580421717.37096,-0.974380102235447,-0.185305561913481,-0.317143511100939
1580421717.37496,-0.989028763256275,-0.163820859082932,-0.330327306019685
1580421717.37895,-0.991470206759747,-0.167727168688486,-0.351812008850233
1580421717.38293,-0.995376516365301,-0.179934386205844,-0.349858854047456
1580421717.38693,-1.00611886778058,-0.185305561913481,-0.341557946135653
1580421717.39093,-1.00660715648127,-0.194583047226672,-0.338139925230793
1580421717.39493,-1.00270084687572,-0.214114595254443,-0.347905699244679
1580421717.39893,-1.00270084687572,-0.246341649500266,-0.33667505912871
1580421717.40293,-1.00709544518196,-0.262943465323874,-0.325444419012742
1580421717.40693,-1.01490806439307,-0.260013733119708,-0.323491264209965
1580421717.41092,-1.02027924010071,-0.262943465323874,-0.324956130312048
1580421717.41492,-1.02467383840696,-0.276127260242619,-0.340581368734265
1580421717.41892,-1.02418554970626,-0.302983138780805,-0.355230029755093
1580421717.42292,-1.04078736552987,-0.312260624093996,-0.348393987945373
1580421717.42692,-1.05348287174792,-0.293705653467613,-0.342046234836348
1580421717.43092,-1.05787747005417,-0.242435339894712,-0.347905699244679
1580421717.43492,-1.04225223163195,-0.193606469825284,-0.371343556878005
1580421717.43892,-1.0129549095903,-0.160891126878766,-0.413336385137713
1580421717.44292,-1.00074769207294,-0.147219043259327,-0.428473334859236
1580421717.44691,-1.00807202258335,-0.120851453421835,-0.390386816205082
1580421717.45091,-1.04371709773404,-0.0793469138628211,-0.338139925230793
1580421717.45491,-1.07643244068055,-0.0505378805218584,-0.304936293583582
1580421717.45891,-1.09547570000763,-0.0271000228885327,-0.32300297550927
1580421717.46289,-1.09889372091249,-0.0075684748607614,-0.343999389639125
1580421717.46689,-1.09108110170138,-0.00268558785381856,-0.345952544441902
1580421717.47089,-1.07692072938125,-0.0197756923781185,-0.34009308003357
1580421717.47489,-1.0642252231632,-0.0471198596169984,-0.316655222400245
1580421717.47888,-1.07106126497291,-0.0422369726100555,-0.259525444419014
1580421717.48288,-1.0808270389868,0.0046387426565957,-0.210696574349583
1580421717.48688,-1.06569008926528,0.0476081483176927,-0.216556038757915
1580421717.49088,-1.03883421072709,0.0427252613107498,-0.208743419546806
1580421717.49488,-1.03102159151598,0.0173342488746471,-0.208743419546806
1580421717.49888,-1.03590447852293,-0.0075684748607614,-0.198001068131532
1580421717.50288,-1.05738918135348,-0.0075684748607614,-0.183840695811398
1580421717.50688,-1.08131532768749,0.00268558785381856,-0.192629892423895
1580421717.51087,-1.10719462882429,-0.0134279392690928,-0.231204699778743
1580421717.51487,-1.14381628137636,-0.0354009308003356,-0.244388494697489
1580421717.51887,-1.19264515144579,-0.0661631189440754,-0.2434119172961
1580421717.52287,-1.23903257801175,-0.0969253070878153,-0.248294804303043
1580421717.52687,-1.28200198367285,-0.129152361333638,-0.249271381704432
1580421717.53087,-1.32204165712978,-0.143312733653772,-0.246341649500266
1580421717.53487,-1.34743266956588,-0.142336156252384,-0.248783093003738
1580421717.53887,-1.35719844357977,-0.113038834210727,-0.261478599221791
1580421717.54288,-1.34743266956588,-0.0725108720531011,-0.287357900358588
1580421717.54688,-1.32301823453117,-0.0427252613107498,-0.31958495460441
1580421717.55087,-1.30739299610895,-0.0231937132829785,-0.340581368734265
1580421717.55487,-1.30495155260548,-0.00952162966353853,-0.342046234836348
1580421717.55887,-1.30592813000687,-0.00415045395590141,-0.334721904325933
1580421717.56287,-1.320088502327,0.0046387426565957,-0.312748912794691
1580421717.56687,-1.337666895552,0.0222171358815899,-0.285893034256505
1580421717.57087,-1.3454795147631,0.0271000228885327,-0.280521858548868
1580421717.57487,-1.36159304188602,0.024170290684367,-0.282963302052339
1580421717.57887,-1.36842908369574,0.0153810940718699,-0.283939879453728
1580421717.58286,-1.38991378652628,0.000244144350347142,-0.271732661936371
1580421717.58686,-1.41628137636378,-0.00805676356145568,-0.263431754024568
1580421717.59086,-1.43874265659571,-0.0217288471808956,-0.266849774929428
1580421717.59486,-1.45973907072557,-0.037842374303807,-0.267826352330816
1580421717.59886,-1.49098954757,-0.0461432822156098,-0.277592126344702
1580421717.60286,-1.52077515831235,-0.0354009308003356,-0.276615548943314
1580421717.60686,-1.55593194476234,0.00268558785381856,-0.277103837644008
1580421717.61086,-1.58669413290608,0.0388189517051956,-0.291752498664836
1580421717.61485,-1.61159685664149,0.0788586251621268,-0.296635385671779
1580421717.61885,-1.64089417868315,0.11450370031281,-0.301029983978028
1580421717.62283,-1.65456626230259,0.133546959639887,-0.342046234836348
1580421717.62683,-1.66921492332341,0.138918135347524,-0.344975967040513
1580421717.63083,-1.68191042954147,0.149172198062104,-0.326909285114825
1580421717.63483,-1.7048599984741,0.183352407110704,-0.295658808270391
1580421717.63883,-1.71071946288243,0.238529030289158,-0.272709239337759
1580421717.64283,-1.69314106965743,0.252201113908598,-0.282963302052339
1580421717.64682,-1.65798428320745,0.241458762493323,-0.314702067597468
1580421717.65082,-1.65163653009842,0.241458762493323,-0.298588540474556
1580421717.65482,-1.66140230411231,0.25708400091554,-0.271244373235676
1580421717.65882,-1.66042572671092,0.261966887922483,-0.260013733119708
1580421717.66282,-1.66091401541161,0.240970473792629,-0.242435339894712
1580421717.66682,-1.68337529564355,0.208255130846112,-0.222415503166246
1580421717.67082,-1.72878614480812,0.171145189593346,-0.197024490730143
1580421717.67482,-1.77566186007477,0.136476691844052,-0.188723582818341
1580421717.67881,-1.82302586404212,0.137453269245441,-0.216067750057221
1580421717.68281,-1.87820248722057,0.174074921797512,-0.234134431982909
1580421717.68681,-1.90408178835737,0.186770428015564,-0.344487678339819
1580421717.69081,-1.88894483863584,0.230228122377355,-0.454352635996033
1580421717.69481,-1.88064393072404,0.302494850080109,-0.479255359731441
1580421717.69881,-1.8757610437171,0.357183184557869,-0.51441214618143
1580421717.70282,-1.84646372167544,0.364019226367589,-0.567635614557107
1580421717.70682,-1.77810330357824,0.323979552910657,-0.609140154116121
1580421717.71082,-1.67995727473869,0.281986724650949,-0.648203250171663
1580421717.71482,-1.57009231708247,0.272220950637063,-0.669687953002212
1580421717.71881,-1.43727779049363,0.241458762493323,-0.635996032654306
1580421717.72281,-1.2859082932784,0.132570382238498,-0.600839246204318
1580421717.72681,-1.11696040283818,-0.0549324788281069,-0.604257267109178
1580421717.73081,-0.95191882200351,-0.286381322957199,-0.558358129243915
1580421717.73481,-0.832776379034105,-0.552986953536278,-0.476325627527276
1580421717.73881,-0.840100709544519,-0.768810559243153,-0.430426489662013
1580421717.74281,-0.988052185854887,-0.705821316853589,-0.340581368734265
1580421717.74681,-1.21608300907912,-0.524177920195315,-0.11108567940795
1580421717.7508,-1.31862363622492,-0.424078736552987,-0.131105516136415
1580421717.7548,-1.23756771190967,-0.261478599221791,-0.350835431448845
1580421717.7588,-1.12526131074998,0.0227054245822842,-0.44946974898909
1580421717.7628,-1.0471351186389,0.313237201495383,-0.385992217898833
1580421717.7668,-0.983657587548638,0.52222476539254,-0.315190356298162
1580421717.7708,-0.907972838941024,0.672129396505685,-0.315190356298162
1580421717.7748,-0.825940337224385,0.773693446250096,-0.338139925230793
1580421717.7788,-0.756115053025102,0.82203402761883,-0.350835431448845
1580421717.78278,-0.68091859311818,0.822522316319525,-0.342046234836348
1580421717.78677,-0.594003204394598,0.762462806134128,-0.345464255741208
1580421717.79077,-0.50415808346685,0.661387045090411,-0.342046234836348
1580421717.79477,-0.419195849546044,0.542244602121006,-0.340581368734265
1580421717.79877,-0.345464255741208,0.426520180056457,-0.339604791332876
1580421717.80277,-0.291264209964142,0.319584954604409,-0.327397573815519
1580421717.80677,-0.257572289616236,0.216067750057221,-0.307866025787748
1580421717.81077,-0.237064164187075,0.122804608224612,-0.278568703746091
1580421717.81477,-0.241458762493323,0.0368657969024184,-0.245853360799572
1580421717.81876,-0.269291218432899,-0.0329594872968642,-0.207766842145418
1580421717.82276,-0.305912870984971,-0.067139696345464,-0.174563210498206
1580421717.82676,-0.357671473258565,-0.0754406042572668,-0.139894712748912
1580421717.83076,-0.42212558175021,-0.0583504997329669,-0.112062256809338
1580421717.83476,-0.482673380636301,-0.0295414663920042,-0.0954604409857325
1580421717.83876,-0.526619363698787,-0.00219729915312428,-0.0969253070878153
1580421717.84276,-0.55201037613489,0.0207522697795071,-0.0983901731898982
1580421717.84676,-0.554451819638361,0.0393072404058898,-0.103761348897535
1580421717.85075,-0.55542839703975,0.0607919432364383,-0.0847180895704582
1580421717.85475,-0.554940108339055,0.0876478217746239,-0.0656748302433812
1580421717.85875,-0.56568245975433,0.112062256809338,-0.0441901274128327
1580421717.86276,-0.579354543373769,0.127199206530861,-0.0290531776913099
1580421717.86676,-0.599374380102235,0.120851453421835,-0.0178225375753414
1580421717.87076,-0.623300526436255,0.0949721522850382,-0.0100099183642328
1580421717.87476,-0.652597848477912,0.0495613031204698,0.000732433051041426
1580421717.87876,-0.695567254139009,-0.00366216525520713,0.00854505226214997
1580421717.88276,-0.745372701609826,-0.0642099641412983,0.0212405584802013
1580421717.88675,-0.800549324788282,-0.123292896925307,0.0231937132829785
1580421717.89075,-0.853284504463264,-0.174563210498206,0.0212405584802013
1580421717.89475,-0.906019684138247,-0.222415503166246,0.0202639810788128
1580421717.89875,-0.947035934996567,-0.260013733119708,0.00268558785381856
1580421717.90275,-0.978774700541695,-0.291752498664836,-0.0163576714732585
1580421717.90675,-1.00563057907988,-0.302494850080111,-0.0358892195010299
1580421717.91075,-1.02516212710765,-0.295658808270391,-0.0583504997329669
1580421717.91475,-1.04127565423056,-0.270756084534982,-0.0876478217746239
1580421717.91875,-1.0637369344625,-0.23315785458152,-0.123781185626001
1580421717.92274,-1.09840543221179,-0.196047913328755,-0.143801022354467
1580421717.92674,-1.14625772487983,-0.157473105973907,-0.165285725185015
1580421717.93074,-1.20534065766384,-0.12475776302739,-0.189211871519035
1580421717.93474,-1.2771190966659,-0.106202792401007,-0.214114595254443
1580421717.93874,-1.34352635996033,-0.105714503700312,-0.235599298084992
1580421717.94272,-1.41579308766308,-0.108644235904478,-0.247318226901655
1580421717.94672,-1.48122377355612,-0.128175783932249,-0.243900205996795
1580421717.95072,-1.53493553063249,-0.163332570382238,-0.246341649500266
1580421717.95471,-1.58034637979705,-0.210696574349583,-0.257084000915542
1580421717.95871,-1.62673380636301,-0.261966887922485,-0.269291218432899
1580421717.96271,-1.67702754253452,-0.306889448386359,-0.295658808270391
1580421717.96671,-1.73513389791714,-0.347905699244679,-0.320561532005799
1580421717.97071,-1.79372854200046,-0.385503929198139,-0.334721904325933
1580421717.97471,-1.84841687647822,-0.441657129777981,-0.360112916762036
1580421717.97871,-1.89089799343862,-0.502693217364767,-0.369390402075227
1580421717.98271,-1.9099412527657,-0.563729304951552,-0.354253452353705
1580421717.9867,-1.91482413977264,-0.630624856946669,-0.351812008850233
1580421717.9907,-1.89724574654765,-0.71509880216678,-0.360112916762036
1580421717.9947,-1.87185473411154,-0.79810788128481,-0.364507515068285
1580421717.9987,-1.83572137026017,-0.882093537804227,-0.369390402075227
1580421718.0027,-1.80984206912337,-0.985610742351415,-0.377203021286336
1580421718.0067,-1.79714656290532,-1.10914778362707,-0.384039063096056
1580421718.0107,-1.80398260471504,-1.24733348592355,-0.383062485694667
1580421718.0147,-1.832791638056,-1.40358587014572,-0.382085908293279
1580421718.01869,-1.86501869230182,-1.54714274814984,-0.390386816205082
1580421718.0227,-1.87771419851988,-1.66726176852064,-0.416754406042573
1580421718.0267,-1.85329976348516,-1.75075913633936,-0.449958037689784
1580421718.0307,-1.78933394369421,-1.79421683070115,-0.505134660868238
1580421718.0347,-1.69118791485466,-1.80984206912337,-0.557869840543221
1580421718.0387,-1.57790493629358,-1.8074006256199,-0.625253681239032
1580421718.0427,-1.45632104982071,-1.81033035782406,-0.695567254139009
1580421718.0467,-1.33522545204852,-1.81960784313726,-0.756603341725796
1580421718.0507,-1.22340733958953,-1.84646372167544,-0.79810788128481
1580421718.05469,-1.10914778362707,-1.87478446631571,-0.831311512932022
1580421718.05869,-0.982192721446555,-1.90505836575876,-0.902113374532693
1580421718.06269,-0.894300755321584,-1.94119172961013,-0.947035934996567
1580421718.06669,-0.82887006942855,-1.99099717708095,-0.958266575112535
1580421718.07069,-0.782482642862593,-2.03640802624552,-0.956313420309758
1580421718.07469,-0.758556496528573,-2.07498283360037,-0.927016098268101
1580421718.07869,-0.751232166018159,-2.1145342183566,-0.85279621576257
1580421718.08269,-0.743419546807049,-2.13748378728923,-0.760509651331351
1580421718.08668,-0.734142061493857,-2.14773785000381,-0.656504158083466
1580421718.09068,-0.730235751888303,-2.14822613870451,-0.553963530937667
1580421718.09468,-0.734630350194552,-2.13406576638437,-0.472907606622416
1580421718.09868,-0.736095216296635,-2.11160448615244,-0.388433661402305
1580421718.10266,-0.748302433813992,-2.08377203021286,-0.309819180590525
1580421718.10666,-0.755138475623713,-2.05593957427329,-0.263920042725262
1580421718.11066,-0.758556496528573,-2.04129091325246,-0.219485770962081
1580421718.11466,-0.77076371404593,-2.03103685053788,-0.173586633096818
1580421718.11866,-0.797131303883422,-2.00173952849622,-0.125734340428778
1580421718.12265,-0.953871976806287,-1.88015564202335,-0.113527122911421
1580421718.12665,-1.11012436102846,-1.77761501487755,-0.338628213931488
1580421718.13065,-1.15211718928817,-1.21315327687495,-0.211673151750972
1580421718.13465,-1.13795681696803,-0.829358358129245,0.0642099641412983
1580421718.13865,-0.997329671168078,-0.977309834439613,-0.257084000915542
1580421718.14265,-1.13014419775692,-0.932387273975738,-0.571541924162661
1580421718.14665,-1.5168688487068,-0.0539559014267184,-0.195559624628061
1580421718.15065,-1.81130693522545,1.1320973525597,0.526131074998094
1580421718.15464,-1.94460975051499,1.98806744487678,0.876234073395896
1580421718.15864,-1.9016403448539,2.06472877088579,0.772716868848708
1580421718.16264,-1.68923476005188,1.50514991989014,0.558358129243917
1580421718.16664,-1.39333180743114,0.748790722514688,0.248783093003738
1580421718.17064,-1.13307392996109,0.0769054703593497,-0.139406424048218
1580421718.17464,-0.995864805065995,-0.389898527504387,-0.690684367132066
1580421718.17864,-1.01588464179446,-0.580819409475852,-1.04274052033265
1580421718.18265,-1.18190280003052,-0.537850003814755,-0.744884412909132
1580421718.18665,-1.32399481193256,-0.485114824139773,-0.429449912260624
1580421718.19064,-1.27565423056382,-0.609628442816815,-0.44263370717937
1580421718.19464,-1.20436408026245,-0.769298847943848,-0.622323949034866
1580421718.19864,-1.23512626840619,-0.815686274509805,-0.611093308918898
1580421718.20264,-1.28053711757076,-0.815686274509805,-0.661387045090409
1580421718.20664,-1.37526512550546,-0.861585412375067,-0.593514915693904
1580421718.21064,-1.54518959334707,-0.991958495460441,-0.403570611123827
1580421718.21464,-1.75466544594492,-1.14430457007706,-0.332768749523156
1580421718.21864,-1.89333943694209,-1.30153353170062,-0.292729076066225
1580421718.22264,-1.91580071717403,-1.37917143511101,-0.106202792401007
1580421718.22663,-1.84890516517891,-1.28493171587701,0.0236820019836728
1580421718.23063,-1.71218432898451,-1.12574959945067,0.118410009918364
1580421718.23463,-1.54714274814984,-0.945571068894484,0.162844281681544
1580421718.23863,-1.34840924696727,-0.775158312352179,0.119386587319752
1580421718.24263,-1.10719462882429,-0.652109559777218,0.00659189745937283
1580421718.24663,-0.848401617456322,-0.582772564278629,-0.140383001449607
1580421718.25063,-0.627206836041809,-0.544686045624475,-0.307377737087053
1580421718.25462,-0.49390402075227,-0.540291447318227,-0.430914778362707
1580421718.25862,-0.46655985351339,-0.53833829251545,-0.47339589532311
1580421718.2626,-0.527107652399481,-0.529060807202258,-0.46314183260853
1580421718.2666,-0.618417639429312,-0.51441214618143,-0.403082322423133
1580421718.2706,-0.684824902723735,-0.49390402075227,-0.360112916762036
1580421718.2746,-0.727794308384832,-0.484626535439078,-0.34692912184329
1580421718.2786,-0.778088044556345,-0.47339589532311,-0.365972381170367
1580421718.2826,-0.84596017395285,-0.449958037689784,-0.375249866483559
1580421718.2866,-0.925062943465324,-0.393804837109942,-0.385992217898833
1580421718.29059,-1.0041657129778,-0.320073243305105,-0.398687724116884
1580421718.29459,-1.06471351186389,-0.239017318989852,-0.433356221866179
1580421718.29859,-1.11744869153887,-0.159426260776684,-0.462653543907836
1580421718.30259,-1.15358205539025,-0.0900892652780954,-0.481696803234913
1580421718.30659,-1.18483253223468,-0.037842374303807,-0.461188677805753
1580421718.31059,-1.19411001754787,-0.0178225375753414,-0.416754406042573
1580421718.31459,-1.18776226443885,-0.0417486839093613,-0.379644464789807
1580421718.31859,-1.17164873731594,-0.0959487296864268,-0.345952544441902
1580421718.32258,-1.15700007629511,-0.169192034790569,-0.307377737087053
1580421718.32658,-1.1579766536965,-0.244388494697489,-0.265384908827345
1580421718.33058,-1.14137483787289,-0.317631799801633,-0.259525444419014
1580421718.33458,-1.11451895933471,-0.381597619592585,-0.265384908827345
1580421718.33858,-1.06471351186389,-0.42896162355993,-0.288822766460671
1580421718.34256,-1.01051346608682,-0.46314183260853,-0.318120088502328
1580421718.34656,-0.977309834439613,-0.465094987411307,-0.317143511100939
1580421718.35056,-0.954848554207675,-0.427008468757153,-0.297123674372473
1580421718.35456,-0.931898985275044,-0.369390402075227,-0.269291218432899
1580421718.35855,-0.91773861295491,-0.313237201495385,-0.260013733119708
1580421718.36255,-0.901136797131304,-0.269291218432899,-0.298100251773862
1580421718.36655,-0.886488136110476,-0.244388494697489,-0.32642099641413
1580421718.37055,-0.883070115205616,-0.239505607690546,-0.34009308003357
1580421718.37455,-0.895765621423667,-0.232181277180132,-0.33667505912871
1580421718.37855,-0.91432059205005,-0.211673151750972,-0.342534523537042
1580421718.38255,-0.924086366063936,-0.197024490730143,-0.361089494163425
1580421718.38655,-0.917250324254216,-0.195071335927366,-0.373785000381476
1580421718.39054,-0.923598077363241,-0.211184863050278,-0.385503929198139
1580421718.39454,-0.932387273975738,-0.230716411078049,-0.405523765926604
1580421718.39854,-0.950453955901427,-0.229251544975966,-0.40161745632105
1580421718.40254,-0.978774700541695,-0.198489356832226,-0.363042648966202
1580421718.40654,-1.00074769207294,-0.156008239871824,-0.322026398107882
1580421718.41054,-0.993423361562524,-0.113527122911421,-0.296635385671779
1580421718.41454,-0.978286411841001,-0.0700694285496297,-0.315190356298162
1580421718.41854,-0.971450370031281,-0.0368657969024184,-0.306401159685665
1580421718.42255,-0.96217288471809,-0.00659189745937283,-0.297611963073168
1580421718.42654,-0.94850080109865,0.0158693827725642,-0.302494850080111
1580421718.43054,-0.933852140077821,0.024170290684367,-0.297611963073168
1580421718.43454,-0.921644922560464,0.027588311589227,-0.300053406576639
1580421718.43854,-0.90748455024033,-0.00268558785381856,-0.296147096971085
1580421718.44254,-0.894789044022279,-0.0690928511482412,-0.269291218432899
1580421718.44654,-0.906996261539636,-0.146730754558632,-0.239017318989852
1580421718.45054,-0.933852140077821,-0.217532616159303,-0.216067750057221
1580421718.45454,-0.948012512397955,-0.275638971541925,-0.230228122377355
1580421718.45853,-0.947524223697261,-0.339604791332876,-0.252201113908599
1580421718.46253,-0.947035934996567,-0.39478141451133,-0.23999389639124
1580421718.46653,-0.952895399404898,-0.419684138246739,-0.231692988479438
1580421718.47053,-0.96559090562295,-0.416266117341879,-0.24682993820096
1580421718.47453,-0.974380102235447,-0.391851682307164,-0.286869611657893
1580421718.47853,-0.976821545738918,-0.353276874952316,-0.330815594720379
1580421718.48253,-0.987563897154192,-0.322026398107882,-0.347905699244679
1580421718.48653,-1.00025940337224,-0.317631799801633,-0.34351110093843
1580421718.49053,-1.02272068360418,-0.325932707713436,-0.331303883421073
1580421718.49452,-1.05934233615625,-0.339604791332876,-0.302494850080111
1580421718.49852,-1.1062180514229,-0.32983901731899,-0.265873197528039
1580421718.5025,-1.14137483787289,-0.318608377203022,-0.275638971541925
1580421718.5065,-1.13160906385901,-0.311284046692608,-0.298100251773862
1580421718.5105,-1.12281986724651,-0.312260624093996,-0.292729076066225
1580421718.5145,-1.11598382543679,-0.281498435950256,-0.283451590753033
1580421718.5185,-1.10963607232776,-0.211673151750972,-0.249271381704432
1580421718.5225,-1.09742885481041,-0.128664072632944,-0.270756084534982
1580421718.52649,-1.06959639887083,-0.0666514076447697,-0.283451590753033
1580421718.53049,-1.06129549095903,-0.027588311589227,-0.304448004882888
1580421718.53449,-1.05494773785,-0.00366216525520713,-0.306889448386359
1580421718.53849,-1.05885404745556,-0.00854505226214997,-0.287846189059282
1580421718.54249,-1.06813153276875,-0.0314946211947813,-0.266849774929428
1580421718.54649,-1.07936217288472,-0.0593270771343555,-0.241947051194018
1580421718.55049,-1.08473334859235,-0.0910658426794839,-0.231204699778743
1580421718.55449,-1.08863965819791,-0.116945143816281,-0.210208285648889
1580421718.55849,-1.08619821469444,-0.127199206530861,-0.180422674906538
1580421718.56248,-1.07740901808194,-0.11450370031281,-0.173586633096818
1580421718.56648,-1.0720378423743,-0.0974135957885096,-0.177981231403066
1580421718.57048,-1.072526131075,-0.0754406042572668,-0.186770428015564
1580421718.57448,-1.08278019378958,-0.0456549935149155,-0.184328984512092
1580421718.57848,-1.11744869153887,-0.00415045395590141,-0.204348821240558
1580421718.58246,-1.14625772487983,0.0187991149767299,-0.208743419546806
1580421718.58646,-1.1833676661326,0.0148928053711757,-0.200442511635003
1580421718.59046,-1.23756771190967,0.00659189745937283,-0.184328984512092
1580421718.59445,-1.28883802548257,-0.0104982070649271,-0.180422674906538
1580421718.59845,-1.31862363622492,-0.0251468680857556,-0.162355992980849
1580421718.60245,-1.34450293736172,-0.0192874036774242,-0.142824444953078
1580421718.60645,-1.36110475318532,0.0114747844663157,-0.152101930266269
1580421718.61045,-1.36110475318532,0.048096437018387,-0.162844281681544
1580421718.61445,-1.36208133058671,0.0793469138628211,-0.175051499198901
1580421718.61845,-1.37770656900893,0.0954604409857325,-0.180910963607232
1580421718.62245,-1.3972381170367,0.0969253070878153,-0.171633478294041
1580421718.62644,-1.42848859388113,0.0959487296864268,-0.155519951171129
1580421718.63044,-1.46266880292973,0.0881361104753182,-0.169680323491264
1580421718.63444,-1.48073548485542,0.0534676127260241,-0.191653315022506
1580421718.63844,-1.49440756847486,0.0163576714732585,-0.209719996948195
1580421718.64244,-1.51247425040055,-0.0104982070649271,-0.224856946669718
1580421718.64644,-1.54518959334707,-0.00903334096284425,-0.216556038757915
1580421718.65044,-1.56960402838178,0.00610360875867855,-0.229251544975966
1580421718.65444,-1.58034637979705,0.027588311589227,-0.260013733119708
1580421718.65843,-1.59597161821927,0.0495613031204698,-0.271244373235676
1580421718.66241,-1.61647974364843,0.0681162737468526,-0.281498435950256
1580421718.66641,-1.64187075608453,0.0847180895704582,-0.294682230869002
1580421718.67041,-1.68581673914702,0.103761348897535,-0.319096665903716
1580421718.67441,-1.73366903181506,0.114015411612115,-0.34009308003357
1580421718.67841,-1.77663843747616,0.108644235904478,-0.364995803768979
1580421718.68241,-1.82986190585184,0.116945143816281,-0.403082322423133
1580421718.68641,-1.8757610437171,0.142336156252384,-0.42896162355993
1580421718.6904,-1.90505836575876,0.187258716716258,-0.439703974975204
1580421718.6944,-1.92166018158236,0.2605020218204,-0.442145418478676
1580421718.6984,-1.91970702677958,0.338139925230792,-0.454352635996033
1580421718.7024,-1.90408178835737,0.405523765926603,-0.455817502098116
1580421718.7064,-1.89626916914626,0.475349050125885,-0.447028305485619
1580421718.7104,-1.89626916914626,0.551033798733503,-0.42212558175021
1580421718.7144,-1.89871061264973,0.620859082932785,-0.397222858014802
1580421718.7184,-1.87722590981918,0.650156404974442,-0.393804837109942
1580421718.7224,-1.8415808346685,0.605722133211263,-0.337651636530099
1580421718.72639,-1.8240024414435,0.523689631494623,-0.246341649500266
1580421718.73039,-1.83718623636225,0.439215686274508,-0.178957808804455
1580421718.73439,-1.8669718471046,0.338139925230792,-0.169192034790569
1580421718.73839,-1.89089799343862,0.23657587548638,-0.183352407110704
1580421718.7424,-1.9187304493782,0.194583047226672,-0.222903791866941
1580421718.7464,-1.95046921492332,0.184328984512092,-0.284428168154422
1580421718.7504,-1.97683680476081,0.184817273212786,-0.37085526817731
1580421718.7544,-2.00125123979553,0.229251544975966,-0.433356221866179
1580421718.7584,-2.00125123979553,0.261478599221789,-0.516853589684901
1580421718.76239,-1.95339894712749,0.266361486228732,-0.617929350728618
1580421718.76639,-1.85964751659419,0.268802929732203,-0.69800869764248
1580421718.77039,-1.72585641260395,0.262455176623178,-0.74586099031052
1580421718.77439,-1.54909590295262,0.234134431982909,-0.691660944533455
1580421718.77839,-1.35622186617838,0.195071335927366,-0.655039291981383
1580421718.78239,-1.13356221866178,0.0202639810788128,-0.537850003814755
1580421718.78639,-0.915785458152133,-0.309819180590525,-0.478278782330053
1580421718.79039,-0.803479056992447,-0.779064621957733,-0.512947280079347
1580421718.79438,-0.845471885252156,-1.04176394293126,-0.568612191958495
1580421718.79838,-0.946059357595178,-0.929457541771573,-0.39819943541619
1580421718.80238,-1.12770275425345,-0.838635843442436,-0.40503547722591
1580421718.80638,-1.15553521019303,-0.73218890669108,-0.701915007248035
1580421718.81038,-1.0129549095903,-0.440680552376593,-0.861097123674373
1580421718.81438,-0.864026855878539,-0.0437018387121384,-0.812268253604945
1580421718.81838,-0.787365529869536,0.286381322957197,-0.696055542839703
1580421718.82236,-0.746349279011215,0.546639200427254,-0.574959945067521
1580421718.82636,-0.715587090867475,0.754161898222325,-0.482185091935607
1580421718.83035,-0.69800869764248,0.895277332722973,-0.41870756084535
1580421718.83435,-0.694102388036926,0.950942244602121,-0.365484092469673
1580421718.83835,-0.663828488593881,0.903578240634776,-0.316655222400245
1580421718.84235,-0.594491493095292,0.779552910658428,-0.271244373235676
1580421718.84635,-0.516853589684901,0.654551003280691,-0.249271381704432
1580421718.85035,-0.43921568627451,0.543709468223089,-0.275150682841231
1580421718.85435,-0.37085526817731,0.446051728084228,-0.312748912794691
1580421718.85835,-0.306889448386359,0.356694895857174,-0.345464255741208
1580421718.86234,-0.253665980010682,0.277103837644006,-0.351812008850233
1580421718.86634,-0.215091172655832,0.198001068131532,-0.348882276646068
1580421718.87034,-0.196047913328755,0.112062256809338,-0.334721904325933
1580421718.87434,-0.190676737621118,0.0280766002899213,-0.302494850080111
1580421718.87834,-0.195071335927366,-0.044678416113527,-0.260990310521096
1580421718.88234,-0.213626306553749,-0.103761348897535,-0.203860532539863
1580421718.88634,-0.24682993820096,-0.140383001449607,-0.131593804837109
1580421718.89034,-0.301029983978028,-0.155519951171129,-0.0690928511482412
1580421718.89433,-0.368902113374533,-0.142824444953078,-0.027588311589227
1580421718.89833,-0.448493171587701,-0.11108567940795,-0.0075684748607614
1580421718.90234,-0.540779736018921,-0.0744640268558783,0.00805676356145568
1580421718.90634,-0.616464484626535,-0.0363775082017241,0.0451667048142212
1580421718.91034,-0.662851911192492,-0.00366216525520713,0.077393759060044
1580421718.91434,-0.674570840009155,0.0158693827725642,0.124269474326695
1580421718.91834,-0.667734798199435,0.0319829098954756,0.157473105973907
1580421718.92234,-0.670664530403601,0.0373540856031127,0.170168612191958
1580421718.92634,-0.672129396505683,0.0300297550926985,0.147707331960021
1580421718.93034,-0.675547417410543,0.00659189745937283,0.115968566414892
1580421718.93433,-0.691660944533455,-0.0178225375753414,0.0944838635843439
1580421718.93833,-0.719493400473029,-0.041260395208667,0.0817883573662925
1580421718.94233,-0.760021362630656,-0.0554207675288012,0.0754406042572668
1580421718.94633,-0.812756542305639,-0.0749523155565726,0.0646982528419926
1580421718.95033,-0.872816052491036,-0.10083161669337,0.0554207675288012
1580421718.95433,-0.940688181887541,-0.134523537041275,0.0461432822156098
1580421718.95833,-1.00709544518196,-0.178469520103761,0.0349126420996413
1580421718.96232,-1.07350270847639,-0.223880369268329,0.0192874036774242
1580421718.96632,-1.13942168307011,-0.262455176623179,0.00268558785381856
1580421718.97032,-1.20338750286107,-0.301518272678722,-0.0153810940718699
1580421718.97432,-1.26637674525063,-0.325932707713436,-0.027588311589227
1580421718.97832,-1.32301823453117,-0.358159761959259,-0.0485847257190812
1580421718.9823,-1.37624170290684,-0.38794537270161,-0.0876478217746239
1580421718.9863,-1.42995345998322,-0.429938200961319,-0.120851453421835
1580421718.9903,-1.48415350576028,-0.475349050125887,-0.167238879987792
1580421718.9943,-1.52712291142138,-0.50757610437171,-0.226321812771801
1580421718.99829,-1.55593194476234,-0.517341878385595,-0.281986724650951
1580421719.00229,-1.57692835889219,-0.512947280079347,-0.310307469291219
1580421719.00629,-1.59011215381094,-0.498786907759213,-0.325932707713436
1580421719.01029,-1.61501487754635,-0.488044556343938,-0.339604791332876
1580421719.01429,-1.65554283970397,-0.495857175555047,-0.357671473258565
1580421719.01829,-1.70095368886854,-0.510017547875181,-0.363530937666896
1580421719.02229,-1.76003662165255,-0.533455405508507,-0.365484092469673
1580421719.02629,-1.81374837872892,-0.579354543373769,-0.388921950102999
1580421719.03028,-1.85720607309072,-0.656504158083466,-0.40161745632105
1580421719.03428,-1.87771419851988,-0.760021362630656,-0.411383230334936
1580421719.03828,-1.88503852903029,-0.877698939497979,-0.386968795300222
1580421719.04228,-1.88015564202335,-0.987075608453498,-0.359136339360647
1580421719.04628,-1.8669718471046,-1.09401083390555,-0.341557946135653
1580421719.05028,-1.85329976348516,-1.19899290455482,-0.333745326924545
1580421719.05428,-1.85622949568933,-1.32545967803464,-0.319096665903716
1580421719.05828,-1.86892500190738,-1.4655985351339,-0.298100251773862
1580421719.06229,-1.89578088044556,-1.62087434195468,-0.276127260242619
1580421719.06628,-1.90408178835737,-1.7815213244831,-0.261966887922485
1580421719.07028,-1.87869077592126,-1.92263675898375,-0.253665980010682
1580421719.07428,-1.81814297703517,-2.03299000534066,-0.249759670405126
1580421719.07828,-1.71755550469215,-2.09500267032883,-0.221927214465552
1580421719.08228,-1.60085450522621,-2.12625314717327,-0.243900205996795
1580421719.08628,-1.45290302891585,-2.15457389181353,-0.35034714274815
1580421719.09028,-1.29079118028534,-2.18142977035172,-0.45630579079881
1580421719.09428,-1.15211718928817,-2.21316853589685,-0.54859235523003
1580421719.09827,-1.01539635309377,-2.22244602121004,-0.636972610055695
1580421719.10227,-0.903578240634776,-2.21365682459754,-0.732677195391775
1580421719.10627,-0.832776379034105,-2.21170366979477,-0.795666437781339
1580421719.11027,-0.783459220263982,-2.22488746471351,-0.827893492027162
1580421719.11427,-0.730235751888303,-2.2429541466392,-0.842053864347296
1580421719.11827,-0.712169069962615,-2.27566948958572,-0.824475471122302
1580421719.12227,-0.702891584649423,-2.29324788281071,-0.761486228732739
1580421719.12627,-0.704356450751506,-2.27615777828641,-0.667246509498741
1580421719.13026,-0.713633936064697,-2.24100099183642,-0.572518501564049
1580421719.13426,-0.728282597085526,-2.19363698786908,-0.490974288548104
1580421719.13826,-0.753185320820936,-2.15555046921492,-0.42554360265507
1580421719.14224,-0.784924086366065,-2.12820630197604,-0.376226443884947
1580421719.14624,-0.821545738918136,-2.10818646524758,-0.324956130312048
1580421719.15024,-0.858167391470207,-2.0974441138323,-0.270267795834288
1580421719.15424,-0.889906157015336,-2.08377203021286,-0.234622720683603
1580421719.15824,-1.07057297627222,-1.96023498893721,-0.228274967574578
1580421719.16224,-1.19362172884718,-1.85964751659419,-0.431891355764096
1580421719.16623,-1.19118028534371,-1.3796597238117,-0.339604791332876
1580421719.17023,-1.09059281300069,-1.26491187914855,-0.165774013885709
1580421719.17423,-0.996841382467384,-1.414328221561,-0.497810330357824
1580421719.17823,-1.18580910963607,-1.3713588158999,-0.506111238269627
1580421719.18223,-1.58034637979705,-0.594003204394598,-0.139406424048218
1580421719.18623,-1.81716639963378,0.377203021286334,0.271244373235675
1580421719.19023,-1.77517357137408,1.00123598077363,0.443610284580757
1580421719.19423,-1.57546349279011,1.22487220569161,0.286381322957197
1580421719.19823,-1.29762722209506,1.07789730678263,0.0896009765774011
1580421719.20222,-1.02906843671321,0.666269932097354,-0.108155947203784
1580421719.20622,-0.865491721980622,0.148683909361409,-0.297123674372473
1580421719.21022,-0.838635843442436,-0.304936293583582,-0.445563439383536
1580421719.21422,-0.944106202792401,-0.604745555809872,-0.661387045090409
1580421719.21822,-1.13258564126039,-0.668223086900129,-0.730235751888303
1580421719.22223,-1.35524528877699,-0.455817502098116,-0.343022812237736
1580421719.22623,-1.396749828336,-0.320561532005799,-0.159426260776684
1580421719.23023,-1.29372091248951,-0.379156176089113,-0.276127260242619
1580421719.23423,-1.19118028534371,-0.531013962005035,-0.550057221332112
1580421719.23822,-1.15407034409094,-0.581795986877241,-0.681895170519569
1580421719.24222,-1.17946135652705,-0.583749141680018,-0.771740291447319
1580421719.24622,-1.25123979552911,-0.604257267109178,-0.755138475623713
1580421719.25022,-1.36549935149157,-0.700450141145952,-0.595956359197375
1580421719.25422,-1.50222018768597,-0.83570611123827,-0.41870756084535
1580421719.25822,-1.63308155947204,-0.947524223697261,-0.341069657434959
1580421719.26222,-1.66042572671092,-1.0212558175021,-0.199465934233615
1580421719.26621,-1.59304188601511,-0.996841382467384,-0.0661631189440754
1580421719.27021,-1.48561837186236,-0.891371023117419,-0.0212405584802013
1580421719.27421,-1.34987411306935,-0.765392538338293,0.0104982070649271
1580421719.27821,-1.21998931868467,-0.642832074464026,0.0407721065079727
1580421719.28221,-1.09108110170138,-0.551033798733501,0.0187991149767299
1580421719.28621,-0.948989089799344,-0.499763485160601,-0.0407721065079727
1580421719.29021,-0.798596169985505,-0.508552681773098,-0.11450370031281
1580421719.29421,-0.695078965438315,-0.543709468223087,-0.186282139314869
1580421719.2982,-0.669199664301518,-0.570565346761272,-0.244876783398183
1580421719.30218,-0.719981689173723,-0.583260852979324,-0.267826352330816
1580421719.30618,-0.811291676203556,-0.582772564278629,-0.265873197528039
1580421719.31018,-0.892347600518807,-0.573006790264744,-0.269291218432899
1580421719.31418,-0.926039520866713,-0.557381551842527,-0.281986724650951
1580421719.31818,-0.952407110704204,-0.519783321889067,-0.292240787365531
1580421719.32218,-0.987075608453498,-0.460212100404364,-0.282475013351645
1580421719.32618,-1.01832608529793,-0.393804837109942,-0.323491264209965
1580421719.33018,-1.02760357061112,-0.328862439917602,-0.400640878919662
1580421719.33417,-1.02809185931182,-0.262943465323874,-0.481696803234913
1580421719.33817,-1.05397116044862,-0.189700160219729,-0.515388723582818
1580421719.34217,-1.09596398870832,-0.123292896925307,-0.499275196459907
1580421719.34617,-1.13453879606317,-0.0612802319371326,-0.46997787441825
1580421719.35017,-1.15602349889372,-0.0217288471808956,-0.466071564812696
1580421719.35417,-1.15700007629511,-0.0251468680857556,-0.467048142214084
1580421719.35817,-1.14576943617914,-0.0695811398489354,-0.462653543907836
1580421719.36217,-1.13746852826734,-0.108155947203784,-0.434821087968261
1580421719.36616,-1.13258564126039,-0.138918135347524,-0.396246280613413
1580421719.37016,-1.11061264972915,-0.184328984512092,-0.373785000381476
1580421719.37416,-1.07496757457847,-0.247806515602349,-0.361089494163425
1580421719.37816,-1.0378576333257,-0.310795757991913,-0.348393987945373
1580421719.38214,-1.0041657129778,-0.37085526817731,-0.33667505912871
1580421719.38614,-0.978774700541695,-0.419684138246739,-0.313237201495385
1580421719.39014,-0.966079194323644,-0.448981460288396,-0.271244373235676
1580421719.39414,-0.957289997711147,-0.460700389105059,-0.226810101472495
1580421719.39814,-0.960708018616007,-0.44946974898909,-0.183352407110704
1580421719.40213,-0.971450370031281,-0.400152590218967,-0.186282139314869
1580421719.40613,-0.967544060425727,-0.341557946135653,-0.23999389639124
1580421719.41013,-0.944594491493095,-0.292729076066225,-0.274662394140536
1580421719.41413,-0.927016098268101,-0.256595712214848,-0.295658808270391
1580421719.41813,-0.92457465476463,-0.232181277180132,-0.323491264209965
1580421719.42213,-0.935805294880598,-0.198977645532921,-0.332768749523156
1580421719.42613,-0.944594491493095,-0.174074921797512,-0.32642099641413
1580421719.43013,-0.943129625391013,-0.165774013885709,-0.338139925230793
1580421719.43412,-0.952407110704204,-0.177004654001678,-0.318608377203022
1580421719.43812,-0.967055771725033,-0.189211871519035,-0.299076829175251
1580421719.44212,-0.980727855344472,-0.194583047226672,-0.301518272678722
1580421719.44612,-0.98609903105211,-0.192141603723201,-0.331303883421073
1580421719.45012,-0.983657587548638,-0.171633478294041,-0.347417410543985
1580421719.45412,-0.968032349126421,-0.146242465857938,-0.338139925230793
1580421719.45812,-0.955825131609064,-0.129152361333638,-0.312260624093996
1580421719.46213,-0.952407110704204,-0.122804608224612,-0.301029983978028
1580421719.46613,-0.949965667200733,-0.126222629129472,-0.291752498664836
1580421719.47012,-0.947524223697261,-0.156496528572518,-0.286381322957199
1580421719.47412,-0.942153047989624,-0.193118181124589,-0.287846189059282
1580421719.47812,-0.936781872281987,-0.245853360799572,-0.280033569848174
1580421719.48212,-0.927504386968796,-0.286869611657893,-0.271732661936371
1580421719.48612,-0.917250324254216,-0.309819180590525,-0.268802929732205
1580421719.49012,-0.921644922560464,-0.309819180590525,-0.278080415045396
1580421719.49412,-0.936781872281987,-0.285893034256505,-0.283451590753033
1580421719.49812,-0.949477378500038,-0.248294804303043,-0.306401159685665
1580421719.50212,-0.961196307316701,-0.2434119172961,-0.306889448386359
1580421719.50611,-0.97926298924239,-0.248294804303043,-0.314213778896773
1580421719.51011,-1.00074769207294,-0.257084000915542,-0.309819180590525
1580421719.51411,-1.03053330281529,-0.284428168154422,-0.289311055161365
1580421719.51811,-1.05885404745556,-0.32642099641413,-0.274174105439842
1580421719.52211,-1.06813153276875,-0.362066071564813,-0.269291218432899
1580421719.52611,-1.06031891355764,-0.378179598687725,-0.266849774929428
1580421719.53011,-1.04029907682918,-0.360112916762036,-0.255130846112765
1580421719.5341,-1.01637293049516,-0.311772335393302,-0.254642557412071
1580421719.5381,-0.987075608453498,-0.254642557412071,-0.284916456855116
1580421719.54208,-0.971938658731975,-0.207278553444723,-0.301518272678722
1580421719.54608,-0.977798123140307,-0.177981231403066,-0.306401159685665
1580421719.55008,-0.990981918059052,-0.171145189593346,-0.321049820706493
1580421719.55408,-1.01539635309377,-0.149172198062104,-0.307377737087053
1580421719.55808,-1.04762340733959,-0.136476691844052,-0.32300297550927
1580421719.56208,-1.05885404745556,-0.140871290150301,-0.342534523537042
1580421719.56608,-1.07643244068055,-0.156984817273212,-0.333745326924545
1580421719.57008,-1.09498741130693,-0.167238879987792,-0.315190356298162
1580421719.57407,-1.09498741130693,-0.158449683375295,-0.297123674372473
1580421719.57807,-1.09010452429999,-0.131593804837109,-0.273197528038454
1580421719.58207,-1.08229190508888,-0.10424963759823,-0.250736247806516
1580421719.58607,-1.072526131075,-0.0749523155565726,-0.241458762493323
1580421719.59007,-1.07154955367361,-0.060303654535744,-0.222415503166246
1580421719.59407,-1.08326848249027,-0.0612802319371326,-0.191165026321812
1580421719.59807,-1.09938200961318,-0.0734874494544897,-0.152590218966964
1580421719.60206,-1.12574959945067,-0.0778820477607383,-0.11792172121767
1580421719.60606,-1.149187457084,-0.0778820477607383,-0.0949721522850382
1580421719.61006,-1.17604333562219,-0.0778820477607383,-0.0725108720531011
1580421719.61406,-1.20192263675898,-0.0563973449301898,-0.0529793240253298
1580421719.61806,-1.21852445258259,-0.0266117341878385,-0.0500495918211641
1580421719.62207,-1.23366140230411,0.0075684748607614,-0.0490730144197755
1580421719.62607,-1.24147402151522,0.0222171358815899,-0.0622568093385212
1580421719.63007,-1.25270466163119,0.0305180437933927,-0.0593270771343555
1580421719.63407,-1.26100556954299,0.0227054245822842,-0.0720225833524069
1580421719.63806,-1.26588845654994,0.0114747844663157,-0.103273060196841
1580421719.64206,-1.26735332265202,0.00317387655451284,-0.118410009918364
1580421719.64606,-1.28102540627146,0.0134279392690928,-0.11450370031281
1580421719.65006,-1.29030289158465,0.0329594872968642,-0.126222629129472
1580421719.65406,-1.29665064469368,0.034424353398947,-0.162844281681544
1580421719.65806,-1.30543984130617,0.00268558785381856,-0.177004654001678
1580421719.66206,-1.32399481193256,-0.0187991149767299,-0.200442511635003
1580421719.66606,-1.33669031815061,-0.0212405584802013,-0.218997482261386
1580421719.67005,-1.34987411306935,-0.0158693827725642,-0.235599298084992
1580421719.67405,-1.3625696192874,0.00170901045242999,-0.264408331425956
1580421719.67805,-1.36794079499504,0.0187991149767299,-0.295658808270391
1580421719.68205,-1.37672999160754,0.0295414663920042,-0.328862439917602
1580421719.68605,-1.39430838483253,0.0422369726100555,-0.347905699244679
1580421719.69005,-1.41628137636378,0.0559090562294955,-0.35718318455787
1580421719.69405,-1.45143816281376,0.0734874494544897,-0.38110933089189
1580421719.69805,-1.49880216678111,0.0930189974822611,-0.405523765926604
1580421719.70203,-1.55300221255817,0.110109102006561,-0.404547188525216
1580421719.70602,-1.60964370183871,0.135500114442664,-0.406012054627299
1580421719.71002,-1.67360952162966,0.163820859082932,-0.41187151903563
1580421719.71402,-1.74538796063172,0.187258716716258,-0.425055313954376
1580421719.71802,-1.81326009002823,0.202395666437781,-0.445075150682841
1580421719.72202,-1.88357366292821,0.217532616159303,-0.443121995880064
1580421719.72602,-1.95486381322957,0.262455176623178,-0.435309376668956
1580421719.73002,-2.01882963302052,0.33911650263218,-0.402594033722439
1580421719.73402,-2.05349813076982,0.423590447852291,-0.389410238803693
1580421719.73801,-2.04470893415732,0.455817502098114,-0.404547188525216
1580421719.74201,-2.00662241550317,0.448004882887005,-0.414801251239796
1580421719.74601,-1.98464942397192,0.447028305485617,-0.393316548409247
1580421719.75001,-1.9783016708629,0.47583733882658,-0.321538109407188
1580421719.75401,-1.95193408102541,0.506599526970323,-0.260013733119708
1580421719.75801,-1.89626916914626,0.481208514534217,-0.195559624628061
1580421719.76201,-1.83816281376364,0.3972228580148,-0.152101930266269
1580421719.76601,-1.80300602731365,0.292729076066223,-0.11792172121767
1580421719.77,-1.79275196459907,0.191653315022506,-0.0749523155565726
1580421719.774,-1.79324025329976,0.0944838635843439,-0.0529793240253298
1580421719.778,-1.82204928664073,0.0422369726100555,-0.0720225833524069
1580421719.78201,-1.84353398947128,0.0217288471808956,-0.138918135347524
1580421719.78601,-1.86208896009766,0.0334477759975584,-0.204837109941252
1580421719.79001,-1.87136644541085,0.0622568093385212,-0.282963302052339
1580421719.79401,-1.8586709391928,0.0920424200808725,-0.373785000381476
1580421719.79801,-1.8332799267567,0.109132524605172,-0.475837338826581
1580421719.80201,-1.79128709849699,0.113527122911421,-0.572518501564049
1580421719.80601,-1.71609063859007,0.131105516136415,-0.635507743953612
1580421719.81,-1.59694819562066,0.135011825741969,-0.688731212329289
1580421719.814,-1.45143816281376,0.119874876020447,-0.676035706111238
1580421719.818,-1.27467765316243,0.0988784618905925,-0.672129396505683
1580421719.822,-1.0642252231632,-0.0139162279697871,-0.636484321355001
1580421719.826,-0.877210650797284,-0.235599298084992,-0.520759899290455
1580421719.83,-0.807385366598002,-0.50757610437171,-0.485114824139773
1580421719.834,-0.905531395437553,-0.728282597085526,-0.509040970473793
1580421719.83799,-1.18092622262913,-0.995376516365301,-0.575448233768215
1580421719.84199,-1.34157320515755,-1.18678568703746,-0.735118638895246
1580421719.84599,-1.28297856107424,-1.21852445258259,-0.913344014648661
1580421719.84999,-1.19069199664301,-0.98951705195697,-0.90406652933547
1580421719.85399,-1.08766308079652,-0.656992446784161,-0.807873655298696
1580421719.85799,-0.946547646295873,-0.315678644998856,-0.733165484092469
1580421719.86197,-0.807873655298696,0.0290531776913099,-0.643320363164721
1580421719.86597,-0.688242923628595,0.337651636530097,-0.561776150148775
1580421719.86997,-0.608163576714732,0.60083924620432,-0.504646372167544
1580421719.87397,-0.565194171053635,0.824475471122302,-0.457282368200199
1580421719.87796,-0.542244602121004,0.97926298924239,-0.424567025253682
1580421719.88196,-0.532967116807813,1.01002517738613,-0.354741741054399
1580421719.88596,-0.515388723582818,0.938735027084764,-0.287846189059282
1580421719.88996,-0.468024719615473,0.827405203326467,-0.247806515602349
1580421719.89396,-0.427985046158541,0.711192492561228,-0.198001068131532
1580421719.89796,-0.386968795300222,0.59058518348974,-0.192141603723201
1580421719.90196,-0.341069657434959,0.452887769893948,-0.222903791866941
1580421719.90595,-0.303471427481499,0.307866025787746,-0.267826352330816
1580421719.90995,-0.270756084534982,0.175539787899595,-0.315190356298162
1580421719.91395,-0.24682993820096,0.0788586251621268,-0.344975967040513
1580421719.91795,-0.227298390173189,0.0148928053711757,-0.351323720149539
1580421719.92195,-0.214114595254443,-0.0261234454871442,-0.334233615625239
1580421719.92595,-0.210208285648889,-0.0485847257190812,-0.295170519569696
1580421719.92995,-0.224368657969023,-0.0524910353246355,-0.261966887922485
1580421719.93395,-0.258548867017625,-0.0490730144197755,-0.227786678873883
1580421719.93794,-0.307866025787748,-0.0305180437933927,-0.186770428015564
1580421719.94195,-0.371343556878005,0.00708018616006711,-0.134035248340581
1580421719.94595,-0.444586861982147,0.060303654535744,-0.0783703364614325
1580421719.94995,-0.501228351262684,0.113038834210727,-0.0358892195010299
1580421719.95395,-0.530037384603647,0.145754177157244,-0.0134279392690928
1580421719.95795,-0.545662623025864,0.153078507667658,0.0183108262760356
1580421719.96195,-0.571541924162661,0.132570382238498,0.0554207675288012
1580421719.96595,-0.600350957503624,0.102784771496147,0.0915541313801782
1580421719.96995,-0.640390630960555,0.0656748302433812,0.110597390707255
1580421719.97394,-0.677012283512626,0.0295414663920042,0.115480277714198
1580421719.97794,-0.722911421377889,-0.0046387426565957,0.113527122911421
1580421719.98194,-0.764904249637599,-0.0354009308003356,0.112062256809338
1580421719.98594,-0.817151140611887,-0.0568856336308841,0.10766765850309
1580421719.98994,-0.862073701075762,-0.0813000686655982,0.0817883573662925
1580421719.99394,-0.908461127641718,-0.101319905394064,0.0661631189440754
1580421719.99794,-0.955825131609064,-0.116945143816281,0.0476081483176927
1580421720.00194,-1.01002517738613,-0.120851453421835,0.024170290684367
1580421720.00593,-1.05006485084306,-0.118410009918364,0.000244144350347142
1580421720.00993,-1.09645227740902,-0.114015411612115,-0.0178225375753414
1580421720.01393,-1.13453879606317,-0.114991989013504,-0.0373540856031127
1580421720.01793,-1.1745784695201,-0.114991989013504,-0.0495613031204698
1580421720.02191,-1.21705958648051,-0.120851453421835,-0.0607919432364383
1580421720.02591,-1.26637674525063,-0.132082093537804,-0.0578622110322726
1580421720.02991,-1.33034256504158,-0.150637064164187,-0.0549324788281069
1580421720.03391,-1.40163271534295,-0.185305561913481,-0.073975738155184
1580421720.03791,-1.48024719615473,-0.229251544975966,-0.104737926298924
1580421720.0419,-1.55983825436789,-0.277103837644008,-0.142824444953078
1580421720.0459,-1.6360112916762,-0.31958495460441,-0.171633478294041
1580421720.0499,-1.70925459678035,-0.352788586251622,-0.183840695811398
1580421720.0539,-1.76833752956436,-0.37769130998703,-0.196047913328755
1580421720.0579,-1.81130693522545,-0.396734569314107,-0.227298390173189
1580421720.0619,-1.84695201037614,-0.407476920729382,-0.265873197528039
1580421720.0659,-1.88992141603723,-0.408941786831464,-0.300053406576639
1580421720.0699,-1.94070344090944,-0.40503547722591,-0.33667505912871
1580421720.07389,-1.99929808499275,-0.41528953994049,-0.365972381170367
1580421720.07789,-2.05984588387884,-0.454840924696727,-0.378179598687725
1580421720.08189,-2.10867475394827,-0.522224765392538,-0.389898527504387
1580421720.08589,-2.13748378728923,-0.615976195925841,-0.393804837109942
1580421720.08989,-2.13943694209201,-0.729747463187609,-0.390386816205082
1580421720.09389,-2.11697566186007,-0.840588998245213,-0.37427328908217
1580421720.09789,-2.08621347371633,-0.945571068894484,-0.36060120546273
1580421720.1019,-2.05398641947051,-1.04811169604028,-0.361577782864119
1580421720.1059,-2.03250171663996,-1.17311360341802,-0.366460669871062
1580421720.10989,-2.02273594262608,-1.31862363622492,-0.364507515068285
1580421720.11389,-2.01980621042191,-1.47975890745403,-0.346440833142596
1580421720.11789,-2.00662241550317,-1.65456626230259,-0.335210193026628
1580421720.12189,-1.97683680476081,-1.832791638056,-0.314702067597468
1580421720.12589,-1.91140611886778,-1.97976653696498,-0.309819180590525
1580421720.12989,-1.80398260471504,-2.09500267032883,-0.322514686808576
1580421720.13389,-1.67263294422827,-2.18387121385519,-0.348882276646068
1580421720.13789,-1.5080796520943,-2.2429541466392,-0.404547188525216
1580421720.14189,-1.34157320515755,-2.28348210879683,-0.48023193713283
1580421720.14588,-1.21120012207217,-2.33279926756695,-0.537361715114061
1580421720.14988,-1.07399099717708,-2.36600289921416,-0.592050049591821
1580421720.15388,-0.954848554207675,-2.38260471503777,-0.655039291981383
1580421720.15788,-0.872327763790341,-2.40897230487526,-0.705333028152895
1580421720.16188,-0.816174563210499,-2.47733272297246,-0.730235751888303
1580421720.16588,-0.790783550774396,-2.57303730830854,-0.720958266575112
1580421720.16988,-0.790295262073702,-2.67460135805295,-0.651621271076523
1580421720.17387,-0.796154726482033,-2.73319600213626,-0.551522087434195
1580421720.17787,-0.786877241168842,-2.7468680857557,-0.453376058594644
1580421720.18185,-0.750743877317465,-2.72343022812238,-0.386968795300222
1580421720.18585,-0.722423132677195,-2.68534370946822,-0.334721904325933
1580421720.18985,-0.713633936064697,-2.63895628290227,-0.291264209964142
1580421720.19385,-0.733165484092469,-2.5847562371252,-0.249271381704432
1580421720.19785,-0.775646601052873,-2.53250934615091,-0.227298390173189
1580421720.20185,-1.1062180514229,-2.41239032578012,-0.414801251239796
1580421720.20585,-1.10133516441596,-2.07449454489967,-0.547615777828641
1580421720.20984,-1.17360189211871,-1.64724193179217,-0.313237201495385
1580421720.21384,-1.10182345311665,-1.65944914930953,-0.483161669336996
1580421720.21784,-1.15553521019303,-1.72487983520256,-0.897718776226444
1580421720.22184,-1.61989776455329,-1.02467383840696,-0.673105973907072
1580421720.22584,-2.03494316014343,0.261478599221789,-0.0505378805218584
1580421720.22984,-2.16873426413367,1.55886167696651,0.438727397573814
1580421720.23384,-2.13308918898299,2.30740825513085,0.455817502098114
1580421720.23784,-1.93240253299764,2.08865491721981,0.32202639810788
1580421720.24183,-1.6106202792401,1.2942092011902,0.221438925764858
1580421720.24583,-1.25758754863813,0.38696879530022,-0.0144045166704814
1580421720.24983,-1.03346303501946,-0.36401922636759,-0.285404745555811
1580421720.25383,-1.07692072938125,-0.799572747386893,-0.525154497596704
1580421720.25783,-1.3029983978027,-0.894789044022279,-0.700938429846646
1580421720.26184,-1.54714274814984,-0.580331120775158,-0.318120088502328
1580421720.26584,-1.55788509956512,-0.296147096971085,0.0598153658350498
1580421720.26984,-1.33034256504158,-0.310307469291219,0.133058670939192
1580421720.27384,-1.1067063401236,-0.508552681773098,0.0148928053711757
1580421720.27783,-0.936781872281987,-0.637460898756389,-0.295658808270391
1580421720.28183,-0.891859311818113,-0.655527580682078,-0.543709468223087
1580421720.28583,-0.929457541771573,-0.645761806668192,-0.732677195391775
1580421720.28983,-1.04518196383612,-0.656504158083466,-0.710704203860532
1580421720.29383,-1.17262531471733,-0.799084458686199,-0.625741969939726
1580421720.29783,-1.33571374074922,-0.973891813534753,-0.557381551842527
1580421720.30183,-1.49782558937972,-1.11354238193332,-0.521736476691844
1580421720.30583,-1.57790493629358,-1.18678568703746,-0.388921950102999
1580421720.30983,-1.59157701991302,-1.10719462882429,-0.32300297550927
1580421720.31382,-1.55593194476234,-0.919203479056993,-0.253665980010682
1580421720.31782,-1.48903639276722,-0.706309605554283,-0.126222629129472
1580421720.32182,-1.39821469443809,-0.50415808346685,-0.0109864957656214
1580421720.32582,-1.26442359044785,-0.382085908293279,0.0129396505683985
1580421720.32982,-1.09401083390555,-0.351812008850233,-0.0339360646982527
1580421720.33382,-0.904554818036164,-0.392339971007859,-0.146242465857938
1580421720.33782,-0.724376287479972,-0.495368886854353,-0.272220950637065
1580421720.3418,-0.599374380102235,-0.628183413443198,-0.351812008850233
1580421720.34579,-0.621347371633478,-0.723887998779277,-0.379156176089113
1580421720.34979,-0.785900663767453,-0.733653772793163,-0.302494850080111
1580421720.35379,-0.958266575112535,-0.673594262607766,-0.189211871519035
1580421720.35779,-1.02906843671321,-0.593026626993209,-0.135988403143358
1580421720.36179,-1.00904859998474,-0.547615777828641,-0.167238879987792
1580421720.36579,-0.969985503929198,-0.513435568780041,-0.296147096971085
1580421720.36979,-0.926527809567407,-0.494392309452964,-0.451911192492561
1580421720.37379,-0.906019684138247,-0.46997787441825,-0.535896849011978
1580421720.37778,-0.929945830472267,-0.402594033722439,-0.515388723582818
1580421720.38178,-0.971450370031281,-0.302494850080111,-0.448004882887007
1580421720.38578,-1.01051346608682,-0.183352407110704,-0.397711146715496
1580421720.38978,-1.03102159151598,-0.080811779964904,-0.390875104905776
1580421720.39378,-1.0383459220264,-0.0153810940718699,-0.411383230334936
1580421720.39778,-1.05397116044862,0.01196307316701,-0.431891355764096
1580421720.40178,-1.07154955367361,0.00317387655451284,-0.465583276112001
1580421720.40578,-1.08863965819791,-0.0329594872968642,-0.467536430914778
1580421720.40978,-1.10377660791943,-0.0822766460669868,-0.413824673838407
1580421720.41377,-1.12721446555276,-0.116456855115587,-0.34692912184329
1580421720.41777,-1.13356221866178,-0.126710917830167,-0.303959716182193
1580421720.42175,-1.10280003051804,-0.155031662470435,-0.285893034256505
1580421720.42575,-1.04908827344167,-0.207766842145418,-0.301029983978028
1580421720.42975,-1.00172426947433,-0.258060578316931,-0.308354314488442
1580421720.43375,-0.980727855344472,-0.286869611657893,-0.289799343862059
1580421720.43775,-0.964614328221561,-0.294193942168308,-0.253177691309988
1580421720.44175,-0.943129625391013,-0.303959716182193,-0.222903791866941
1580421720.44574,-0.93141069657435,-0.309819180590525,-0.219974059662775
1580421720.44974,-0.920180056458381,-0.313237201495385,-0.220462348363469
1580421720.45374,-0.920668345159076,-0.312260624093996,-0.218509193560692
1580421720.45774,-0.922133211261158,-0.313725490196079,-0.227786678873883
1580421720.46174,-0.931898985275044,-0.323979552910659,-0.238529030289158
1580421720.46574,-0.935317006179904,-0.339604791332876,-0.262455176623179
1580421720.46974,-0.935805294880598,-0.36060120546273,-0.276615548943314
1580421720.47374,-0.952407110704204,-0.363042648966202,-0.272709239337759
1580421720.47774,-0.96900892652781,-0.343999389639125,-0.268314641031511
1580421720.48173,-0.971938658731975,-0.329350728618296,-0.272220950637065
1580421720.48573,-0.966079194323644,-0.313725490196079,-0.267826352330816
1580421720.48973,-0.971450370031281,-0.293705653467613,-0.278080415045396
1580421720.49373,-0.976821545738918,-0.268314641031511,-0.289311055161365
1580421720.49773,-0.973403524834058,-0.248294804303043,-0.301029983978028
1580421720.50174,-0.967544060425727,-0.225833524071106,-0.318608377203022
1580421720.50574,-0.968520637827115,-0.202395666437781,-0.306401159685665
1580421720.50974,-0.974380102235447,-0.193118181124589,-0.279545281147479
1580421720.51373,-0.988052185854887,-0.192141603723201,-0.263431754024568
1580421720.51773,-0.99635309376669,-0.188723582818341,-0.262943465323874
1580421720.52173,-0.99293507286183,-0.187747005416952,-0.265384908827345
1580421720.52573,-0.986587319752804,-0.189211871519035,-0.256107423514154
1580421720.52973,-0.981704432745861,-0.182864118410009,-0.23999389639124
1580421720.53373,-0.976333257038224,-0.191653315022506,-0.23999389639124
1580421720.53773,-0.959243152513924,-0.202395666437781,-0.231204699778743
1580421720.54173,-0.957289997711147,-0.216556038757915,-0.229739833676661
1580421720.54572,-0.953383688105593,-0.23999389639124,-0.241458762493323
1580421720.54972,-0.94850080109865,-0.276615548943314,-0.259525444419014
1580421720.55372,-0.957289997711147,-0.292240787365531,-0.264896620126651
1580421720.55772,-0.966079194323644,-0.290775921263448,-0.269779507133594
1580421720.56172,-0.964126039520867,-0.292729076066225,-0.288334477759976
1580421720.56572,-0.970962081330587,-0.303471427481499,-0.293217364766919
1580421720.56972,-0.987075608453498,-0.306889448386359,-0.294193942168308
1580421720.57372,-1.00709544518196,-0.296147096971085,-0.292729076066225
1580421720.57771,-1.02662699320974,-0.283939879453728,-0.310795757991913
1580421720.58169,-1.03199816891737,-0.274174105439842,-0.338139925230793
1580421720.58569,-1.02272068360418,-0.271244373235676,-0.35376516365301
1580421720.58969,-1.01734950789654,-0.243900205996795,-0.349858854047456
1580421720.59369,-1.01490806439307,-0.194583047226672,-0.344975967040513
1580421720.59769,-1.00172426947433,-0.129640650034332,-0.328862439917602
1580421720.60169,-0.991470206759747,-0.063721675440604,-0.328862439917602
1580421720.60569,-0.96559090562295,-0.0114747844663157,-0.362066071564813
1580421720.60969,-0.932875562676433,0.0251468680857556,-0.36401922636759
1580421720.61368,-0.913832303349356,0.0583504997329669,-0.35376516365301
1580421720.61768,-0.896253910124361,0.0866712443732354,-0.350835431448845
1580421720.62168,-0.884534981307699,0.10424963759823,-0.32983901731899
1580421720.62568,-0.89381246662089,0.112550545510032,-0.317631799801633
1580421720.62968,-0.912367437247273,0.0944838635843439,-0.299076829175251
1580421720.63368,-0.947035934996567,0.0690928511482412,-0.254642557412071
1580421720.63768,-0.994399938963912,0.0441901274128327,-0.213626306553749
1580421720.64168,-1.04029907682918,0.00903334096284425,-0.197024490730143
1580421720.64567,-1.08424505989166,-0.0319829098954756,-0.156008239871824
1580421720.64967,-1.12672617685206,-0.0617685206378269,-0.113527122911421
1580421720.65367,-1.15992980849927,-0.073975738155184,-0.0891126878767068
1580421720.65767,-1.18483253223468,-0.0788586251621268,-0.0627450980392155
1580421720.66168,-1.2087586785687,-0.0827649347676811,-0.0534676127260241
1580421720.66568,-1.22829022659647,-0.0827649347676811,-0.0461432822156098
1580421720.66968,-1.24440375371939,-0.0729991607537954,-0.0451667048142212
1580421720.67368,-1.25514610513466,-0.0612802319371326,-0.0607919432364383
1580421720.67768,-1.25905241474022,-0.0568856336308841,-0.0803234912642097
1580421720.68168,-1.2688181887541,-0.0549324788281069,-0.0817883573662925
1580421720.68567,-1.27565423056382,-0.0510261692225527,-0.0944838635843439
1580421720.68967,-1.28346684977493,-0.0515144579232469,-0.0920424200808725
1580421720.69367,-1.28688487067979,-0.0451667048142212,-0.0891126878767068
1580421720.69767,-1.28981460288396,-0.0388189517051956,-0.0949721522850382
1580421720.70167,-1.2859082932784,-0.0510261692225527,-0.11108567940795
1580421720.70567,-1.28297856107424,-0.0788586251621268,-0.126222629129472
1580421720.70967,-1.28493171587701,-0.113527122911421,-0.140871290150301
1580421720.71367,-1.29762722209506,-0.127687495231555,-0.158937972075989
1580421720.71766,-1.30251010910201,-0.151613641565575,-0.190188448920424
1580421720.72166,-1.30788128480964,-0.172610055695429,-0.213138017853055
1580421720.72566,-1.32545967803464,-0.184817273212786,-0.219485770962081
1580421720.72966,-1.35085069047074,-0.170656900892652,-0.230228122377355
1580421720.73366,-1.36940566109712,-0.148195620660715,-0.271244373235676
1580421720.73766,-1.36940566109712,-0.142824444953078,-0.324956130312048
1580421720.74164,-1.36940566109712,-0.137453269245441,-0.377203021286336
1580421720.74564,-1.38210116731518,-0.11792172121767,-0.39136339360647
1580421720.74963,-1.40505073624781,-0.0822766460669868,-0.401129167620356
1580421720.75363,-1.43630121309224,-0.0354009308003356,-0.416266117341879
1580421720.75763,-1.47780575265126,0.000244144350347142,-0.441168841077287
1580421720.76163,-1.5163805600061,0.0168459601739528,-0.45630579079881
1580421720.76563,-1.56374456397345,0.0212405584802013,-0.460700389105059
1580421720.76963,-1.62038605325399,0.0354009308003356,-0.470466163118944
1580421720.77363,-1.68532845044633,0.0720225833524069,-0.491950865949493
1580421720.77763,-1.72683299000534,0.109132524605172,-0.512458991378653
1580421720.78163,-1.75222400244144,0.139894712748912,-0.511482413977264
1580421720.78562,-1.76833752956436,0.167238879987792,-0.509529259174487
1580421720.78962,-1.78689250019074,0.192629892423895,-0.474372472724498
1580421720.79362,-1.81228351262684,0.215579461356526,-0.418219272144656
1580421720.79762,-1.82888532845045,0.243900205996795,-0.363530937666896
1580421720.80162,-1.8240024414435,0.25366598001068,-0.317143511100939
1580421720.80562,-1.80447089341573,0.224856946669718,-0.290287632562753
1580421720.80962,-1.76784924086366,0.194094758525978,-0.265873197528039
1580421720.81361,-1.73806363012131,0.172121766994735,-0.220950637064163
1580421720.81761,-1.70583657587549,0.161867704280155,-0.167238879987792
1580421720.82162,-1.66579690241855,0.147219043259327,-0.119874876020447
1580421720.82562,-1.62917524986648,0.103273060196841,-0.0803234912642097
1580421720.82962,-1.61550316624704,0.0456549935149155,-0.0695811398489354
1580421720.83362,-1.63112840466926,-0.0129396505683985,-0.0993667505912867
1580421720.83762,-1.65017166399634,-0.0788586251621268,-0.153566796368352
1580421720.84162,-1.66286717021439,-0.150148775463492,-0.211673151750972
1580421720.84562,-1.69753566796368,-0.136964980544747,-0.237064164187075
1580421720.84962,-1.73269245441367,-0.11450370031281,-0.288822766460671
1580421720.85361,-1.75320057984283,-0.0861829556725411,-0.352788586251622
1580421720.85761,-1.75954833295186,-0.0676279850461583,-0.430914778362707
1580421720.86161,-1.74880598153658,-0.0349126420996413,-0.514900434882124
1580421720.86561,-1.71071946288243,-0.00610360875867855,-0.621347371633478
1580421720.86961,-1.64431219958801,0.0104982070649271,-0.702403295948729
1580421720.87361,-1.54665445944915,0.0407721065079727,-0.712169069962615
1580421720.87761,-1.42458228427558,0.0886243991760125,-0.676523994811932
1580421720.88161,-1.27565423056382,0.100343327992675,-0.614023041123064
1580421720.8856,-1.11793698023957,0.103273060196841,-0.571541924162661
1580421720.8896,-0.987075608453498,0.0622568093385212,-0.559822995345998
1580421720.8936,-0.87330434119173,-0.067139696345464,-0.548104066529335
1580421720.8976,-0.751232166018159,-0.298588540474556,-0.575448233768215
1580421720.90158,-0.640390630960555,-0.535408560311284,-0.623788815136949
1580421720.90558,-0.608651865415426,-0.645273517967498,-0.508064393072404
1580421720.90958,-0.700450141145952,-0.761974517433433,-0.421637293049516
1580421720.91358,-0.806897077897307,-0.806408789196613,-0.485114824139773
1580421720.91757,-0.810315098802167,-0.724864576180666,-0.607186999313344
1580421720.92157,-0.763439383535516,-0.506599526970321,-0.613046463721675
1580421720.92557,-0.723399710078583,-0.253177691309988,-0.546639200427252
1580421720.92957,-0.700938429846646,-0.0285648889906156,-0.474372472724498
1580421720.93357,-0.685801480125123,0.167238879987792,-0.39478141451133
1580421720.93757,-0.670664530403601,0.350347142748149,-0.318608377203022
1580421720.94157,-0.655039291981383,0.525154497596706,-0.244876783398183
1580421720.94557,-0.635507743953612,0.659433890287634,-0.182864118410009
1580421720.94957,-0.611581597619592,0.719493400473031,-0.149172198062104
1580421720.95356,-0.572030212863355,0.685313191424431,-0.143801022354467
1580421720.95756,-0.519295033188373,0.60425726710918,-0.147219043259327
1580421720.96156,-0.463630121309224,0.516853589684903,-0.135988403143358
1580421720.96556,-0.416754406042573,0.440680552376591,-0.115480277714198
1580421720.96956,-0.383062485694667,0.37329671168078,-0.102296482795452
1580421720.97356,-0.353276874952316,0.310307469291217,-0.101319905394064
1580421720.97756,-0.333745326924545,0.242923628595406,-0.103273060196841
1580421720.98157,-0.319096665903716,0.181399252307926,-0.0959487296864268
1580421720.98557,-0.313237201495385,0.12475776302739,-0.096437018387121
1580421720.98956,-0.308354314488442,0.0729991607537954,-0.0944838635843439
1580421720.99356,-0.308354314488442,0.0173342488746471,-0.101319905394064
1580421720.99756,-0.315678644998856,-0.0476081483176927,-0.103761348897535
1580421721.00156,-0.325444419012742,-0.111573968108644,-0.106202792401007
1580421721.00556,-0.341557946135653,-0.157473105973907,-0.0983901731898982
1580421721.00956,-0.36401922636759,-0.198489356832226,-0.0876478217746239
1580421721.01356,-0.392339971007859,-0.223392080567635,-0.0695811398489354
1580421721.01756,-0.426520180056459,-0.219485770962081,-0.0456549935149155
1580421721.02155,-0.45972381170367,-0.191653315022506,-0.0144045166704814
1580421721.02555,-0.490974288548104,-0.137941557946135,0.0178225375753414
1580421721.02955,-0.514900434882124,-0.0720225833524069,0.0451667048142212
1580421721.03355,-0.537850003814755,0.000244144350347142,0.0695811398489354
1580421721.03755,-0.561287861448081,0.0593270771343555,0.0827649347676811
1580421721.04155,-0.596932936598764,0.107179369802395,0.0827649347676811
1580421721.04555,-0.635507743953612,0.136476691844052,0.0832532234683754
1580421721.04955,-0.683848325322346,0.142824444953078,0.0827649347676811
1580421721.05354,-0.738048371099412,0.119386587319752,0.0725108720531011
1580421721.05754,-0.80152590218967,0.080811779964904,0.063721675440604
1580421721.06152,-0.864515144579233,0.0373540856031127,0.0568856336308841
1580421721.06552,-0.929945830472267,-0.00805676356145568,0.0490730144197755
1580421721.06952,-0.99977111467155,-0.0559090562294955,0.0368657969024184
1580421721.07352,-1.05787747005417,-0.099855039291981,0.00610360875867855
1580421721.07752,-1.11256580453193,-0.140871290150301,-0.0144045166704814
1580421721.08152,-1.15944151979858,-0.188235294117646,-0.048096437018387
1580421721.08552,-1.19996948195621,-0.224856946669718,-0.0759288929579611
1580421721.08951,-1.23707942320897,-0.257084000915542,-0.0910658426794839
1580421721.09351,-1.28395513847562,-0.281010147249562,-0.105226214999618
1580421721.09751,-1.34987411306935,-0.296147096971085,-0.0993667505912867
1580421721.10151,-1.42702372777905,-0.310795757991913,-0.110597390707255
1580421721.10551,-1.51100938429847,-0.334233615625239,-0.137941557946135
1580421721.10951,-1.59108873121233,-0.372320134279393,-0.154543373769741
1580421721.11351,-1.67263294422827,-0.405523765926604,-0.177004654001678
1580421721.11751,-1.73464560921645,-0.440680552376593,-0.201419089036392
1580421721.1215,-1.76980239566644,-0.474372472724498,-0.236087586785686
1580421721.1255,-1.7815213244831,-0.499275196459907,-0.253177691309988
1580421721.1295,-1.79470511940185,-0.522713054093233,-0.273197528038454
1580421721.1335,-1.80251773861296,-0.54859235523003,-0.281986724650951
1580421721.1375,-1.81716639963378,-0.573006790264744,-0.287357900358588
1580421721.14151,-1.83913939116503,-0.602304112306401,-0.293705653467613
1580421721.14551,-1.87478446631571,-0.647226672770275,-0.310795757991913
1580421721.14951,-1.91970702677958,-0.706797894254978,-0.32300297550927
1580421721.15351,-1.97000076295109,-0.777111467154956,-0.335698481727322
1580421721.15751,-2.00759899290455,-0.862073701075762,-0.350835431448845
1580421721.1615,-2.03640802624552,-0.944106202792401,-0.368413824673839
1580421721.1655,-2.04568551155871,-1.01197833218891,-0.382085908293279
1580421721.1695,-2.04422064545663,-1.07447928587777,-0.39819943541619
1580421721.1735,-2.03445487144274,-1.12672617685206,-0.418219272144656
1580421721.1775,-2.02127107652399,-1.17653162432288,-0.436285954070344
1580421721.1815,-1.99343862058442,-1.23073167009995,-0.459235523002976
1580421721.1855,-1.94607461661708,-1.29127946898604,-0.475837338826581
1580421721.18949,-1.87722590981918,-1.34352635996033,-0.485603112840467
1580421721.19349,-1.80105287251087,-1.39235523002976,-0.478278782330053
1580421721.19749,-1.71023117418173,-1.42995345998322,-0.468024719615473
1580421721.20149,-1.5935301747158,-1.45925078202487,-0.482673380636301
1580421721.20549,-1.48757152666514,-1.50905622949569,-0.49048599984741
1580421721.20949,-1.38405432211795,-1.57106889448386,-0.501716639963378
1580421721.21349,-1.28542000457771,-1.62722209506371,-0.51783016708629
1580421721.21749,-1.20338750286107,-1.68191042954147,-0.53833829251545
1580421721.22147,-1.14332799267567,-1.75954833295186,-0.561776150148775
1580421721.22546,-1.08717479209583,-1.86843671320668,-0.592050049591821
1580421721.22946,-1.04029907682918,-1.98318455786984,-0.579842832074464
1580421721.23346,-1.01783779659724,-2.05984588387884,-0.525154497596704
1580421721.23746,-0.984634164950027,-2.09011978332189,-0.447516594186313
1580421721.24146,-0.915785458152133,-2.11013962005035,-0.371831845578699
1580421721.24546,-0.813733119707027,-2.12478828107118,-0.332768749523156
1580421721.24946,-0.712657358663309,-2.12185854886702,-0.309330891889831
1580421721.25346,-0.641855497062638,-2.07400625619898,-0.288822766460671
1580421721.25745,-0.620859082932784,-1.97439536125734,-0.256107423514154
1580421721.26145,-0.628183413443198,-1.84060425726711,-0.222415503166246
1580421721.26545,-0.667246509498741,-1.70144197756924,-0.195071335927366
1580421721.26945,-0.717540245670252,-1.5847409781033,-0.172610055695429
1580421721.27345,-0.761974517433433,-1.48513008316167,-0.164309147783626
1580421721.27745,-0.810803387502862,-1.40651560234989,-0.164797436484321
1580421721.28145,-0.84254215304799,-1.3454795147631,-0.156496528572518
1580421721.28545,-0.879163805600061,-1.2946974898909,-0.149172198062104
1580421721.28944,-0.911879148546578,-1.24538033112077,-0.179934386205844
1580421721.29344,-1.01051346608682,-1.10231174181735,-0.551522087434195
1580421721.29744,-1.072526131075,-0.688731212329289,-0.68091859311818
1580421721.30145,-1.16530098420691,-0.289799343862059,-0.490974288548104
1580421721.30545,-1.21461814297703,-0.0778820477607383,-0.542244602121004
1580421721.30945,-1.33864347295338,0.478278782330051,-0.85279621576257
1580421721.31345,-1.61794460975051,1.38991378652628,-0.592538338292515
1580421721.31745,-1.8923628595407,2.17947661554894,0.000244144350347142
1580421721.32145,-2.02371252002747,2.3884641794461,0.320073243305103
1580421721.32544,-1.92556649118792,1.69069962615396,0.466071564812694
1580421721.32944,-1.65847257190814,0.724376287479974,0.479743648432134
1580421721.33344,-1.40993362325475,-0.0109864957656214,0.257572289616235
1580421721.33744,-1.28786144808118,-0.578866254673075,-0.027588311589227
1580421721.34144,-1.27663080796521,-0.976821545738918,-0.204837109941252
1580421721.34544,-1.35329213397421,-1.01002517738613,-0.251224536507211
1580421721.34944,-1.35036240177005,-0.797131303883422,-0.322026398107882
1580421721.35344,-1.29909208819715,-0.44946974898909,-0.132082093537804
1580421721.35743,-1.1921568627451,-0.211673151750972,0.124269474326695
1580421721.36143,-1.04322880903334,-0.165285725185015,0.215091172655832
1580421721.36543,-0.962661173418784,-0.216067750057221,0.117433432516975
1580421721.36943,-0.958266575112535,-0.284428168154422,-0.149660486762798
1580421721.37343,-0.96559090562295,-0.341557946135653,-0.450934615091173
1580421721.37743,-1.01490806439307,-0.352300297550928,-0.609140154116121
1580421721.38141,-1.12672617685206,-0.329350728618296,-0.522224765392538
1580421721.38541,-1.22926680399786,-0.375249866483559,-0.406988632028687
1580421721.38941,-1.30055695429923,-0.501716639963378,-0.390386816205082
1580421721.3934,-1.36696421759365,-0.660410467689021,-0.511482413977264
1580421721.3974,-1.42458228427558,-0.78101777676051,-0.52124818799115
1580421721.4014,-1.48122377355612,-0.789318684672313,-0.46997787441825
1580421721.4054,-1.53102922102693,-0.713633936064697,-0.417242694743267
1580421721.4094,-1.56520943007553,-0.625253681239032,-0.320073243305105
1580421721.4134,-1.55446707866026,-0.512458991378653,-0.194094758525978
1580421721.4174,-1.50514991989014,-0.403570611123827,-0.102296482795452
1580421721.4214,-1.37331197070268,-0.332280460822462,-0.0910658426794839
1580421721.4254,-1.15504692149233,-0.348882276646068,-0.131593804837109
1580421721.42939,-0.919203479056993,-0.416266117341879,-0.244388494697489
