Timestamp_seconds,Gyro_X_s,Gyro_Y_s,Gyro_Z_s
1580421734.92651,4.18097199969475,0.152590218966907,0.640878919661191
1580421734.93051,4.05889982452118,0.152590218966907,0.762951094834762
1580421734.9345,4.24200808728165,0.274662394140478,1.0681315327688
1580421734.93849,4.42511635004189,0.335698481727377,1.12916762035547
1580421734.94249,4.54718852521546,0.213626306553806,1.0681315327688
1580421734.94648,4.54718852521546,0.274662394140478,1.12916762035547
1580421734.95047,4.60822461280236,0.335698481727377,1.19020370794237
1580421734.95446,4.8523689631495,0.335698481727377,1.12916762035547
1580421734.95846,5.15754940108332,0.152590218966907,1.0681315327688
1580421734.96245,5.52376592660403,0.213626306553806,1.0681315327688
1580421734.96644,5.76791027695117,0.152590218966907,1.0681315327688
1580421734.97044,6.25619897764545,0.335698481727377,1.0070954451819
1580421734.97443,6.68345159075307,0.335698481727377,0.946059357595232
1580421734.97842,7.04966811627378,0.274662394140478,0.946059357595232
1580421734.98242,7.47692072938116,0.091554131380235,1.0070954451819
1580421734.98641,7.7821011673152,0.0305180437933359,1.0681315327688
1580421734.9904,8.08728160524902,-0.0305180437933359,1.12916762035547
1580421734.9944,8.39246204318306,-0.152590218966907,1.31227588311594
1580421734.99839,8.5755703059433,0.0305180437933359,1.49538414587619
1580421735.00238,8.69764248111687,0.0305180437933359,1.55642023346309
1580421735.00638,9.00282291905091,0.0305180437933359,1.8616006713969
1580421735.01037,9.18593118181116,0.213626306553806,1.9226367589838
1580421735.01437,9.4300755321583,0.152590218966907,2.04470893415737
1580421735.01836,9.61318379491877,0.213626306553806,2.04470893415737
1580421735.02235,9.79629205767901,0.274662394140478,2.16678110933094
1580421735.02635,9.97940032043948,0.0305180437933359,2.28885328450451
1580421735.03036,10.1014724956131,-0.152590218966907,2.10574502174404
1580421735.03436,10.1014724956131,-0.152590218966907,2.10574502174404
1580421735.03835,9.97940032043948,-0.213626306553806,2.04470893415737
1580421735.04235,9.91836423285258,-0.274662394140478,1.98367284657047
1580421735.04634,9.91836423285258,-0.274662394140478,1.80056458381023
1580421735.05033,9.79629205767901,-0.213626306553806,1.73952849622333
1580421735.05433,9.67421988250544,-0.152590218966907,1.67849240863666
1580421735.05832,9.61318379491877,-0.091554131380235,1.61745632104976
1580421735.06231,9.4300755321583,0.091554131380235,1.61745632104976
1580421735.06631,9.4300755321583,0.213626306553806,1.61745632104976
1580421735.0703,9.4911116197452,0.335698481727377,1.49538414587619
1580421735.07429,9.36903944457163,0.335698481727377,1.55642023346309
1580421735.07829,9.30800335698473,0.335698481727377,1.67849240863666
1580421735.08228,9.30800335698473,0.335698481727377,1.73952849622333
1580421735.08627,9.18593118181116,0.274662394140478,1.67849240863666
1580421735.09027,9.06385900663759,0.396734569314049,1.73952849622333
1580421735.09426,8.88075074387734,0.335698481727377,1.61745632104976
1580421735.09825,8.75867856870377,0.457770656900948,1.67849240863666
1580421735.10225,8.45349813076973,0.457770656900948,1.61745632104976
1580421735.10624,8.33142595559616,0.396734569314049,1.61745632104976
1580421735.11023,8.08728160524902,0.396734569314049,1.61745632104976
1580421735.11422,7.7821011673152,0.274662394140478,1.73952849622333
1580421735.11822,7.41588464179449,0.152590218966907,1.73952849622333
1580421735.12221,7.11070420386045,0.091554131380235,1.80056458381023
1580421735.1262,7.11070420386045,-0.0305180437933359,1.8616006713969
1580421735.1302,6.86655985351331,-0.213626306553806,1.9226367589838
1580421735.13419,6.68345159075307,-0.457770656900948,1.9226367589838
1580421735.13818,6.68345159075307,-0.51880674448762,1.98367284657047
1580421735.14218,6.56137941557949,-0.579842832074519,2.04470893415737
1580421735.14617,6.43930724040592,-0.640878919661191,1.98367284657047
1580421735.15016,6.25619897764545,-0.762951094834762,2.04470893415737
1580421735.15416,6.25619897764545,-0.946059357595232,1.98367284657047
1580421735.15815,6.25619897764545,-1.0070954451819,1.98367284657047
1580421735.16214,6.31723506523235,-1.0681315327688,1.8616006713969
1580421735.16614,6.5003433279926,-1.25123979552905,1.9226367589838
1580421735.17013,6.62241550316617,-1.37331197070262,1.73952849622333
1580421735.17412,6.74448767833974,-1.43434805828952,1.61745632104976
1580421735.17812,6.68345159075307,-1.55642023346309,1.55642023346309
1580421735.18211,6.37827115281902,-1.55642023346309,1.49538414587619
1580421735.18611,6.37827115281902,-1.61745632104976,1.31227588311594
1580421735.19009,6.37827115281902,-1.61745632104976,1.25123979552905
1580421735.19409,6.56137941557949,-1.49538414587619,1.25123979552905
1580421735.19808,6.68345159075307,-1.43434805828952,1.25123979552905
1580421735.20207,6.98863202868688,-1.37331197070262,1.25123979552905
1580421735.20607,7.11070420386045,-1.12916762035547,1.12916762035547
1580421735.21006,7.17174029144735,-1.0070954451819,1.25123979552905
1580421735.21405,7.29381246662092,-0.762951094834762,1.31227588311594
1580421735.21805,7.41588464179449,-0.640878919661191,1.25123979552905
1580421735.22204,7.47692072938116,-0.579842832074519,1.43434805828952
1580421735.22603,7.41588464179449,-0.396734569314049,1.31227588311594
1580421735.23003,7.29381246662092,-0.213626306553806,1.31227588311594
1580421735.23402,7.23277637903402,-0.152590218966907,1.19020370794237
1580421735.23802,7.23277637903402,-0.091554131380235,1.12916762035547
1580421735.24201,7.17174029144735,0.0305180437933359,1.25123979552905
1580421735.246,6.86655985351331,0.152590218966907,1.12916762035547
1580421735.25,6.56137941557949,0.335698481727377,1.19020370794237
1580421735.25399,6.19516289005878,0.396734569314049,1.12916762035547
1580421735.25798,5.7068741893645,0.396734569314049,1.12916762035547
1580421735.26198,5.21858548867021,0.335698481727377,1.0681315327688
1580421735.26597,4.73029678797593,0.274662394140478,1.0070954451819
1580421735.26999,4.48615243762879,0.274662394140478,0.885023270008332
1580421735.27398,3.99786373693451,0.213626306553806,0.946059357595232
1580421735.27798,3.26543068589308,0.152590218966907,0.946059357595232
1580421735.28197,2.7771419851988,-0.0305180437933359,0.579842832074519
1580421735.28596,2.16678110933094,-0.274662394140478,0.762951094834762
1580421735.28996,1.67849240863666,-0.457770656900948,0.823987182421661
1580421735.29395,1.25123979552905,-0.640878919661191,0.640878919661191
1580421735.29794,0.946059357595232,-0.823987182421661,0.70191500724809
1580421735.30194,0.762951094834762,-0.885023270008332,0.579842832074519
1580421735.30593,0.579842832074519,-1.0681315327688,0.335698481727377
1580421735.30992,0.579842832074519,-1.31227588311594,0.274662394140478
1580421735.31392,0.457770656900948,-1.43434805828952,0.213626306553806
1580421735.31791,0.335698481727377,-1.61745632104976,0.0305180437933359
1580421735.3219,0.152590218966907,-1.61745632104976,-0.091554131380235
1580421735.3259,-0.0305180437933359,-1.61745632104976,-0.274662394140478
1580421735.32989,-0.091554131380235,-1.55642023346309,-0.335698481727377
1580421735.33388,-0.0305180437933359,-1.43434805828952,-0.274662394140478
1580421735.33788,-0.0305180437933359,-1.37331197070262,-0.457770656900948
1580421735.34187,0.152590218966907,-1.31227588311594,-0.579842832074519
1580421735.34587,0.335698481727377,-1.12916762035547,-0.51880674448762
1580421735.34985,0.640878919661191,-0.946059357595232,-0.51880674448762
1580421735.35385,0.885023270008332,-0.70191500724809,-0.51880674448762
1580421735.35784,0.946059357595232,-0.396734569314049,-0.396734569314049
1580421735.36183,0.946059357595232,-0.274662394140478,-0.335698481727377
1580421735.36583,0.51880674448762,-0.213626306553806,-0.457770656900948
1580421735.36982,-0.0305180437933359,-0.0305180437933359,-0.396734569314049
1580421735.37381,-0.579842832074519,0.213626306553806,-0.274662394140478
1580421735.37781,-1.0070954451819,0.51880674448762,-0.335698481727377
1580421735.3818,-1.0681315327688,0.579842832074519,-0.51880674448762
1580421735.38579,-1.0681315327688,0.579842832074519,-0.457770656900948
1580421735.38979,-1.0681315327688,0.51880674448762,-0.396734569314049
1580421735.39378,-0.946059357595232,0.213626306553806,-0.396734569314049
1580421735.39777,-0.640878919661191,-0.091554131380235,-0.396734569314049
1580421735.40177,-0.396734569314049,-0.579842832074519,-0.335698481727377
1580421735.40576,-0.457770656900948,-0.885023270008332,-0.51880674448762
1580421735.40976,-0.335698481727377,-1.12916762035547,-0.579842832074519
1580421735.41375,-0.335698481727377,-1.12916762035547,-0.70191500724809
1580421735.41774,-0.396734569314049,-1.19020370794237,-0.823987182421661
1580421735.42174,-0.51880674448762,-1.25123979552905,-1.0070954451819
1580421735.42573,-0.51880674448762,-1.19020370794237,-1.19020370794237
1580421735.42975,-0.579842832074519,-1.12916762035547,-1.37331197070262
1580421735.43374,-0.457770656900948,-0.946059357595232,-1.55642023346309
1580421735.43773,-0.274662394140478,-0.823987182421661,-1.80056458381023
1580421735.44173,0.091554131380235,-0.579842832074519,-1.80056458381023
1580421735.44572,0.335698481727377,-0.274662394140478,-1.9226367589838
1580421735.44972,0.51880674448762,0.0305180437933359,-1.80056458381023
1580421735.45371,0.70191500724809,0.457770656900948,-1.67849240863666
1580421735.4577,0.885023270008332,0.946059357595232,-1.55642023346309
1580421735.4617,1.0681315327688,1.37331197070262,-1.43434805828952
1580421735.46569,1.12916762035547,1.73952849622333,-1.31227588311594
1580421735.46968,1.55642023346309,2.10574502174404,-0.885023270008332
1580421735.47368,1.49538414587619,2.22781719691761,-0.579842832074519
1580421735.47767,1.55642023346309,2.28885328450451,-0.396734569314049
1580421735.48166,1.43434805828952,2.22781719691761,-0.274662394140478
1580421735.48566,1.55642023346309,2.16678110933094,-0.152590218966907
1580421735.48965,1.37331197070262,2.10574502174404,-0.0305180437933359
1580421735.49364,1.43434805828952,2.28885328450451,0.0305180437933359
1580421735.49764,1.25123979552905,2.22781719691761,0.0305180437933359
1580421735.50163,1.0070954451819,2.28885328450451,-0.152590218966907
1580421735.50563,0.885023270008332,2.41092545967808,-0.335698481727377
1580421735.50964,0.70191500724809,2.41092545967808,-0.457770656900948
1580421735.51364,0.640878919661191,2.34988937209118,-0.70191500724809
1580421735.51763,0.335698481727377,2.22781719691761,-0.946059357595232
1580421735.52162,0.213626306553806,2.16678110933094,-0.946059357595232
1580421735.52562,0.091554131380235,2.22781719691761,-0.946059357595232
1580421735.52961,-0.152590218966907,2.16678110933094,-1.0681315327688
1580421735.5336,-0.51880674448762,2.10574502174404,-1.12916762035547
1580421735.5376,-0.823987182421661,2.10574502174404,-1.12916762035547
1580421735.54159,-1.25123979552905,2.04470893415737,-1.0070954451819
1580421735.54558,-1.49538414587619,1.98367284657047,-1.0070954451819
1580421735.54958,-1.55642023346309,1.9226367589838,-0.823987182421661
1580421735.55357,-1.43434805828952,1.98367284657047,-0.579842832074519
1580421735.55756,-1.25123979552905,1.98367284657047,-0.274662394140478
1580421735.56156,-0.885023270008332,2.28885328450451,-0.091554131380235
1580421735.56555,-0.640878919661191,2.41092545967808,-0.0305180437933359
1580421735.56955,-0.274662394140478,2.59403372243833,0.0305180437933359
1580421735.57354,0.152590218966907,2.7771419851988,0.091554131380235
1580421735.57753,0.457770656900948,2.96025024795904,0.0305180437933359
1580421735.58153,0.579842832074519,3.14335851071951,-0.091554131380235
1580421735.58552,0.579842832074519,3.20439459830618,-0.335698481727377
1580421735.58951,0.579842832074519,3.32646677347975,-0.457770656900948
1580421735.5935,0.51880674448762,3.38750286106665,-0.823987182421661
1580421735.59749,0.396734569314049,3.50957503624022,-0.946059357595232
1580421735.60149,0.213626306553806,3.63164721141379,-1.0681315327688
1580421735.60548,0.213626306553806,3.57061112382689,-1.12916762035547
1580421735.60947,0.213626306553806,3.57061112382689,-0.946059357595232
1580421735.61347,0.274662394140478,3.69268329900046,-0.885023270008332
1580421735.61746,0.335698481727377,3.57061112382689,-0.70191500724809
1580421735.62146,0.457770656900948,3.63164721141379,-0.51880674448762
1580421735.62545,0.762951094834762,3.75371938658736,-0.213626306553806
1580421735.62944,1.0681315327688,3.87579156176093,0.0305180437933359
1580421735.63344,1.49538414587619,3.93682764934761,0.396734569314049
1580421735.63743,1.9226367589838,3.93682764934761,0.70191500724809
1580421735.64142,2.34988937209118,4.18097199969475,0.823987182421661
1580421735.64542,2.83817807278547,4.30304417486832,0.946059357595232
1580421735.64941,3.26543068589308,4.54718852521546,1.0070954451819
1580421735.6534,3.63164721141379,4.97444113832307,1.0070954451819
1580421735.6574,3.63164721141379,5.27962157625689,0.823987182421661
1580421735.66139,3.50957503624022,5.34065766384379,0.51880674448762
1580421735.66538,3.26543068589308,5.21858548867021,0.335698481727377
1580421735.66937,2.83817807278547,5.09651331349664,0.091554131380235
1580421735.67337,2.22781719691761,4.97444113832307,-0.335698481727377
1580421735.67736,1.67849240863666,4.97444113832307,-0.579842832074519
1580421735.68135,1.25123979552905,4.8523689631495,-0.762951094834762
1580421735.68535,1.0070954451819,4.73029678797593,-0.885023270008332
1580421735.68934,0.762951094834762,4.30304417486832,-1.0681315327688
1580421735.69333,0.579842832074519,3.93682764934761,-1.12916762035547
1580421735.69733,0.396734569314049,3.50957503624022,-1.0070954451819
1580421735.70132,0.457770656900948,3.20439459830618,-1.0070954451819
1580421735.70531,0.51880674448762,2.83817807278547,-0.823987182421661
1580421735.70931,0.579842832074519,2.59403372243833,-0.579842832074519
1580421735.7133,0.946059357595232,2.22781719691761,-0.579842832074519
1580421735.71729,1.12916762035547,1.98367284657047,-0.396734569314049
1580421735.72129,1.43434805828952,1.80056458381023,-0.274662394140478
1580421735.72528,1.73952849622333,1.73952849622333,-0.335698481727377
1580421735.72927,1.98367284657047,1.73952849622333,-0.274662394140478
1580421735.73327,2.10574502174404,1.55642023346309,-0.152590218966907
1580421735.73726,2.16678110933094,1.55642023346309,-0.213626306553806
1580421735.74126,2.34988937209118,1.49538414587619,-0.335698481727377
1580421735.74525,2.53299763485165,1.67849240863666,-0.457770656900948
1580421735.74927,2.7771419851988,1.73952849622333,-0.396734569314049
1580421735.75326,3.02128633554594,1.98367284657047,-0.51880674448762
1580421735.75725,3.20439459830618,2.16678110933094,-0.579842832074519
1580421735.76125,3.57061112382689,2.28885328450451,-0.51880674448762
1580421735.76524,4.24200808728165,2.59403372243833,-0.51880674448762
1580421735.76923,4.73029678797593,2.7161058976119,-0.51880674448762
1580421735.77323,5.15754940108332,2.83817807278547,-0.396734569314049
1580421735.77722,5.52376592660403,2.7771419851988,-0.274662394140478
1580421735.78121,5.6458381017776,2.83817807278547,-0.213626306553806
1580421735.78521,5.58480201419093,2.65506981002522,-0.396734569314049
1580421735.7892,5.6458381017776,2.47196154726475,-0.51880674448762
1580421735.7932,5.76791027695117,2.59403372243833,-0.762951094834762
1580421735.79719,5.76791027695117,2.59403372243833,-1.0681315327688
1580421735.80118,5.88998245212474,2.47196154726475,-1.80056458381023
1580421735.80518,5.95101853971164,2.53299763485165,-2.22781719691761
1580421735.80917,5.76791027695117,2.47196154726475,-2.65506981002522
1580421735.81316,5.46272983901736,2.53299763485165,-3.02128633554594
1580421735.81716,5.15754940108332,2.47196154726475,-3.14335851071951
1580421735.82115,4.66926070038903,2.28885328450451,-3.14335851071951
1580421735.82514,4.48615243762879,2.16678110933094,-3.02128633554594
1580421735.82913,4.24200808728165,2.16678110933094,-2.83817807278547
1580421735.83312,4.24200808728165,2.41092545967808,-2.53299763485165
1580421735.83712,4.11993591210808,2.7161058976119,-2.16678110933094
1580421735.84111,4.30304417486832,3.02128633554594,-1.73952849622333
1580421735.84511,4.30304417486832,3.50957503624022,-1.25123979552905
1580421735.8491,4.30304417486832,3.87579156176093,-0.762951094834762
1580421735.85309,4.30304417486832,4.18097199969475,-0.274662394140478
1580421735.85709,4.54718852521546,4.42511635004189,0.0305180437933359
1580421735.86108,5.03547722590974,4.60822461280236,0.396734569314049
1580421735.86507,5.34065766384379,4.7913328755626,0.396734569314049
1580421735.86907,5.52376592660403,4.66926070038903,0.396734569314049
1580421735.87306,5.7068741893645,4.66926070038903,0.396734569314049
1580421735.87705,5.82894636453807,4.42511635004189,0.152590218966907
1580421735.88105,5.7068741893645,4.11993591210808,-0.091554131380235
1580421735.88504,5.6458381017776,3.93682764934761,-0.396734569314049
1580421735.88903,5.58480201419093,3.69268329900046,-0.70191500724809
1580421735.89303,5.58480201419093,3.57061112382689,-0.946059357595232
1580421735.89702,5.58480201419093,3.50957503624022,-1.12916762035547
1580421735.90102,5.7068741893645,3.81475547417404,-1.37331197070262
1580421735.90501,5.88998245212474,4.11993591210808,-1.61745632104976
1580421735.90903,6.01205462729831,4.66926070038903,-1.8616006713969
1580421735.91302,6.37827115281902,5.15754940108332,-1.8616006713969
1580421735.91701,6.56137941557949,5.58480201419093,-2.04470893415737
1580421735.92101,6.80552376592664,6.07309071488521,-2.16678110933094
1580421735.925,6.68345159075307,6.25619897764545,-2.22781719691761
1580421735.92899,6.92759594110021,6.43930724040592,-2.41092545967808
1580421735.93299,7.04966811627378,6.62241550316617,-2.22781719691761
1580421735.93698,7.11070420386045,6.74448767833974,-2.28885328450451
1580421735.94097,6.98863202868688,6.92759594110021,-2.28885328450451
1580421735.94497,7.17174029144735,7.04966811627378,-2.10574502174404
1580421735.94896,7.47692072938116,7.11070420386045,-1.80056458381023
1580421735.95296,7.53795681696806,7.11070420386045,-1.61745632104976
1580421735.95695,7.59899290455473,7.04966811627378,-1.43434805828952
1580421735.96094,7.47692072938116,6.98863202868688,-1.31227588311594
1580421735.96494,7.04966811627378,6.80552376592664,-1.31227588311594
1580421735.96893,6.74448767833974,6.56137941557949,-1.49538414587619
1580421735.97292,6.62241550316617,6.13412680247188,-1.73952849622333
1580421735.97692,6.80552376592664,5.76791027695117,-1.9226367589838
1580421735.98091,7.23277637903402,5.03547722590974,-2.34988937209118
1580421735.9849,7.59899290455473,4.30304417486832,-2.7771419851988
1580421735.98889,7.84313725490188,3.26543068589308,-3.26543068589308
1580421735.99288,7.90417334248878,2.10574502174404,-3.87579156176093
1580421735.99688,7.72106507972831,0.946059357595232,-4.48615243762879
1580421736.00087,7.53795681696806,-0.213626306553806,-4.91340505073617
1580421736.00486,7.35484855420759,-1.31227588311594,-5.46272983901736
1580421736.00886,7.35484855420759,-2.22781719691761,-5.88998245212474
1580421736.01285,7.29381246662092,-2.96025024795904,-6.25619897764545
1580421736.01685,7.29381246662092,-3.69268329900046,-6.25619897764545
1580421736.02084,7.17174029144735,-4.36408026245522,-6.31723506523235
1580421736.02483,7.11070420386045,-4.8523689631495,-6.25619897764545
1580421736.02883,7.17174029144735,-5.46272983901736,-6.01205462729831
1580421736.03282,7.35484855420759,-5.7068741893645,-5.82894636453807
1580421736.03681,7.7821011673152,-5.88998245212474,-5.7068741893645
1580421736.04081,8.51453421835663,-6.07309071488521,-5.46272983901736
1580421736.0448,9.4300755321583,-5.95101853971164,-5.34065766384379
1580421736.04879,10.3456168459602,-5.76791027695117,-5.09651331349664
1580421736.05279,11.2611581597619,-5.58480201419093,-4.8523689631495
1580421736.05678,12.1156633859769,-5.52376592660403,-4.66926070038903
1580421736.06077,12.7260242618447,-5.34065766384379,-4.48615243762879
1580421736.06477,12.9091325246052,-5.40169375143046,-4.36408026245522
1580421736.06876,13.0922407873654,-5.52376592660403,-4.30304417486832
1580421736.07275,13.1532768749523,-5.6458381017776,-4.18097199969475
1580421736.07674,13.2753490501259,-5.58480201419093,-4.05889982452118
1580421736.08074,13.4584573128861,-5.40169375143046,-3.99786373693451
1580421736.08473,13.5805294880597,-5.21858548867021,-3.93682764934761
1580421736.08872,13.4584573128861,-5.09651331349664,-4.05889982452118
1580421736.09272,13.5805294880597,-4.91340505073617,-4.30304417486832
1580421736.09671,13.4584573128861,-4.91340505073617,-4.36408026245522
1580421736.1007,13.4584573128861,-4.73029678797593,-4.54718852521546
1580421736.1047,13.1532768749523,-4.66926070038903,-4.60822461280236
1580421736.10869,12.9091325246052,-4.7913328755626,-4.91340505073617
1580421736.11268,12.1766994735638,-5.09651331349664,-5.27962157625689
1580421736.11668,11.0780498970016,-5.52376592660403,-5.58480201419093
1580421736.12067,9.61318379491877,-6.07309071488521,-5.88998245212474
1580421736.12467,7.90417334248878,-6.5003433279926,-6.31723506523235
1580421736.12866,6.37827115281902,-7.04966811627378,-6.62241550316617
1580421736.13265,4.73029678797593,-7.72106507972831,-7.11070420386045
1580421736.13664,3.38750286106665,-8.39246204318306,-7.59899290455473
1580421736.14064,2.34988937209118,-9.00282291905091,-8.27038986800949
1580421736.14463,1.55642023346309,-9.61318379491877,-8.6366063935302
1580421736.14865,0.946059357595232,-9.91836423285258,-9.18593118181116
1580421736.15264,0.762951094834762,-10.2845807583733,-9.67421988250544
1580421736.15664,0.885023270008332,-10.7118333714809,-10.1625085831997
1580421736.16063,1.0681315327688,-11.2611581597619,-10.650797283894
1580421736.16462,1.12916762035547,-12.0546272983902,-11.0170138094147
1580421736.16862,1.49538414587619,-13.1532768749523,-11.3221942473488
1580421736.17261,1.43434805828952,-14.6181429770352,-11.6884107728695
1580421736.1766,1.12916762035547,-16.2661173418783,-11.9935912108033
1580421736.1806,0.823987182421661,-18.0971999694818,-12.359807736324
1580421736.18459,0.274662394140478,-20.1113908598459,-12.5429159990845
1580421736.18859,-0.51880674448762,-21.9424734874494,-12.8480964370183
1580421736.19258,-1.49538414587619,-23.8956282902266,-13.214312962539
1580421736.19657,-2.34988937209118,-25.9098191805904,-13.5805294880597
1580421736.20057,-3.14335851071951,-27.8629739833675,-14.0077821011673
1580421736.20456,-3.57061112382689,-29.9382009613182,-14.4350347142747
1580421736.20855,-3.99786373693451,-32.3186083772032,-14.8622873273823
1580421736.21255,-4.11993591210808,-34.8210879682613,-15.4726482032502
1580421736.21654,-4.24200808728165,-37.4456397344932,-16.083009079118
1580421736.22053,-4.18097199969475,-40.1922636758984,-16.632333867399
1580421736.22453,-4.05889982452118,-43.183031967651,-17.2426947432668
1580421736.22851,-3.75371938658736,-46.2348363469903,-17.6699473563745
1580421736.23251,-3.32646677347975,-49.2256046387427,-18.1582360570687
1580421736.2365,-2.7161058976119,-52.2163729304953,-18.5854886701761
1580421736.2405,-2.10574502174404,-55.2071412222476,-19.0737773708704
1580421736.24449,-1.37331197070262,-58.1979095140002,-19.3789578088044
1580421736.24848,-0.51880674448762,-61.5548943312733,-19.6841382467383
1580421736.25248,0.0305180437933359,-65.1560234988938,-19.8672465094987
1580421736.25647,-0.0305180437933359,-69.0012970168611,-19.9893186846723
1580421736.26046,-0.51880674448762,-72.9076066224154,-20.050354772259
1580421736.26446,-1.43434805828952,-77.4242771038375,-19.7451743343252
1580421736.26845,-2.34988937209118,-82.7954528114747,-19.5620660715647
1580421736.27244,-2.10574502174404,-88.3497367818723,-19.3789578088044
1580421736.27644,-0.213626306553806,-94.5754177157246,-18.8296330205233
1580421736.28043,1.9226367589838,-102.082856488899,-18.0971999694818
1580421736.28442,2.96025024795904,-110.200656137942,-17.1206225680933
1580421736.28842,2.47196154726475,-119.295033188373,-16.083009079118
1580421736.29241,1.9226367589838,-129.97634851606,-14.4350347142747
1580421736.2964,1.9226367589838,-142.977035172045,-12.664988174258
1580421736.3004,2.59403372243833,-161.043717097734,-10.2235446707866
1580421736.30439,2.41092545967808,-184.237430380713,-7.47692072938116
1580421736.30838,-0.457770656900948,-209.445334554055,-4.54718852521546
1580421736.31237,-6.07309071488521,-231.662470435645,-2.16678110933094
1580421736.31637,-14.2519264515145,-242.099641412985,-0.640878919661191
1580421736.32036,-25.6046387426566,-241.06202792401,-0.640878919661191
1580421736.32435,-38.6663614862289,-229.953459983215,-2.28885328450451
1580421736.32835,-51.0566872663462,-207.797360189212,-4.48615243762879
1580421736.33234,-62.4093995574883,-183.443961242084,-5.95101853971164
1580421736.33633,-70.8323796444647,-167.513542381933,-7.23277637903402
1580421736.34033,-73.4569314106966,-159.273670557717,-8.81971465629044
1580421736.34432,-66.7429617761502,-159.578850995651,-10.8339055466545
1580421736.34832,-50.6294346532388,-167.452506294347,-13.7026016632333
1580421736.35231,-30.2433813992523,-174.898908979935,-17.9751277943083
1580421736.3563,-11.7494468604561,-174.166475928893,-24.6890974288547
1580421736.36029,2.59403372243833,-166.353856717785,-34.1496910048068
1580421736.36429,15.6557564660104,-157.259479667353,-44.2816815442131
1580421736.36828,30.2433813992523,-148.836499580377,-53.0708781567103
1580421736.37228,46.2348363469901,-139.803158617533,-60.1510643167774
1580421736.37627,61.3717860685128,-130.464637216754,-65.5222400244145
1580421736.38026,73.5790035858704,-122.652018005646,-69.5506218051423
1580421736.38426,81.7578393224994,-116.48737315938,-71.5648126955061
1580421736.38827,86.152437628748,-109.956511787595,-71.2596322575723
1580421736.39227,87.7393759060046,-102.082856488899,-68.3299000534066
1580421736.39626,87.861448081178,-92.6832990005339,-63.7521934843976
1580421736.40025,87.4952315556575,-82.3682001983673,-56.7330434119174
1580421736.40425,86.3965819790951,-72.1141374837873,-48.1879911497674
1580421736.40824,82.9785610742351,-63.5690852216374,-38.3001449607082
1580421736.41224,78.0346379797056,-58.3810177767605,-29.0226596475165
1580421736.41623,71.7479209582666,-56.6109712367438,-20.2334630350194
1580421736.42022,64.4846265354395,-57.2213321126117,-13.214312962539
1580421736.42422,57.2823682001981,-58.9303425650417,-7.59899290455473
1580421736.42821,50.5073624780648,-61.1886778057526,-3.57061112382689
1580421736.4322,44.0375371938658,-63.4470130464638,-0.885023270008332
1580421736.4362,37.384603646906,-65.2780956740673,0.51880674448762
1580421736.44019,29.6940566109711,-66.3767452506295,0.579842832074519
1580421736.44418,20.4776073853666,-67.048142214084,-0.457770656900948
1580421736.44818,9.85732814526591,-67.4753948271916,-2.34988937209118
1580421736.45217,-1.9226367589838,-67.3533226520181,-4.66926070038903
1580421736.45616,-13.5805294880597,-67.4143587396047,-6.98863202868688
1580421736.46016,-25.2994583047225,-67.4753948271916,-9.4911116197452
1580421736.46415,-37.6897840848403,-67.5364309147783,-11.810482948043
1580421736.46814,-50.6904707408255,-67.6585030899519,-14.068818188754
1580421736.47213,-64.1184100099183,-67.6585030899519,-16.0219729915311
1580421736.47613,-77.9125658045318,-67.5364309147783,-17.9140917067216
1580421736.48012,-91.4015411612115,-67.5364309147783,-19.5620660715647
1580421736.48411,-104.036011291676,-67.5364309147783,-21.0879682612344
1580421736.48811,-114.77836270695,-66.8650339513238,-22.4307621881437
1580421736.4921,-122.652018005646,-65.9494926375219,-23.468375677119
1580421736.49609,-127.229724574655,-64.6066987106126,-24.0177004654001
1580421736.50009,-128.45044632639,-63.2028686961166,-24.2618448157473
1580421736.50408,-126.5583276112,-61.7990386816205,-24.322880903334
1580421736.50807,-122.468909742885,-59.7238117036698,-23.8956282902266
1580421736.51207,-116.853589684901,-57.2823682001983,-22.9800869764247
1580421736.51606,-110.017547875181,-54.2305638208591,-21.8204013122759
1580421736.52005,-102.693217364767,-50.6904707408255,-20.5386434729533
1580421736.52405,-94.8195620660717,-46.3569085221638,-18.8906691081102
1580421736.52804,-86.8238345922025,-41.5350576028077,-16.5712977798123
1580421736.53203,-78.7670710307468,-36.2249179827575,-14.1298542763409
1580421736.53603,-70.3440909437704,-30.5485618371861,-11.505302510109
1580421736.54002,-61.8600747692074,-24.6890974288547,-8.6366063935302
1580421736.54402,-53.0708781567103,-18.9517051956968,-5.6458381017776
1580421736.548,-44.2816815442131,-12.9701686121919,-2.59403372243833
1580421736.552,-35.187304493782,-7.23277637903402,0.274662394140478
1580421736.55599,-26.2760357061111,-2.10574502174404,3.20439459830618
1580421736.55998,-17.1816586556802,2.16678110933094,5.82894636453807
1580421736.56398,-8.51453421835663,5.46272983901736,8.02624551766235
1580421736.56797,-0.335698481727377,7.59899290455473,9.97940032043948
1580421736.57196,7.35484855420759,8.45349813076973,11.6273746852826
1580421736.57596,14.1298542763409,8.08728160524902,12.5429159990845
1580421736.57995,19.8672465094987,6.68345159075307,13.0312046997788
1580421736.58395,24.8722056916151,4.18097199969475,13.214312962539
1580421736.58794,29.3278400854504,1.37331197070262,12.9091325246052
1580421736.59193,33.2951857785915,-1.73952849622333,12.1156633859769
1580421736.59593,37.0183871213853,-4.66926070038903,11.2611581597619
1580421736.59992,40.802624551766,-7.23277637903402,10.0404364080262
1580421736.60391,44.6478980697336,-9.00282291905091,8.75867856870377
1580421736.60791,48.7373159380481,-10.4676890211338,7.47692072938116
1580421736.6119,53.0098420691234,-11.810482948043,6.43930724040592
1580421736.61589,57.4044403753719,-12.9701686121919,5.46272983901736
1580421736.61989,61.4938582436862,-14.0077821011673,4.91340505073617
1580421736.62388,65.2170595864809,-15.1064316777295,4.18097199969475
1580421736.6279,68.8181887541009,-16.2661173418783,3.63164721141379
1580421736.63189,72.6024261844818,-17.3647669184404,3.02128633554594
1580421736.63589,76.264591439689,-18.4634164950025,2.47196154726475
1580421736.63988,79.9267566948961,-19.6231021591516,1.73952849622333
1580421736.64387,82.7954528114751,-20.6607156481268,0.823987182421661
1580421736.64787,84.5044632639051,-21.6372930495154,-0.152590218966907
1580421736.65186,84.443427176318,-22.2476539253832,-0.946059357595232
1580421736.65585,82.9175249866485,-22.0035095750361,-1.61745632104976
1580421736.65985,80.0488288700694,-20.1113908598459,-1.98367284657047
1580421736.66384,75.8373388265813,-16.6933699549859,-1.43434805828952
1580421736.66783,71.0154879072252,-12.6039520866711,-0.274662394140478
1580421736.67183,65.7663843747619,-8.51453421835663,1.37331197070262
1580421736.67582,60.1510643167771,-4.8523689631495,3.57061112382689
1580421736.67981,54.4136720836191,-1.55642023346309,5.95101853971164
1580421736.68381,48.6152437628748,1.0681315327688,8.51453421835663
1580421736.6878,42.8778515297167,3.14335851071951,10.7118333714809
1580421736.69179,37.0794232089722,4.48615243762879,12.9091325246052
1580421736.69579,30.9147783627068,5.15754940108332,14.8012512397954
1580421736.69978,23.8345922026397,5.46272983901736,16.083009079118
1580421736.70378,15.8999008163576,5.82894636453807,16.7544060425726
1580421736.70776,7.59899290455473,6.01205462729831,16.6933699549859
1580421736.71176,-0.70191500724809,6.56137941557949,16.2050812542916
1580421736.71575,-8.27038986800949,7.35484855420759,15.4116121156633
1580421736.71974,-15.4116121156633,8.5755703059433,14.373998626688
1580421736.72374,-22.7359426260775,10.5287251087204,13.1532768749523
1580421736.72773,-30.1823453116654,12.9701686121919,12.0546272983902
1580421736.73172,-35.9807736324103,15.6557564660104,11.2001220721752
1580421736.73572,-39.0936140993363,17.6699473563745,10.650797283894
1580421736.73971,-39.7039749752041,17.9140917067216,10.8339055466545
1580421736.74371,-37.9949645227741,16.2050812542916,11.5663385976959
1580421736.7477,-35.4314488441291,13.4584573128861,12.9701686121919
1580421736.75169,-31.8303196765089,11.0780498970016,15.5947203784237
1580421736.75568,-26.5201800564582,8.27038986800949,18.7075608453497
1580421736.75968,-18.8296330205233,3.75371938658736,22.613870450904
1580421736.76367,-9.36903944457163,-5.21858548867021,27.3746852826732
1580421736.76767,-0.152590218966907,-19.1348134584573,32.5017166399632
1580421736.77166,5.58480201419093,-35.0041962310218,37.5677119096665
1580421736.77565,6.62241550316617,-48.5542076752881,41.5960936903944
1580421736.77965,1.98367284657047,-57.4654764629588,44.1596093690393
1580421736.78364,-9.18593118181116,-60.8834973678188,44.5258258945601
1580421736.78763,-26.337071793698,-57.4654764629588,43.0609597924772
1580421736.79162,-48.6152437628748,-43.3661402304112,40.9857328145265
1580421736.79561,-74.2504005493247,-16.3271534294652,38.3001449607079
1580421736.79961,-97.1389333943696,18.4023804074159,36.2859540703439
1580421736.8036,-109.956511787595,51.8501564049743,35.7366292820629
1580421736.8076,-107.942320897231,76.5087357900361,37.8728923476003
1580421736.81159,-90.6080720225832,88.4107728694594,42.1454184786753
1580421736.81558,-63.2639047837033,88.1666285191122,47.8217746242465
1580421736.81958,-34.0276188296332,80.9643701838713,53.5591668574043
1580421736.82357,-10.2235446707866,72.0531013962009,57.4044403753719
1580421736.82756,4.48615243762879,62.1042191195543,58.5030899519338
1580421736.83156,8.81971465629044,51.1177233539329,57.5875486381319
1580421736.83555,3.69268329900046,41.3519493400472,56.4278629739833
1580421736.83954,-9.30800335698473,35.5535210193025,56.1837186236362
1580421736.84354,-27.191577019913,34.4548714427403,56.3057907988095
1580421736.84753,-43.7933928435189,37.6287479972532,55.5123216601814
1580421736.85152,-51.4229037918669,43.5492484931715,54.1695277332719
1580421736.85552,-46.3569085221638,50.9346150911724,52.7046616311891
1580421736.85951,-30.4264896620125,58.5641260395205,50.9346150911724
1580421736.8635,-10.7728694590676,64.7287708857866,49.3476768139162
1580421736.86752,4.97444113832307,70.2830548561838,47.3945220111389
1580421736.87152,14.5571068894483,75.9594110017551,44.0985732814524
1580421736.87551,19.7451743343252,81.8188754100865,39.6429388876172
1580421736.8795,23.468375677119,86.2745098039218,34.8210879682611
1580421736.8835,26.8863965819789,87.6173037308308,30.6706340123596
1580421736.88749,30.4264896620125,85.2979324025332,27.7409018081939
1580421736.89148,34.5769436179139,79.4995040817885,26.1539635309375
1580421736.89548,39.4598306248567,71.3206683451594,25.7267109178301
1580421736.89947,43.1219958800639,63.8742656595714,25.4215304798961
1580421736.90346,43.1830319676508,59.6627756160829,25.1163500419623
1580421736.90746,38.7884336614022,59.6627756160829,25.1163500419623
1580421736.91145,32.3796444647896,63.9963378347452,24.9332417792018
1580421736.91544,27.9240100709544,71.5037766079195,24.3839169909209
1580421736.91944,28.5954070344089,80.0488288700694,23.4073395895323
1580421736.92343,35.7976653696496,89.1432059205008,22.3086900129701
1580421736.92742,48.6152437628748,98.2986190585184,21.5762569619287
1580421736.93142,64.6066987106128,106.538490882735,21.6983291371023
1580421736.93541,80.4150453955904,112.214847028305,22.5528343633173
1580421736.93941,91.7067215991456,115.022507057298,24.322880903334
1580421736.9434,94.9416342412451,114.534218356604,26.1539635309375
1580421736.94739,89.0821698329137,111.543450064851,27.191577019913
1580421736.95138,75.3490501258871,107.331960021363,26.7032883192187
1580421736.95537,57.4654764629586,102.327000839246,24.7501335164416
1580421736.95937,39.6429388876172,96.5896086060884,21.6983291371023
1580421736.96336,24.2618448157473,90.1197833218894,18.0971999694818
1580421736.96736,11.3832303349354,83.894102388037,14.4350347142747
1580421736.97135,0.457770656900948,78.3398184176394,11.3832303349354
1580421736.97534,-8.33142595559616,74.0672922865647,9.36903944457163
1580421736.97933,-14.3129625391011,71.6258487830933,8.6366063935302
1580421736.98333,-16.632333867399,71.1985961699856,9.24696726939806
1580421736.98732,-14.9843595025559,72.846570534829,10.8339055466545
1580421736.99132,-9.85732814526591,76.3866636148623,13.0922407873654
1580421736.99531,-2.41092545967808,81.2085145342185,15.5336842908368
1580421736.9993,6.37827115281902,86.8238345922027,17.9140917067216
1580421737.0033,14.923323414969,92.2560463874265,19.7451743343252
1580421737.00729,21.8814373998625,97.3220416571298,21.210040436408
1580421737.01128,26.5201800564582,101.350423437858,22.4917982757304
1580421737.01528,28.7174792095825,104.15808346685,23.4073395895323
1580421737.01927,29.2057679102768,105.928130006866,24.2008087281604
1580421737.02326,28.5343709468223,106.782635233082,24.9332417792018
1580421737.02728,27.8019378957808,106.904707408255,25.8487830930037
1580421737.03128,26.7643244068054,106.294346532387,27.3746852826732
1580421737.03527,25.2384222171358,105.378805218586,29.0226596475165
1580421737.03926,23.6514839398794,104.402227817197,30.7927061875332
1580421737.04326,21.759365224689,104.280155642024,32.3796444647896
1580421737.04725,20.1724269474325,104.34119172961,33.7834744792858
1580421737.05124,19.3789578088044,104.890516517891,34.7600518806744
1580421737.05524,19.3789578088044,105.561913481346,35.3093766689553
1580421737.05923,20.1113908598459,106.477454795148,35.2483405813687
1580421737.06322,21.0269321736475,107.392996108949,34.5769436179139
1580421737.06722,21.759365224689,108.369573510338,33.4782940413518
1580421737.07121,21.9424734874494,109.163042648966,31.5861753261615
1580421737.0752,21.6983291371023,109.895475700008,29.4499122606239
1580421737.0792,20.9658960860609,110.505836575875,27.0084687571525
1580421737.08319,20.1113908598459,110.933089188983,24.2618448157473
1580421737.08718,19.501029983978,110.566872663462,21.0269321736475
1580421737.09118,19.2568856336309,109.651331349661,17.9140917067216
1580421737.09517,19.195849546044,108.674753948272,15.0453955901426
1580421737.09917,19.0127412832837,107.881284809644,12.1156633859769
1580421737.10316,18.8296330205233,106.782635233082,9.4911116197452
1580421737.10715,18.7685969329366,105.073624780652,6.74448767833974
1580421737.11114,18.7075608453497,103.486686503395,4.42511635004189
1580421737.11513,19.0737773708704,102.204928664073,2.7771419851988
1580421737.11913,19.8672465094987,101.289387350271,0.946059357595232
1580421737.12312,21.2710765239947,100.251773861296,-0.0305180437933359
1580421737.12711,22.7969787136644,99.3972686350808,-0.762951094834762
1580421737.13111,23.773556115053,98.1155107957579,-1.31227588311594
1580421737.1351,24.0787365529868,96.4675364309151,-6.19516289005878
1580421737.13909,23.7125200274661,93.1105516136417,-10.8949416342411
1580421737.14309,21.6372930495154,90.3028915846494,-12.4818799114976
1580421737.14708,17.1816586556802,90.5470359349965,-8.33142595559616
1580421737.15107,9.79629205767901,88.9600976577403,0.70191500724809
1580421737.15507,2.65506981002522,85.603112840467,5.21858548867021
1580421737.15906,-3.26543068589308,82.3071641107808,8.6366063935302
1580421737.16306,-7.41588464179449,81.3916227969789,10.0404364080262
1580421737.16705,-10.4066529335469,81.025406271458,12.8480964370183
1580421737.17104,-13.3363851377126,83.1616693369956,15.5947203784237
1580421737.17504,-15.5947203784237,84.3213550011446,17.1816586556802
1580421737.17903,-16.9985503929197,85.7862211032275,18.341344319829
1580421737.18302,-17.4258030060273,88.5328450446327,19.0127412832837
1580421737.18701,-17.3037308308537,91.5236133363851,19.3789578088044
1580421737.191,-16.8154421301595,94.0260929274436,19.6231021591516
1580421737.195,-16.5712977798123,96.3454642557413,19.6841382467383
1580421737.19899,-16.3271534294652,98.2986190585184,19.501029983978
1580421737.20298,-16.1440451667047,100.556954299229,19.3179217212175
1580421737.20698,-15.1674677653161,103.059433890288,19.3179217212175
1580421737.21097,-13.7026016632333,105.561913481346,19.3179217212175
1580421737.21497,-11.2611581597619,108.003356984817,19.1348134584573
1580421737.21896,-7.90417334248878,110.017547875181,19.0127412832837
1580421737.22295,-4.30304417486832,111.360341802091,19.0127412832837
1580421737.22695,-1.8616006713969,112.336919203479,19.0737773708704
1580421737.23094,-1.0070954451819,113.435568780041,19.195849546044
1580421737.23493,-1.12916762035547,114.778362706951,19.6231021591516
1580421737.23893,-1.37331197070262,115.815976195926,19.9282825970854
1580421737.24292,-0.51880674448762,116.853589684901,20.5386434729533
1580421737.24691,1.25123979552905,117.586022735943,21.5762569619287
1580421737.25091,3.57061112382689,117.708094911116,22.7359426260775
1580421737.2549,5.40169375143046,117.463950560769,23.8345922026397
1580421737.25889,5.6458381017776,116.792553597315,24.8111696040282
1580421737.26289,3.87579156176093,115.632867933165,25.2994583047225
1580421737.26691,0.335698481727377,114.106965743496,25.1773861295489
1580421737.2709,-4.05889982452118,111.848630502785,24.1397726405737
1580421737.27489,-8.88075074387734,108.491645685512,22.4917982757304
1580421737.27889,-13.5805294880597,104.34119172961,20.1724269474325
1580421737.28288,-17.9751277943083,100.068665598535,17.5478751812009
1580421737.28687,-20.7217517357137,95.6130312046998,14.7402151522087
1580421737.29087,-21.3321126115816,90.9742885481041,12.2377355611504
1580421737.29486,-20.2334630350194,85.3589684901199,9.91836423285258
1580421737.29885,-18.4023804074159,78.7060349431604,8.08728160524902
1580421737.30285,-16.4492256046387,71.5648126955066,6.5003433279926
1580421737.30684,-15.1064316777295,64.9729152361338,5.09651331349664
1580421737.31083,-13.6415655756466,59.1134508278019,4.05889982452118
1580421737.31483,-12.1156633859769,53.6812390325777,3.57061112382689
1580421737.31882,-9.97940032043948,48.6762798504615,3.69268329900046
1580421737.32282,-6.98863202868688,43.7933928435186,4.30304417486832
1580421737.32681,-3.32646677347975,39.1546501869229,5.46272983901736
1580421737.3308,0.946059357595232,34.5769436179139,6.86655985351331
1580421737.3348,5.6458381017776,30.7927061875332,8.45349813076973
1580421737.33879,11.0780498970016,27.7409018081939,10.0404364080262
1580421737.34278,17.486839093614,25.6046387426566,11.6273746852826
1580421737.34677,26.2149996185244,23.6514839398794,13.214312962539
1580421737.35076,36.6521705958646,21.1490043488211,14.4960708018616
1580421737.35476,49.042496375982,18.2192721446554,15.1674677653161
1580421737.35875,62.4704356450748,15.4726482032502,15.0453955901426
1580421737.36275,75.8373388265813,13.2753490501259,14.4350347142747
1580421737.36674,88.2276646066989,11.2611581597619,13.0312046997788
1580421737.37073,98.7869077592127,8.08728160524902,11.2611581597619
1580421737.37472,105.439841306172,3.87579156176093,9.12489509422448
1580421737.37872,108.186465247578,-1.0681315327688,6.68345159075307
1580421737.38271,107.942320897231,-6.86655985351331,3.93682764934761
1580421737.38671,106.111238269627,-12.9701686121919,0.640878919661191
1580421737.3907,103.364614328222,-18.8296330205233,-2.83817807278547
1580421737.39469,99.4583047226674,-23.5904478522925,-6.01205462729831
1580421737.39869,94.6364538033113,-27.8629739833675,-9.12489509422448
1580421737.40268,89.2042420080875,-33.1731136034182,-11.4442664225223
1580421737.40667,84.1382467383842,-40.0701915007248,-13.0922407873654
1580421737.41067,80.0488288700694,-47.9438467994203,-14.1298542763409
1580421737.41466,77.424277103838,-57.0992599374381,-14.6181429770352
1580421737.41865,76.264591439689,-67.5364309147783,-14.8622873273823
1580421737.42265,75.4711223010609,-79.3774319066147,-14.9843595025559
1580421737.42664,73.9452201113909,-92.6832990005339,-15.3505760280766
1580421737.43063,70.4661631189442,-107.087815671016,-15.777828641184
1580421737.43462,64.4846265354395,-120.698863202869,-16.5102616922254
1580421737.43862,56.3668268863962,-131.807431143664,-17.9751277943083
1580421737.44261,46.6620889600974,-142.549782558938,-20.8438239108873
1580421737.4466,35.9807736324101,-152.315556572824,-25.7877470054168
1580421737.4506,25.6656748302432,-159.517814908065,-32.4406805523768
1580421737.45459,17.0595864805066,-162.752727550164,-40.4974441138324
1580421737.45858,13.3363851377126,-162.935835812925,-49.4087129015031
1580421737.46258,14.6181429770352,-162.569619287404,-58.6861982146945
1580421737.46657,17.0595864805066,-163.851377126726,-68.0857557030595
1580421737.47056,17.3037308308537,-167.452506294347,-77.4242771038375
1580421737.47456,16.2661173418783,-172.33539330129,-86.3965819790951
1580421737.47855,19.3789578088044,-177.035172045472,-94.9416342412453
1580421737.48254,28.5343709468223,-179.903868162051,-102.021820401312
1580421737.48654,39.5208667124436,-182.77256427863,-106.233310444801
1580421737.49053,47.7607385366596,-187.838559548333,-106.965743495842
1580421737.49452,52.3384451056686,-195.284962233921,-103.852903028916
1580421737.49852,55.9395742732891,-202.059967956054,-97.4441138323034
1580421737.50251,62.592507820249,-203.341725795377,-89.5094224460211
1580421737.50653,73.3958953231099,-197.848477912566,-80.9643701838711
1580421737.51052,87.6173037308308,-189.059281300069,-72.5413900968947
1580421737.51452,102.63218127718,-180.086976424811,-63.1418326085297
1580421737.51851,115.632867933165,-173.678187228199,-53.0708781567103
1580421737.5225,123.018234531166,-169.649805447471,-42.0843823910889
1580421737.5265,122.041657129778,-165.194171053636,-31.2809948882277
1580421737.53049,112.031738765545,-160.494392309453,-20.2944991226061
1580421737.53448,95.1857785915922,-158.236057068742,-9.91836423285258
1580421737.53848,75.4711223010609,-159.334706645304,-0.396734569314049
1580421737.54247,57.2823682001981,-162.752727550164,7.04966811627378
1580421737.54646,42.3895628290225,-168.123903257801,12.2987716487373
1580421737.55046,29.9992370489051,-174.715800717174,15.6557564660104
1580421737.55445,18.8296330205233,-180.697337300679,17.1816586556802
1580421737.55845,8.20935378042259,-184.48157473106,16.9985503929197
1580421737.56244,-1.73952849622333,-186.251621271077,15.4116121156633
1580421737.56643,-10.7118333714809,-186.007476920729,12.7260242618447
1580421737.57043,-19.8672465094987,-185.030899519341,9.4300755321583
1580421737.57442,-29.2057679102768,-183.382925154498,6.13412680247188
1580421737.57841,-36.9573510337989,-181.612878614481,3.20439459830618
1580421737.58241,-41.1078049897003,-178.744182497902,1.43434805828952
1580421737.5864,-39.3987945372703,-175.509269855802,0.823987182421661
1580421737.59039,-31.6472114137484,-171.969176775769,1.98367284657047
1580421737.59438,-19.9282825970854,-168.062867170215,4.11993591210808
1580421737.59837,-7.17174029144735,-164.278629739834,6.80552376592664
1580421737.60237,3.57061112382689,-160.860608834974,9.61318379491877
1580421737.60636,10.955977721828,-158.236057068742,11.7494468604561
1580421737.61036,14.5571068894483,-156.527046616312,13.2753490501259
1580421737.61435,15.3505760280766,-155.733577477684,13.8857099259938
1580421737.61834,15.228503852903,-155.245288776989,13.519493400473
1580421737.62234,14.8622873273823,-154.940108339055,12.4818799114976
1580421737.62633,15.1674677653161,-154.695963988708,11.0170138094147
1580421737.63032,16.2050812542916,-154.207675288014,9.24696726939806
1580421737.63432,17.7309834439611,-153.231097886625,7.23277637903402
1580421737.63831,19.4399938963911,-152.01037613489,5.09651331349664
1580421737.6423,21.0269321736475,-150.728618295567,2.96025024795904
1580421737.6463,21.759365224689,-149.141680018311,1.12916762035547
1580421737.65029,21.4541847867551,-148.104066529335,-0.274662394140478
1580421737.65428,20.050354772259,-147.188525215534,-1.43434805828952
1580421737.65828,17.0595864805066,-146.700236514839,-2.10574502174404
1580421737.66227,12.664988174258,-146.089875638972,-2.28885328450451
1580421737.66626,6.98863202868688,-144.991226062409,-2.16678110933094
1580421737.67025,0.335698481727377,-143.46532387274,-1.8616006713969
1580421737.67425,-7.29381246662092,-141.451132982376,-1.31227588311594
1580421737.67824,-15.7167925535973,-139.192797741665,-1.0681315327688
1580421737.68223,-24.7501335164416,-136.568245975433,-1.0070954451819
1580421737.68623,-34.2717631799803,-133.39436942092,-1.31227588311594
1580421737.69022,-44.037537193866,-129.427023727779,-1.8616006713969
1580421737.69421,-53.5591668574045,-125.276569771878,-2.83817807278547
1580421737.69821,-62.4093995574883,-120.881971465629,-3.87579156176093
1580421737.7022,-70.2220187685969,-115.815976195926,-5.21858548867021
1580421737.70619,-76.6308079652094,-110.505836575875,-6.43930724040592
1580421737.71019,-82.2461280231937,-104.829480430305,-7.72106507972831
1580421737.71418,-87.4952315556573,-99.0920881971467,-8.75867856870377
1580421737.71817,-92.8053711757075,-93.7209124895094,-9.91836423285258
1580421737.72217,-98.4817273212789,-88.1666285191118,-10.8949416342411
1580421737.72616,-104.951552605478,-82.4902723735408,-11.6884107728695
1580421737.73016,-112.275883115892,-77.1190966659037,-12.1766994735638
1580421737.73415,-120.210574502174,-71.9920653086137,-12.6039520866711
1580421737.73814,-128.572518501564,-67.1702143892576,-12.8480964370183
1580421737.74214,-136.62928206302,-62.7145799954224,-12.7260242618447
1580421737.74615,-143.892576485847,-58.2589456015869,-12.4818799114976
1580421737.75015,-149.385824368658,-54.1084916456855,-12.1156633859769
1580421737.75414,-152.681773098344,-49.5918211642634,-11.3832303349354
1580421737.75813,-153.170061799039,-44.2816815442131,-10.3456168459602
1580421737.76213,-150.545510032807,-37.5066758220798,-8.81971465629044
1580421737.76612,-144.930189974822,-29.9992370489051,-6.56137941557949
1580421737.77011,-136.568245975433,-22.1255817502097,-3.57061112382689
1580421737.77411,-124.971389333944,-13.9467460135804,0.091554131380235
1580421737.7781,-110.749980926223,-5.27962157625689,4.42511635004189
1580421737.7821,-94.5754177157246,2.96025024795904,9.06385900663759
1580421737.78609,-77.3632410162509,10.1625085831997,13.5805294880597
1580421737.79008,-60.3952086671245,16.632333867399,17.792019531548
1580421737.79408,-45.0141145952546,22.7359426260775,21.5762569619287
1580421737.79807,-30.9758144502937,29.2057679102768,24.5059891660944
1580421737.80206,-17.486839093614,36.3469901579308,27.3746852826732
1580421737.80606,-3.26543068589308,44.0985732814524,29.6940566109711
1580421737.81005,13.0922407873654,52.7656977187762,32.0744640268558
1580421737.81404,32.3796444647896,61.9211108567938,34.8210879682611
1580421737.81804,55.2681773098343,70.588235294118,38.1170366979475
1580421737.82203,80.6591897459375,78.2177462424661,42.2674906538489
1580421737.82602,106.721599145495,84.5044632639051,47.0283054856181
1580421737.83001,130.952925917449,89.9977111467156,51.7891203173876
1580421737.83401,151.338979171435,94.7585259784851,56.7330434119172
1580421737.838,167.57457846952,98.2375829709317,62.2262912947276
1580421737.84199,181.185626001373,99.0920881971465,68.2688639658199
1580421737.84599,192.721446555276,95.4909590295265,74.8607614251928
1580421737.84998,201.083390554666,87.1290150301365,81.2695506218051
1580421737.85397,202.243076218815,75.5931944762342,86.4576180666822
1580421737.85797,190.157930876631,62.6535439078357,88.9600976577403
1580421737.86196,160.128175783932,50.4463263904781,88.2887006942856
1580421737.86595,111.543450064851,38.6663614862287,84.1382467383842
1580421737.86995,50.6904707408253,24.8722056916151,77.6684214541851
1580421737.87394,-12.6039520866711,8.02624551766235,70.5271992065309
1580421737.87793,-70.5882352941176,-9.12489509422448,64.301518272679
1580421737.88193,-117.708094911116,-23.4073395895323,59.90691996643
1580421737.88592,-150.240329594873,-31.9523918516825,57.0992599374376
1580421737.88991,-167.330434119173,-33.8445105668727,55.0240329594872
1580421737.89391,-171.236743724727,-30.4875257495994,52.7046616311891
1580421737.8979,-164.950026703288,-23.5904478522925,48.9814602883953
1580421737.9019,-151.644159609369,-15.4116121156633,43.2440680552374
1580421737.90588,-135.408560311284,-9.55214770733187,34.7600518806744
1580421737.90988,-118.928816662852,-8.39246204318306,24.2008087281604
1580421737.91387,-104.768444342718,-11.5663385976959,12.1766994735638
1580421737.91786,-94.453345540551,-18.0361638818952,-0.274662394140478
1580421737.92186,-87.7393759060044,-26.6422522316318,-12.2377355611504
1580421737.92585,-82.9785610742351,-35.9807736324103,-22.3086900129701
1580421737.92984,-77.9736018921187,-46.6620889600977,-30.3654535744258
1580421737.93384,-70.4051270313573,-58.1979095140002,-35.2483405813689
1580421737.93783,-58.1979095140002,-69.062333104448,-36.1638818951706
1580421737.94182,-40.0091554131382,-78.7670710307468,-33.783474479286
1580421737.94582,-19.9282825970854,-85.1148241397725,-28.7174792095825
1580421737.94981,-3.50957503624022,-85.9082932784008,-21.8814373998625
1580421737.95381,7.11070420386045,-81.7578393224994,-14.6791790646218
1580421737.9578,13.1532768749523,-73.8231479362173,-8.81971465629044
1580421737.96179,14.1908903639276,-56.2447547112231,-3.63164721141379
1580421737.96579,6.19516289005878,-27.9240100709544,2.16678110933094
1580421737.96978,-7.96520943007545,12.1156633859769,10.4066529335469
1580421737.97377,-15.4116121156633,59.90691996643,22.0035095750361
1580421737.97777,-6.19516289005878,102.021820401312,36.8963149462118
1580421737.98176,20.9658960860609,125.093461509117,53.1929503318834
1580421737.98581,59.7238117036695,127.107652399481,69.6116578927295
1580421737.9898,99.6414129854279,114.534218356604,85.4810406652937
1580421737.9938,126.680399786374,96.7116807812622,99.5803768978408
1580421737.99779,126.985580224308,81.9409475852599,107.881284809644
1580421738.00178,96.7116807812622,72.480354009308,105.806057831693
1580421738.00578,45.1361867704279,65.8274204623485,93.5378042267494
1580421738.00977,-9.91836423285258,60.7003891050581,76.5697718776228
1580421738.01376,-48.6152437628748,59.5407034409091,63.0807965209433
1580421738.01776,-61.921110856794,64.1184100099185,56.1226825360491
1580421738.02175,-55.6343938353552,65.461203936828,52.9488059815362
1580421738.02574,-43.5492484931717,57.4044403753719,50.6294346532386
1580421738.02974,-38.056000610361,43.4271763179979,46.5400167849239
1580421738.03373,-42.9388876173039,28.7174792095825,38.8494697489889
1580421738.03772,-52.7656977187762,16.083009079118,27.3136491950866
1580421738.04172,-63.1418326085297,9.18593118181116,11.7494468604561
1580421738.04571,-74.189364461738,9.06385900663759,-6.92759594110021
1580421738.04971,-83.4668497749294,13.8857099259938,-26.3981078812847
1580421738.0537,-86.0914015411611,20.8438239108873,-43.732356755932
1580421738.05769,-78.461890592813,27.0084687571525,-57.2823682001983
1580421738.06169,-59.357595178149,30.2433813992523,-66.193636987869
1580421738.06567,-32.0134279392691,30.9147783627068,-70.466163118944
1580421738.06967,-1.80056458381023,31.3420309758144,-70.7103074692911
1580421738.07366,24.5670252536811,33.6003662165253,-66.8039978637369
1580421738.07765,44.2816815442129,39.8260471503775,-59.7848477912567
1580421738.08165,58.3810177767605,51.1177233539329,-50.4463263904784
1580421738.08564,69.7947661554895,66.6819256885638,-39.765011062791
1580421738.08963,82.4292362859542,83.9551384756237,-28.1071183337147
1580421738.09363,96.5285725185017,100.312809948882,-15.5947203784237
1580421738.09762,109.590295262074,113.435568780041,-2.16678110933094
1580421738.10161,116.243228809034,121.126115815976,12.1766994735638
1580421738.10561,112.520027466239,123.14030670634,26.1539635309375
1580421738.1096,99.4583047226674,121.24818799115,38.7884336614022
1580421738.1136,83.6499580376899,117.83016708629,49.5307850766762
1580421738.11759,70.4661631189442,114.59525444419,57.9537651636529
1580421738.12158,61.4328221560995,113.008316166934,63.6301213092243
1580421738.12558,55.2071412222476,113.130388342107,66.6819256885638
1580421738.12957,49.1035324635691,114.106965743496,66.8039978637371
1580421738.13356,42.5726710917829,114.656290531777,64.4846265354395
1580421738.13756,34.5769436179139,114.290074006256,60.0289921416033
1580421738.14155,24.322880903334,112.88624399176,54.1695277332719
1580421738.14557,11.5663385976959,110.749980926223,47.7607385366596
1580421738.14956,-1.31227588311594,108.857862211032,41.657129777981
1580421738.15355,-11.6273746852826,108.430609597925,36.1028458075837
1580421738.15755,-17.1206225680933,109.895475700008,31.1589227130539
1580421738.16154,-18.0361638818952,113.557640955215,26.5201800564582
1580421738.16554,-15.1674677653161,118.196383611811,22.2476539253832
1580421738.16953,-10.2235446707866,122.835126268406,18.4023804074159
1580421738.17352,-4.60822461280236,126.741435873961,14.7402151522087
1580421738.17752,0.762951094834762,129.304951552605,11.4442664225223
1580421738.18151,4.91340505073617,130.647745479515,8.69764248111687
1580421738.1855,7.53795681696806,130.586709391928,6.5003433279926
1580421738.1895,8.45349813076973,130.098420691234,4.66926070038903
1580421738.19349,8.20935378042259,130.098420691234,3.57061112382689
1580421738.19748,7.04966811627378,130.586709391928,2.89921416037237
1580421738.20148,5.82894636453807,131.68535896849,2.7161058976119
1580421738.20547,5.27962157625689,132.722972457465,3.02128633554594
1580421738.20947,5.88998245212474,133.882658121614,3.75371938658736
1580421738.21346,6.92759594110021,134.92027161059,5.27962157625689
1580421738.21745,7.96520943007545,135.347524223697,7.11070420386045
1580421738.22144,8.51453421835663,135.774776836805,8.75867856870377
1580421738.22543,8.6366063935302,136.079957274739,10.3456168459602
1580421738.22943,8.5755703059433,136.751354238193,12.0546272983902
1580421738.23342,8.45349813076973,137.788967727169,13.3974212252995
1580421738.23741,8.51453421835663,139.131761654078,14.6791790646218
1580421738.24141,9.4911116197452,141.023880369268,13.7636377508202
1580421738.2454,12.2377355611504,142.915999084459,2.04470893415737
1580421738.24939,19.6231021591516,142.061493858243,-31.769283588922
1580421738.25339,24.1397726405737,139.253833829252,-24.2008087281604
1580421738.25738,19.501029983978,157.869840543221,7.59899290455473
1580421738.26137,15.6557564660104,163.607232776379,19.5620660715647
1580421738.26537,13.214312962539,154.268711375601,24.0177004654001
1580421738.26936,11.3221942473488,151.766231784542,26.4591439688716
1580421738.27336,9.97940032043948,155.42839703975,27.8019378957808
1580421738.27735,9.12489509422448,158.968490119783,27.8629739833675
1580421738.28134,8.69764248111687,161.043717097734,27.0695048447394
1580421738.28534,8.27038986800949,162.020294499122,25.482566567483
1580421738.28933,7.66002899214163,161.715114061189,23.5904478522925
1580421738.29332,7.23277637903402,160.250247959106,21.2710765239947
1580421738.29732,7.29381246662092,158.480201419089,18.8296330205233
1580421738.30131,7.96520943007545,156.771190966659,16.3881895170518
1580421738.3053,10.2235446707866,154.818036163882,14.5571068894483
1580421738.30929,14.373998626688,152.620737010758,13.3363851377126
1580421738.31328,19.3179217212175,150.30136568246,12.9091325246052
1580421738.31728,24.322880903334,147.859922178988,13.214312962539
1580421738.32127,28.1681544213016,145.418478675517,14.1908903639276
1580421738.32526,29.9382009613182,143.099107347219,15.5947203784237
1580421738.32926,28.6564431219958,141.268024719615,17.5478751812009
1580421738.33325,24.8722056916151,139.864194705119,19.6231021591516
1580421738.33725,18.7685969329366,138.460364690623,21.5762569619287
1580421738.34124,11.2611581597619,136.995498588541,23.6514839398794
1580421738.34523,3.99786373693451,134.676127260243,25.6046387426566
1580421738.34923,-1.73952849622333,131.624322880903,27.4967574578468
1580421738.35322,-5.34065766384379,127.901121538109,29.1447318226901
1580421738.35721,-7.35484855420759,123.750667582208,30.3044174868389
1580421738.36121,-7.90417334248878,119.417105363546,30.6706340123596
1580421738.3652,-6.56137941557949,114.41214618143,30.6706340123596
1580421738.36919,-3.38750286106665,108.369573510338,30.0602731364918
1580421738.37319,1.0681315327688,101.228351262684,28.5343709468223
1580421738.37718,5.95101853971164,93.4157320515756,26.5812161440451
1580421738.38117,10.7728694590676,84.9927519645994,23.773556115053
1580421738.38519,14.6791790646218,76.6308079652094,20.5996795605402
1580421738.38919,17.6089112687876,68.7571526665142,17.3037308308537
1580421738.39318,20.2944991226061,62.1652552071409,13.8246738384069
1580421738.39717,22.8580148012511,57.3434042877848,10.4676890211338
1580421738.40117,25.7877470054168,53.9864194705119,6.92759594110021
1580421738.40516,29.0226596475165,51.4229037918667,3.57061112382689
1580421738.40915,32.1965362020294,49.2256046387424,0.640878919661191
1580421738.41315,34.3327992675668,47.089341573205,-1.55642023346309
1580421738.41714,35.1262684061951,45.5024032959486,-2.59403372243833
1580421738.42113,35.1262684061951,44.4647898069732,-2.7161058976119
1580421738.42513,34.9431601434346,43.3051041428243,-2.04470893415737
1580421738.42912,34.6379797055008,41.5350576028075,-1.12916762035547
1580421738.43312,34.6379797055008,38.6053253986418,-0.335698481727377
1580421738.43711,34.8210879682611,35.3704127565422,-0.213626306553806
1580421738.4411,35.4314488441289,31.7082475013351,-0.823987182421661
1580421738.44509,36.3469901579308,27.3136491950866,-2.34988937209118
1580421738.44909,36.8352788586251,21.6372930495154,-4.24200808728165
1580421738.45308,36.4080262455175,14.7402151522087,-6.37827115281902
1580421738.45708,35.1262684061951,6.43930724040592,-8.51453421835663
1580421738.46107,33.6003662165253,-2.59403372243833,-10.7728694590676
1580421738.46506,32.4406805523765,-10.5287251087204,-12.7870603494316
1580421738.46905,31.8303196765087,-16.8764782177461,-14.923323414969
1580421738.47304,32.3796444647896,-22.064545662623,-17.3647669184404
1580421738.47704,34.0886549172196,-27.5577935454337,-19.9282825970854
1580421738.48103,36.9573510337987,-34.5769436179141,-21.9424734874494
1580421738.48502,40.7415884641794,-43.8544289311055,-23.2852674143587
1580421738.48902,45.075150682841,-55.5123216601817,-23.8956282902266
1580421738.49301,49.65285725185,-69.6726939803159,-24.5059891660944
1580421738.497,52.2163729304948,-84.9317158770123,-25.5436026550697
1580421738.501,51.3008316166934,-100.862134737163,-27.191577019913
1580421738.50499,48.5542076752877,-116.12115663386,-29.3278400854504
1580421738.50899,44.5868619821467,-130.342565041581,-32.0134279392691
1580421738.51298,38.1780727855344,-142.732890821698,-35.5535210193027
1580421738.51697,29.9992370489051,-151.338979171435,-40.1922636758984
1580421738.52097,22.3086900129701,-158.113984893568,-45.8686198214696
1580421738.52496,13.1532768749523,-166.781109330892,-51.9111924925612
1580421738.52895,0.0305180437933359,-177.218280308232,-58.503089951934
1580421738.53295,-16.7544060425726,-186.434729533837,-65.7663843747616
1580421738.53694,-33.6614023041125,-193.148699168383,-73.6400396734568
1580421738.54093,-44.7089341573205,-196.62775616083,-81.9409475852597
1580421738.54492,-46.0517280842298,-198.825055313954,-89.9977111467153
1580421738.54891,-39.765011062791,-199.435416189822,-97.016861219196
1580421738.55291,-28.7174792095825,-197.299153124285,-102.082856488899
1580421738.5569,-12.0546272983902,-191.989013504234,-104.524299992371
1580421738.5609,11.4442664225223,-186.739909971771,-104.097047379263
1580421738.56489,40.4364080262453,-183.443961242084,-100.984206912337
1580421738.56888,72.7855344472423,-181.795986877241,-96.0402838178074
1580421738.57288,105.439841306172,-180.086976424811,-89.570458533608
1580421738.57687,134.370946822309,-178.744182497902,-81.6968032349125
1580421738.58086,155.489433127336,-177.767605096513,-72.2362096589609
1580421738.58486,165.86556801709,-176.974135957885,-61.6159304188602
1580421738.58885,164.15655756466,-177.523460746166,-50.2632181277181
1580421738.59284,150.179293507286,-179.964904249638,-38.6663614862289
1580421738.59684,126.009002822919,-184.298466468299,-27.3136491950866
1580421738.60083,94.5143816281379,-190.951400015259,-16.3271534294652
1580421738.60482,58.9303425650414,-198.641947051194,-5.7068741893645
1580421738.60882,22.6749065384909,-204.562447547112,3.81475547417404
1580421738.61281,-10.1014724956131,-208.529793240253,11.505302510109
1580421738.6168,-35.6755931944763,-212.497138933394,17.1206225680933
1580421738.6208,-52.3384451056688,-216.586556801709,19.9893186846723
1580421738.62482,-60.7614251926452,-219.638361181048,19.5620660715647
1580421738.62881,-62.2262912947281,-219.699397268635,15.8999008163576
1580421738.6328,-58.6861982146945,-216.647592889296,10.2235446707866
1580421738.6368,-51.9111924925612,-212.0088502327,3.99786373693451
1580421738.64079,-44.0985732814527,-207.858396276799,-1.80056458381023
1580421738.64478,-37.0794232089725,-204.440375371939,-6.13412680247188
1580421738.64878,-30.6706340123596,-201.998931868467,-8.14831769283592
1580421738.65277,-23.468375677119,-199.130235751888,-8.6366063935302
1580421738.65676,-14.0077821011673,-195.162890058747,-7.72106507972831
1580421738.66076,-3.02128633554594,-190.768291752499,-5.88998245212474
1580421738.66475,6.86655985351331,-186.37369344625,-3.69268329900046
1580421738.66875,13.8246738384069,-182.589456015869,-1.19020370794237
1580421738.67274,16.937514305333,-179.232471198596,1.37331197070262
1580421738.67673,17.2426947432668,-176.607919432364,3.50957503624022
1580421738.68073,16.2050812542916,-173.983367666133,5.27962157625689
1580421738.68472,15.4116121156633,-171.17570763714,6.19516289005878
1580421738.68871,15.4116121156633,-167.940794995041,6.86655985351331
1580421738.69271,16.9985503929197,-164.766918440528,6.86655985351331
1580421738.6967,19.6231021591516,-162.020294499123,6.13412680247188
1580421738.70069,23.468375677119,-159.761959258412,4.54718852521546
1580421738.70468,28.4122987716487,-157.564660105287,2.34988937209118
1580421738.70867,34.2717631799801,-155.489433127336,-0.091554131380235
1580421738.71267,40.7415884641794,-153.231097886625,-2.96025024795904
1580421738.71666,46.9672693980315,-150.850690470741,-5.21858548867021
1580421738.72065,52.7656977187762,-148.531319142443,-6.98863202868688
1580421738.72465,57.1602960250248,-146.395056076905,-8.27038986800949
1580421738.72864,60.0289921416033,-144.441901274128,-8.75867856870377
1580421738.73264,60.9445334554052,-142.305638208591,-9.00282291905091
1580421738.73663,60.0900282291905,-140.169375143053,-9.24696726939806
1580421738.74062,57.2823682001981,-137.727931639582,-9.4300755321583
1580421738.74462,52.5215533684291,-135.164415960937,-9.73525597009234
1580421738.74861,45.929655909056,-132.600900282292,-10.0404364080262
1580421738.7526,37.9339284351872,-129.610131990539,-10.4066529335469
1580421738.7566,28.5954070344089,-126.680399786374,-10.4066529335469
1580421738.76059,17.9751277943083,-123.384451056687,-10.1014724956131
1580421738.76458,6.01205462729831,-119.661249713893,-9.73525597009234
1580421738.76858,-7.29381246662092,-115.205615320058,-9.24696726939806
1580421738.77257,-21.6372930495154,-110.017547875181,-8.6366063935302
1580421738.77656,-37.1404592965591,-104.34119172961,-7.66002899214163
1580421738.78056,-53.0708781567103,-98.5427634088655,-6.74448767833974
1580421738.78455,-69.7337300679026,-92.4391546501868,-5.95101853971164
1580421738.78854,-87.4341954680704,-86.3965819790951,-5.21858548867021
1580421738.79253,-106.477454795148,-80.5981536583504,-4.66926070038903
1580421738.79653,-127.046616311894,-75.2880140383002,-4.42511635004189
1580421738.80052,-149.263752193484,-70.1609826810102,-4.36408026245522
1580421738.80451,-171.969176775769,-65.1560234988938,-3.87579156176093
1580421738.80851,-194.125276569772,-59.4796673533226,-3.08232242313261
1580421738.8125,-214.938582436866,-53.1929503318838,-1.67849240863666
1580421738.81649,-234.470130464637,-45.746547646296,0.274662394140478
1580421738.82049,-253.147173266194,-37.6287479972534,2.83817807278547
1580421738.82448,-271.396963454642,-29.2057679102768,5.6458381017776
1580421738.82847,-288.487067978943,-20.7827878233004,8.39246204318306
1580421738.83247,-302.037079423209,-13.0312046997788,9.61318379491877
1580421738.83646,-307.957579919127,-5.7068741893645,9.79629205767901
1580421738.84045,-301.426718547341,2.83817807278547,10.2845807583733
1580421738.84445,-277.988860914015,14.1908903639276,11.5663385976959
1580421738.84844,-235.996032654307,28.6564431219958,12.9091325246052
1580421738.85243,-175.692378118563,45.9906919966429,15.228503852903
1580421738.85643,-100.74006256199,64.1794460975052,18.646524757763
1580421738.86042,-19.3179217212175,81.4526588845656,23.5294117647059
1580421738.86444,59.4186312657357,95.5519951171132,30.2433813992523
1580421738.86843,128.694590676738,103.547722590982,39.0325780117494
1580421738.87243,184.359502555886,103.425650415808,50.1411459525443
1580421738.87642,225.314717326619,95.6740672922865,62.592507820249
1580421738.88041,253.086137178607,82.4292362859542,75.0438696879532
1580421738.88441,270.786602578775,67.2922865644314,85.5420767528803
1580421738.8884,281.223773556115,54.4747081712062,92.2560463874265
1580421738.8924,285.923552300298,45.5634393835353,94.6364538033113
1580421738.89639,282.444495307851,42.0843823910886,93.9650568398565
1580421738.90038,266.5140764477,44.8310063324939,91.2184328984513
1580421738.90438,226.352330815595,53.1319142442967,87.0679789425499
1580421738.90837,149.813076981765,57.9537651636529,81.7578393224994
1580421738.91236,47.7607385366596,49.8970016021972,76.0814831769285
1580421738.91636,-48.6152437628748,33.5393301289387,71.6868848706799
1580421738.92035,-116.243228809033,18.5244525825894,68.3299000534066
1580421738.92434,-148.287174792096,8.27038986800949,66.3157091630428
1580421738.92834,-149.874113069352,-0.457770656900948,66.3157091630428
1580421738.93233,-133.943694209201,-7.7821011673152,68.2688639658199
1580421738.93632,-112.88624399176,-11.7494468604561,70.6492713817047
1580421738.94032,-95.1247425040056,-9.24696726939806,71.9310292210271
1580421738.9443,-81.6357671473259,1.0681315327688,69.9168383306633
1580421738.9483,-69.3064774547952,17.486839093614,63.8132295719847
1580421738.95229,-55.6343938353552,33.7224383916989,54.1084916456853
1580421738.95629,-40.8636606393532,42.6337071793696,42.3285267414358
1580421738.96028,-26.0318913557639,39.3377584496832,29.5109483482108
1580421738.96427,-12.4208438239109,25.9098191805904,16.0219729915311
1580421738.96827,-1.19020370794237,7.53795681696806,3.93682764934761
1580421738.97226,7.7821011673152,-14.9843595025559,-6.25619897764545
1580421738.97625,14.4960708018616,-40.5584802014191,-13.7026016632333
1580421738.98025,18.4023804074159,-65.8274204623483,-18.8906691081102
1580421738.98424,20.2334630350194,-85.6641489280537,-22.064545662623
1580421738.98823,20.6607156481268,-95.4299229419396,-24.7501335164416
1580421738.99223,20.2334630350194,-91.8898298619058,-28.2291905088882
1580421738.99622,21.8814373998625,-78.5229266803997,-31.3420309758146
1580421739.00021,24.322880903334,-54.8409246967269,-32.0134279392691
1580421739.00421,20.1113908598459,-21.8204013122759,-28.2902265964751
1580421739.0082,6.98863202868688,18.1582360570687,-19.501029983978
1580421739.01219,-7.23277637903402,59.357595178149,-5.88998245212474
1580421739.01619,-14.4960708018616,92.6222629129475,12.2987716487373
1580421739.02018,-14.3129625391011,111.848630502785,34.9431601434346
1580421739.02417,-6.5003433279926,113.801785305562,60.0900282291905
1580421739.02816,7.41588464179449,98.8479438467994,85.1148241397727
1580421739.03216,20.4776073853666,75.5321583886475,106.721599145495
1580421739.03615,23.8345922026397,55.8175020981153,119.905394064241
1580421739.04014,12.4208438239109,44.4037537193865,120.271610589761
1580421739.04414,-12.2987716487373,39.1546501869229,107.515068284123
1580421739.04813,-45.6244754711224,38.4222171358815,86.8848706797894
1580421739.05212,-80.0488288700694,42.7557793545432,66.010528725109
1580421739.05612,-104.768444342718,47.4555580987258,50.4463263904781
1580421739.06011,-112.214847028305,44.2816815442129,41.657129777981
1580421739.06411,-108.125429159991,31.5251392385746,37.9339284351872
1580421739.0681,-101.533531700618,17.3037308308537,35.3704127565422
1580421739.07209,-99.3972686350805,7.72106507972831,30.6706340123596
1580421739.07608,-104.951552605478,2.41092545967808,21.8814373998625
1580421739.08008,-118.745708400092,1.55642023346309,9.18593118181116
1580421739.08407,-136.81239032578,5.52376592660403,-6.19516289005878
1580421739.08807,-151.461051346609,13.3974212252995,-22.1255817502097
1580421739.09206,-154.024567025254,22.6749065384909,-36.8352788586253
1580421739.09605,-137.972075989929,30.8537422751201,-49.8359655146105
1580421739.10005,-101.777676050965,36.7132066834515,-59.5407034409095
1580421739.10406,-50.2021820401312,39.7039749752039,-65.4001678492409
1580421739.10806,6.01205462729831,41.2909132524603,-66.7429617761502
1580421739.11205,53.620202944991,44.8920424200808,-63.8742656595712
1580421739.11604,83.3447775997561,53.3150225070572,-57.7706569008926
1580421739.12004,94.6364538033113,67.8416113527123,-50.7515068284124
1580421739.12403,95.857175555047,85.969329365988,-44.2206454566262
1580421739.12803,97.8713664454108,104.768444342718,-37.6287479972534
1580421739.13202,106.233310444801,121.614404516671,-29.5109483482108
1580421739.13601,117.341878385595,132.722972457465,-18.1582360570687
1580421739.14001,119.233997100786,134.370946822309,-2.04470893415737
1580421739.144,100.556954299229,126.619363698787,19.0737773708704
1580421739.14799,64.7898069733733,114.473182269016,40.9857328145265
1580421739.15199,26.2149996185244,103.303578240635,58.197909514
1580421739.15598,-3.44853894865332,97.3220416571298,67.9636835278861
1580421739.15997,-21.5152208743418,96.7727168688489,71.6258487830933
1580421739.16397,-31.4030670634013,99.0920881971465,71.8699931334404
1580421739.16796,-36.896314946212,100.190737773709,70.588235294118
1580421739.17195,-39.6429388876174,98.6037994964522,68.1467917906466
1580421739.17595,-43.3051041428246,95.857175555047,64.7287708857866
1580421739.17994,-48.7373159380484,93.4157320515756,60.9445334554052
1580421739.18393,-53.7422751201648,92.7443350881208,58.1368734264133
1580421739.18792,-56.1226825360495,94.5754177157246,56.1226825360491
1580421739.19192,-53.8643472953383,98.5427634088655,54.5357442587929
1580421739.19591,-46.9672693980317,104.280155642024,52.8267338063629
1580421739.1999,-36.5300984206913,111.17723353933,50.5073624780648
1580421739.2039,-24.5059891660944,118.196383611811,47.1503776607917
1580421739.20789,-12.4818799114976,124.299992370489,43.2440680552374
1580421739.21188,-2.22781719691761,128.694590676738,38.9105058365758
1580421739.21588,5.58480201419093,131.258106355383,34.5769436179139
1580421739.21987,10.7728694590676,132.356755931945,30.3044174868389
1580421739.22386,14.068818188754,132.661936369879,26.1539635309375
1580421739.22786,16.8764782177461,132.356755931945,22.3086900129701
1580421739.23185,20.050354772259,132.600900282292,18.8296330205233
1580421739.23584,24.8111696040282,133.39436942092,16.2661173418783
1580421739.23984,30.5485618371861,134.737163347829,14.3129625391011
1580421739.24383,36.7132066834515,136.140993362325,13.1532768749523
1580421739.24782,42.511635004196,137.483787289235,13.214312962539
1580421739.25182,47.2724498359653,138.643472953383,11.7494468604561
1580421739.25581,51.36186770428,138.765545128557,7.04966811627378
1580421739.25981,55.6954299229419,139.986266880293,-5.15754940108332
1580421739.26382,61.7990386816205,137.056534676127,-23.5294117647059
1580421739.26782,57.2823682001981,144.563973449302,8.5755703059433
1580421739.27181,52.9488059815362,154.146639200427,23.1021591515982
1580421739.2758,50.6904707408253,145.906767376211,28.7174792095825
1580421739.2798,49.65285725185,143.770504310673,31.0368505378804
1580421739.28379,48.6152437628748,147.249561303121,33.7224383916989
1580421739.28778,47.7607385366596,150.057221332112,35.3704127565422
1580421739.29178,47.0283054856181,152.01037613489,35.2483405813687
1580421739.29577,45.8686198214693,153.536278324559,35.7366292820629
1580421739.29977,44.4037537193865,155.245288776989,34.9431601434346
1580421739.30376,43.4882124055846,155.367360952163,33.6614023041122
1580421739.30775,42.9388876173036,155.794613565271,31.8303196765087
1580421739.31175,43.1219958800639,156.771190966659,29.8161287861446
1580421739.31574,43.7933928435186,157.930876630808,27.7409018081939
1580421739.31973,44.220645456626,158.052948805981,25.5436026550697
1580421739.32373,44.1596093690393,156.710154879072,23.2242313267718
1580421739.32772,43.1830319676508,154.451819638361,21.0879682612344
1580421739.33171,42.0843823910886,151.400015259022,19.0737773708704
1580421739.33571,40.802624551766,147.920958266575,17.3037308308537
1580421739.3397,40.1922636758982,143.953612573434,15.9609369039445
1580421739.34369,40.4364080262453,140.23041123064,14.6791790646218
1580421739.34768,41.2298771648736,136.873426413367,13.9467460135804
1580421739.35168,42.4505989166094,134.065766384375,13.7026016632333
1580421739.35567,44.0985732814524,132.173647669184,14.3129625391011
1580421739.35966,45.7465476462958,130.830853742275,15.7167925535973
1580421739.36366,46.3569085221636,130.159456778821,17.792019531548
1580421739.36765,45.3803311207751,129.304951552605,20.2334630350194
1580421739.37164,42.0233463035017,128.26733806363,22.6749065384909
1580421739.37564,36.8963149462118,127.046616311894,25.1773861295489
1580421739.37963,31.1589227130539,125.337605859464,27.4357213702601
1580421739.38362,25.7877470054168,122.346837567712,29.4499122606239
1580421739.38762,20.4165712977797,118.501564049745,31.0978866254673
1580421739.39161,15.1674677653161,115.022507057298,31.8303196765087
1580421739.3956,10.4066529335469,111.787594415198,31.7692835889218
1580421739.3996,7.17174029144735,108.308537422751,30.7316700999465
1580421739.40359,6.07309071488521,104.951552605478,29.4499122606239
1580421739.40758,7.47692072938116,101.167315175097,27.7409018081939
1580421739.41158,11.6884107728695,97.3830777447165,25.8487830930037
1580421739.41557,18.7075608453497,92.9274433508813,23.7125200274661
1580421739.41956,28.5343709468223,87.7393759060046,21.3321126115816
1580421739.42355,39.2767223620965,81.5136949721523,18.341344319829
1580421739.42755,48.6762798504615,74.4945448996723,15.2895399404897
1580421739.43154,53.7422751201648,67.6585030899523,11.9935912108033
1580421739.43553,53.8643472953381,61.61593041886,8.88075074387734
1580421739.43953,50.0801098649576,56.7330434119172,6.13412680247188
1580421739.44352,43.9765011062789,52.6436255436024,3.99786373693451
1580421739.44751,37.384603646906,49.1035324635691,2.16678110933094
1580421739.45151,31.7692835889218,46.4789806973372,0.396734569314049
1580421739.4555,28.900587472343,44.3427176317996,-1.19020370794237
1580421739.45949,29.0836957351032,42.6337071793696,-2.65506981002522
1580421739.46349,32.4406805523765,41.1078049897001,-3.69268329900046
1580421739.46748,38.239108873121,39.4598306248567,-4.30304417486832
1580421739.47147,44.8920424200808,36.7742427710382,-4.8523689631495
1580421739.47547,51.1787594415196,32.9900053406575,-5.27962157625689
1580421739.47946,56.5499351491567,28.2902265964751,-5.7068741893645
1580421739.48346,60.5172808422976,23.3463035019454,-6.31723506523235
1580421739.48745,63.14183260853,17.9751277943083,-7.35484855420759
1580421739.49144,64.2404821850923,12.359807736324,-8.6366063935302
1580421739.49544,64.301518272679,6.07309071488521,-9.97940032043948
1580421739.49943,63.4470130464638,0.091554131380235,-11.3832303349354
1580421739.50345,60.3952086671243,-5.58480201419093,-12.8480964370183
1580421739.50744,55.0240329594872,-11.810482948043,-14.3129625391011
1580421739.51144,48.4321355001143,-19.8062104219118,-15.0453955901426
1580421739.51543,41.4740215152208,-30.2433813992523,-15.3505760280766
1580421739.51942,35.9807736324101,-41.9012741283284,-15.7167925535973
1580421739.52342,33.1120775158311,-53.9253833829252,-16.4492256046387
1580421739.52741,32.0744640268558,-66.3767452506295,-17.486839093614
1580421739.5314,31.0978866254673,-79.1332875562675,-18.7075608453497
1580421739.5354,27.8629739833675,-92.0119020370794,-20.1113908598459
1580421739.53939,21.5152208743418,-102.998397802701,-22.4917982757304
1580421739.54338,12.4818799114976,-111.726558327611,-26.337071793698
1580421739.54738,3.20439459830618,-118.684672312505,-31.4030670634013
1580421739.55137,-3.14335851071951,-125.764858472572,-37.4456397344932
1580421739.55536,-6.62241550316617,-132.967116807813,-44.5258258945603
1580421739.55936,-8.08728160524902,-139.070725566491,-52.0943007553217
1580421739.56335,-8.5755703059433,-143.46532387274,-60.5172808422981
1580421739.56734,-8.02624551766235,-147.554741741054,-68.2688639658197
1580421739.57134,-4.7913328755626,-152.986953536278,-75.5321583886473
1580421739.57533,2.22781719691761,-160.7385366598,-81.4526588845654
1580421739.57932,13.0922407873654,-170.443274586099,-85.9693293659875
1580421739.58331,26.337071793698,-180.270084687572,-89.0211337453268
1580421739.58731,41.0467689021132,-188.021667811093,-90.3639276722361
1580421739.5913,55.2681773098343,-194.674601358053,-89.4483863584344
1580421739.59529,66.8039978637371,-201.083390554665,-85.7862211032273
1580421739.59929,75.1049057755399,-207.06492713817,-79.7436484321354
1580421739.60328,80.7812619211109,-212.436102845807,-71.5037766079195
1580421739.60727,84.6875715266651,-217.13588158999,-61.6769665064469
1580421739.61127,88.6549172198065,-219.577325093462,-51.2397955291067
1580421739.61526,95.0026703288322,-217.441062027924,-40.8026245517663
1580421739.61925,104.34119172961,-210.849164568551,-30.8537422751201
1580421739.62325,113.801785305562,-202.365148393988,-21.4541847867551
1580421739.62724,117.097734035248,-194.247348744945,-12.7260242618447
1580421739.63123,110.505836575875,-186.251621271077,-4.60822461280236
1580421739.63523,93.6598764019227,-178.377965972381,3.14335851071951
1580421739.63922,70.588235294118,-172.274357213703,10.5287251087204
1580421739.64321,47.5165941863124,-170.931563286793,17.3647669184404
1580421739.64721,27.8629739833675,-175.265125505455,23.2242313267718
1580421739.6512,10.5897611963073,-183.13878080415,27.8629739833675
1580421739.6552,-6.62241550316617,-192.355230029755,30.7927061875332
1580421739.65919,-23.8956282902266,-202.121004043641,31.7082475013351
1580421739.66318,-40.0091554131382,-210.11673151751,29.8771648737315
1580421739.66717,-53.8033112077517,-214.511329823758,24.9942778667887
1580421739.67116,-64.6066987106126,-214.450293736171,17.792019531548
1580421739.67516,-71.8089570458533,-210.360875867857,10.0404364080262
1580421739.67915,-75.3490501258868,-204.745555809872,3.32646677347975
1580421739.68315,-75.8373388265811,-198.702983138781,-1.31227588311594
1580421739.68714,-73.0907148851759,-192.782482642863,-3.81475547417404
1580421739.69113,-65.5832761120012,-186.984054322118,-3.93682764934761
1580421739.69512,-53.0708781567103,-181.185626001373,-1.8616006713969
1580421739.69912,-36.2249179827575,-175.509269855802,1.25123979552905
1580421739.70311,-18.0361638818952,-169.710841535058,4.7913328755626
1580421739.70711,-1.8616006713969,-164.339665827421,8.27038986800949
1580421739.7111,9.91836423285258,-160.006103608759,11.2001220721752
1580421739.71509,16.7544060425726,-156.588082703899,13.1532768749523
1580421739.71909,19.6231021591516,-154.146639200427,14.1298542763409
1580421739.72308,20.1113908598459,-152.01037613489,14.373998626688
1580421739.72707,19.6231021591516,-149.813076981765,13.8857099259938
1580421739.73107,19.8062104219118,-147.493705653467,12.7260242618447
1580421739.73506,20.7217517357137,-144.625009536889,11.0780498970016
1580421739.73905,22.8580148012511,-141.023880369268,8.69764248111687
1580421739.74307,26.2149996185244,-137.544823376822,6.13412680247188
1580421739.74707,30.7927061875332,-134.126802471962,3.38750286106665
1580421739.75106,36.1638818951703,-130.769817654688,0.640878919661191
1580421739.75505,42.0843823910886,-127.901121538109,-2.10574502174404
1580421739.75905,47.638666361486,-124.727244983597,-4.48615243762879
1580421739.76304,52.3384451056686,-121.370260166323,-6.31723506523235
1580421739.76703,56.1837186236362,-118.318455786984,-7.47692072938116
1580421739.77103,58.8693064774548,-115.632867933165,-8.20935378042259
1580421739.77502,60.1510643167771,-113.008316166934,-8.51453421835663
1580421739.77901,59.6017395284962,-110.627908751049,-8.6366063935302
1580421739.78301,57.1602960250248,-108.369573510338,-9.00282291905091
1580421739.787,52.7046616311891,-105.928130006867,-9.36903944457163
1580421739.79099,45.8686198214693,-103.425650415808,-9.36903944457163
1580421739.79499,36.5911345082779,-100.55695429923,-9.12489509422448
1580421739.79898,25.4215304798961,-97.1999694819563,-8.39246204318306
1580421739.80297,12.2987716487373,-93.1105516136415,-7.29381246662092
1580421739.80697,-2.47196154726475,-88.1055924315251,-6.19516289005878
1580421739.81096,-18.7075608453497,-82.4292362859539,-4.91340505073617
1580421739.81495,-35.9807736324103,-76.2645914396887,-3.75371938658736
1580421739.81895,-54.3526359960326,-70.0389105058366,-2.89921416037237
1580421739.82294,-73.3958953231097,-63.9353017471581,-2.53299763485165
1580421739.82693,-92.8664072632944,-58.3199816891738,-2.89921416037237
1580421739.83092,-113.130388342107,-52.8877698939498,-3.69268329900046
1580421739.83492,-133.699549858854,-47.9438467994203,-5.09651331349664
1580421739.83891,-154.268711375601,-43.6713206683453,-6.80552376592664
1580421739.8429,-174.105439841306,-39.6429388876174,-8.39246204318306
1580421739.8469,-192.965590905623,-35.5535210193027,-9.4300755321583
1580421739.85089,-210.727092393377,-31.0368505378804,-9.61318379491877
1580421739.85488,-227.634088654917,-25.482566567483,-8.5755703059433
1580421739.85888,-244.846265354391,-19.0737773708704,-6.25619897764545
1580421739.86287,-263.340199893187,-11.9325551232166,-3.38750286106665
1580421739.86686,-282.505531395438,-5.76791027695117,-0.70191500724809
1580421739.87086,-299.35149156939,-2.10574502174404,0.762951094834762
1580421739.87485,-308.690012970169,-0.457770656900948,0.885023270008332
1580421739.87885,-303.135728999771,0.946059357595232,2.22781719691761
1580421739.88284,-277.500572213321,5.21858548867021,6.13412680247188
1580421739.88683,-230.746929121843,14.8622873273823,11.0780498970016
1580421739.89083,-164.461738002594,29.0226596475165,15.6557564660104
1580421739.89482,-85.5420767528801,44.220645456626,19.8062104219118
1580421739.89881,-4.7913328755626,58.9913786526281,23.9566643778132
1580421739.9028,67.3533226520181,69.9778744182499,28.2291905088882
1580421739.9068,124.66620889601,74.3114366369118,32.9900053406575
1580421739.91079,164.522774090181,71.2596322575723,38.1780727855344
1580421739.91478,189.242389562829,61.8600747692071,43.8544289311053
1580421739.91877,203.036545357443,47.2724498359653,49.042496375982
1580421739.92277,211.215381094072,32.5017166399632,51.911192492561
1580421739.92676,220.431830319676,19.9282825970854,51.4229037918667
1580421739.93076,234.22598611429,10.650797283894,46.784161135271
1580421739.93475,248.935683222705,8.81971465629044,40.0701915007246
1580421739.93874,250.461585412375,17.9751277943083,35.4314488441289
1580421739.94274,213.900968947891,33.7834744792858,36.5911345082779
1580421739.94673,132.967116807813,38.1170366979475,44.2816815442129
1580421739.95072,40.0701915007246,32.0744640268558,56.0616464484624
1580421739.95472,-28.9616235599296,32.9289692530708,68.1467917906466
1580421739.95871,-63.9963378347447,46.9672693980315,77.3022049286642
1580421739.9627,-76.1425192645152,60.0289921416033,81.6968032349127
1580421739.9667,-79.1332875562675,59.2355230029752,82.0630197604337
1580421739.97069,-82.3071641107804,45.8075837338824,81.3916227969789
1580421739.97468,-88.4718089570458,29.9992370489051,80.0488288700694
1580421739.97868,-95.002670328832,21.1490043488211,77.1190966659037
1580421739.9827,-95.2468146791791,19.0737773708704,71.1985961699856
1580421739.98669,-88.1666285191118,20.7217517357137,62.3483634699014
1580421739.99068,-78.0956740672923,23.1631952391851,52.0332646677348
1580421739.99468,-69.062333104448,23.773556115053,40.9246967269396
1580421739.99867,-61.7380025940338,20.1113908598459,29.6940566109711
1580421740.00266,-53.8643472953383,9.97940032043948,19.1348134584573
1580421740.00666,-43.6102845807584,-4.54718852521546,10.1014724956131
1580421740.01065,-31.9523918516825,-22.9800869764247,2.7771419851988
1580421740.01464,-20.7827878233004,-43.6102845807584,-3.02128633554594
1580421740.01864,-12.1766994735638,-64.3015182726788,-7.17174029144735
1580421740.02263,-5.95101853971164,-84.0772106507973,-8.33142595559616
1580421740.02662,0.70191500724809,-100.190737773709,-7.72106507972831
1580421740.03062,9.67421988250544,-111.787594415198,-6.92759594110021
1580421740.03461,22.1255817502097,-118.501564049745,-7.84313725490188
1580421740.0386,32.8679331654839,-114.534218356603,-11.810482948043
1580421740.0426,39.5819028000303,-100.617990386816,-19.0127412832837
1580421740.04659,36.7132066834515,-71.9310292210268,-26.5812161440451
1580421740.05059,21.2710765239947,-25.2994583047225,-29.6330205233844
1580421740.05458,6.92759594110021,26.7032883192187,-24.0787365529868
1580421740.05857,4.7913328755626,67.2312504768447,-8.6366063935302
1580421740.06256,16.5102616922254,85.1148241397727,13.5805294880597
1580421740.06655,35.7976653696496,77.2411688410775,39.5208667124436
1580421740.07055,48.1879911497672,52.3994811932553,66.55985351339
1580421740.07454,40.0091554131379,28.1681544213016,88.9600976577403
1580421740.07853,10.8339055466545,16.083009079118,96.5285725185017
1580421740.08253,-25.6046387426566,18.7685969329366,84.5044632639051
1580421740.08652,-56.4888990615702,32.9289692530708,60.7614251926448
1580421740.09051,-76.8749523155566,46.784161135271,39.5819028000303
1580421740.09451,-84.9927519645989,52.3384451056686,30.0602731364918
1580421740.0985,-84.2603189135575,54.2305638208591,31.0368505378804
1580421740.1025,-81.7578393224994,51.1787594415196,37.8728923476003
1580421740.10649,-86.6407263294423,37.4456397344929,43.2440680552374
1580421740.11048,-102.143892576486,16.4492256046387,39.4598306248567
1580421740.11448,-125.03242542153,0.213626306553806,25.1163500419623
1580421740.11847,-147.981994354162,-3.57061112382689,4.42511635004189
1580421740.12246,-162.26443884947,2.83817807278547,-16.4492256046387
1580421740.12646,-159.334706645304,14.0077821011673,-32.623788815137
1580421740.13045,-135.835812924392,26.7032883192187,-43.1219958800641
1580421740.13444,-96.711680781262,38.239108873121,-48.4931715877012
1580421740.13844,-51.0566872663462,47.2114137483786,-49.4697489890898
1580421740.14246,-9.73525597009234,55.3902494850076,-46.3569085221638
1580421740.14645,20.4776073853666,65.2780956740676,-40.6805523765927
1580421740.15044,39.093614099336,76.9970244907304,-34.2107270923934
1580421740.15444,51.36186770428,88.7769893949799,-28.4733348592354
1580421740.15843,63.2639047837038,98.7869077592127,-24.0177004654001
1580421740.16242,77.8515297169452,107.57610437171,-20.7827878233004
1580421740.16642,93.3546959639889,115.449759670405,-18.2192721446554
1580421740.17041,103.974975204089,121.065079728389,-15.2895399404897
1580421740.1744,101.594567788205,122.163729304952,-10.4066529335469
1580421740.1784,81.8799114976732,117.463950560769,-1.73952849622333
1580421740.18239,49.65285725185,109.590295262074,10.955977721828
1580421740.18638,15.4116121156633,102.754253452354,25.0553139543754
1580421740.19038,-11.7494468604561,99.3972686350808,37.8728923476003
1580421740.19437,-29.2668039978637,98.4817273212789,48.4321355001143
1580421740.19836,-40.7415884641796,97.4441138323036,56.6720073243305
1580421740.20236,-48.3710994125277,94.148165102617,62.5314717326623
1580421740.20635,-53.9864194705119,89.570458533608,65.5832761120014
1580421740.21035,-59.2355230029755,85.7251850156408,65.7053482871752
1580421740.21434,-63.9963378347447,84.5654993514918,64.1184100099185
1580421740.21833,-66.3157091630426,85.969329365988,62.2262912947276
1580421740.22232,-64.3625543602654,89.8756389715422,60.7003891050581
1580421740.22631,-56.6720073243305,95.6740672922865,59.0524147402148
1580421740.23031,-43.4271763179981,102.998397802701,56.7940794995038
1580421740.2343,-26.0929274433508,110.688944838636,53.7422751201648
1580421740.23829,-6.80552376592664,117.708094911116,49.5307850766762
1580421740.24229,12.1766994735638,123.750667582208,44.6478980697336
1580421740.24628,29.0836957351032,127.901121538109,39.7039749752039
1580421740.25027,42.3285267414358,130.525673304341,34.882124055848
1580421740.25427,51.7891203173876,132.173647669184,30.5485618371861
1580421740.25826,58.0148012512395,132.845044632639,26.6422522316318
1580421740.26225,62.2262912947276,133.089188982986,22.8580148012511
1580421740.26625,65.0339513237204,133.089188982986,19.6231021591516
1580421740.27024,66.9260700389109,133.577477683681,16.937514305333
1580421740.27424,67.719539177539,134.187838559548,15.1674677653161
1580421740.27823,67.4753948271918,133.638513771267,14.6181429770352
1580421740.28222,66.55985351339,133.699549858854,14.923323414969
1580421740.28622,65.2170595864809,133.333333333333,12.4208438239109
1580421740.29021,64.0573739223319,132.478828107118,7.96520943007545
1580421740.2942,63.6911573968109,132.234683756771,-1.98367284657047
1580421740.2982,66.0715648126957,128.023193713283,-21.1490043488211
1580421740.30218,61.4328221560995,131.746395056077,4.05889982452118
1580421740.30618,56.7940794995038,141.878385595483,19.501029983978
1580421740.31017,54.6578164339662,135.713740749218,25.5436026550697
1580421740.31416,54.1084916456853,130.403601129168,27.3746852826732
1580421740.31816,54.5357442587929,131.563286793316,29.2668039978637
1580421740.32215,55.6343938353548,134.554055085069,30.5485618371861
1580421740.32615,57.5875486381319,136.751354238193,31.464103150988
1580421740.33014,59.9679560540167,139.070725566491,31.1589227130539
1580421740.33413,62.7756160830095,140.352483405813,30.3654535744258
1580421740.33813,65.461203936828,141.573205157549,29.1447318226901
1580421740.34212,67.4143587396052,141.75631342031,27.0695048447394
1580421740.34611,67.7805752651257,141.451132982376,24.6890974288547
1580421740.35011,66.3767452506295,140.718699931334,22.1255817502097
1580421740.3541,63.3249408712904,139.620050354772,19.195849546044
1580421740.35809,58.8082703898676,137.727931639582,16.3881895170518
1580421740.36209,53.6812390325777,135.530632486458,13.8246738384069
1580421740.36608,48.8593881132219,133.150225070573,11.2611581597619
1580421740.37007,45.2582589456015,130.952925917449,9.61318379491877
1580421740.37407,42.4505989166094,129.243915465019,8.6366063935302
1580421740.37806,40.8636606393529,128.08422980087,8.51453421835663
1580421740.38208,40.1312275883115,127.168688487068,9.4300755321583
1580421740.38607,39.7039749752039,126.131074998093,11.2611581597619
1580421740.39007,38.7884336614022,124.84931715877,13.7026016632333
1580421740.39406,37.0794232089722,123.628595407034,16.632333867399
1580421740.39805,35.0041962310215,122.407873655299,19.8062104219118
1580421740.40205,33.6003662165253,120.881971465629,22.5528343633173
1580421740.40604,33.3562218661782,119.53917753872,25.2994583047225
1580421740.41003,34.027618829633,118.257419699397,27.4357213702601
1580421740.41403,34.5159075303272,117.708094911116,29.2057679102768
1580421740.41802,34.5159075303272,118.01327534905,30.2433813992523
1580421740.42201,34.027618829633,118.501564049745,30.609597924773
1580421740.42601,33.9055466544594,118.01327534905,30.1213092240787
1580421740.43,34.2107270923932,116.12115663386,28.900587472343
1580421740.434,34.5769436179139,113.191424429694,26.8863965819789
1580421740.43799,34.2717631799801,109.895475700008,23.8956282902266
1580421740.44198,32.4406805523765,106.05020218204,20.4165712977797
1580421740.44598,29.3888761730373,101.838712138552,16.3271534294652
1580421740.44997,25.9098191805904,97.3830777447165,12.4208438239109
1580421740.45396,23.8956282902266,92.3781185626003,8.6366063935302
1580421740.45796,24.5059891660944,87.3731593804837,5.6458381017776
1580421740.46194,27.3136491950866,82.4902723735408,3.57061112382689
1580421740.46594,31.6472114137482,77.9125658045323,2.53299763485165
1580421740.46993,35.7366292820629,73.7010757610437,2.47196154726475
1580421740.47392,38.4222171358815,69.0012970168614,2.89921416037237
1580421740.47792,38.9715419241625,64.6677347981995,3.99786373693451
1580421740.48191,37.0183871213853,61.8600747692071,5.09651331349664
1580421740.4859,33.2341496910046,59.8458838788433,5.88998245212474
1580421740.4899,28.8395513847561,58.0758373388262,6.43930724040592
1580421740.49389,24.4449530785075,56.1226825360491,6.68345159075307
1580421740.49789,20.5996795605402,53.8643472953381,6.68345159075307
1580421740.50188,17.1816586556802,50.9956511787591,6.92759594110021
1580421740.50587,14.2519264515145,47.1503776607917,7.11070420386045
1580421740.50987,11.505302510109,42.6337071793696,7.04966811627378
1580421740.51386,9.18593118181116,37.6287479972532,6.74448767833974
1580421740.51785,7.84313725490188,32.4406805523765,5.82894636453807
1580421740.52185,8.14831769283592,27.3746852826732,4.42511635004189
1580421740.52584,10.5287251087204,22.4307621881437,2.7161058976119
1580421740.52983,14.9843595025559,18.1582360570687,0.946059357595232
1580421740.53383,20.5386434729533,13.8246738384069,-0.51880674448762
1580421740.53782,26.5812161440451,9.24696726939806,-1.55642023346309
1580421740.54184,32.4406805523765,4.54718852521546,-2.22781719691761
1580421740.54583,38.3611810482946,0.0305180437933359,-2.34988937209118
1580421740.54983,44.0375371938658,-3.81475547417404,-2.47196154726475
1580421740.55382,49.8970016021972,-7.29381246662092,-2.65506981002522
1580421740.55781,55.8175020981153,-11.0170138094147,-3.32646677347975
1580421740.56181,60.3341725795376,-16.083009079118,-4.54718852521546
1580421740.5658,62.6535439078357,-22.5528343633173,-6.19516289005878
1580421740.56979,62.4093995574881,-31.3420309758146,-8.27038986800949
1580421740.57379,60.1510643167771,-41.9623102159153,-10.3456168459602
1580421740.57778,58.3199816891733,-52.6436255436026,-12.2987716487373
1580421740.58177,58.3199816891733,-62.8366521705959,-13.7636377508202
1580421740.58577,60.3341725795376,-72.7244983596552,-14.6791790646218
1580421740.58976,62.4704356450748,-81.9409475852597,-15.228503852903
1580421740.59376,61.6769665064467,-90.3639276722361,-15.8999008163576
1580421740.59775,55.3902494850076,-97.9324025329977,-17.3647669184404
1580421740.60174,45.1972228580146,-103.425650415808,-19.9282825970854
1580421740.60573,35.2483405813687,-107.026779583429,-23.8345922026397
1580421740.60973,28.1681544213016,-109.773403524834,-28.6564431219958
1580421740.61372,24.322880903334,-113.008316166934,-33.9055466544596
1580421740.61772,22.9800869764247,-117.219806210422,-39.8260471503777
1580421740.62173,24.0787365529868,-123.750667582208,-45.6244754711224
1580421740.62573,27.4357213702601,-133.333333333333,-51.4839398794538
1580421740.62972,34.3327992675668,-143.099107347219,-56.8551155870909
1580421740.63371,45.3803311207751,-152.498664835584,-61.4328221560997
1580421740.63771,60.9445334554052,-160.982681010147,-65.7053482871747
1580421740.6417,78.4618905928132,-166.475928892958,-69.062333104448
1580421740.64569,94.4533455405508,-168.795300221256,-71.2596322575723
1580421740.64969,106.660563057908,-170.443274586099,-72.4193179217211
1580421740.65368,115.571831845579,-172.762645914397,-71.8699931334402
1580421740.65768,123.201342793927,-174.471656366827,-69.611657892729
1580421740.66167,132.173647669184,-174.654764629587,-65.5222400244145
1580421740.66566,143.099107347219,-173.800259403372,-58.9913786526283
1580421740.66966,155.123216601816,-172.70160982681,-50.3852903028917
1580421740.67365,165.804531929503,-171.419851987488,-39.3987945372703
1580421740.67764,171.908140688182,-169.222552834363,-27.0695048447394
1580421740.68164,171.480888075074,-166.170748455024,-13.9467460135804
1580421740.68563,164.827954528115,-163.057907988098,-0.946059357595232
1580421740.68962,153.292133974212,-160.7385366598,11.3832303349354
1580421740.69362,138.704509040971,-159.456778820478,22.3086900129701
1580421740.69761,121.858548867018,-159.02952620737,31.7692835889218
1580421740.7016,102.754253452354,-158.785381857023,39.4598306248567
1580421740.70559,81.8799114976732,-158.052948805982,45.3192950331882
1580421740.70959,59.6017395284962,-158.113984893568,49.1645685511558
1580421740.71358,37.5677119096665,-158.541237506676,50.6294346532386
1580421740.71757,16.632333867399,-159.02952620737,49.7138933394367
1580421740.72157,-2.22781719691761,-160.067139696346,47.0283054856181
1580421740.72556,-19.7451743343252,-162.26443884947,43.4271763179979
1580421740.72955,-37.0183871213856,-165.560387579156,39.3377584496832
1580421740.73355,-54.7188525215533,-168.734264133669,35.2483405813687
1580421740.73754,-72.2362096589609,-170.99259937438,31.3420309758144
1580421740.74153,-87.9835202563515,-172.823682001984,27.0695048447394
1580421740.74553,-101.228351262684,-174.776836804761,22.4917982757304
1580421740.74952,-111.482413977264,-176.852063782712,17.4258030060273
1580421740.75351,-119.478141451133,-179.171435111009,12.1156633859769
1580421740.75751,-125.703822384985,-181.124589913787,6.43930724040592
1580421740.7615,-130.281528953994,-182.77256427863,0.70191500724809
1580421740.76549,-133.943694209201,-183.871213855192,-4.73029678797593
1580421740.76949,-136.385137712673,-184.298466468299,-9.97940032043948
1580421740.77348,-137.056534676127,-184.48157473106,-14.5571068894483
1580421740.77747,-136.202029449912,-184.298466468299,-18.5854886701761
1580421740.78146,-133.943694209201,-183.871213855192,-22.064545662623
1580421740.78546,-130.891889829862,-182.95567254139,-25.2994583047225
1580421740.78945,-127.473868925002,-181.490806439307,-27.8019378957808
1580421740.79344,-123.750667582208,-179.049362935836,-29.3278400854504
1580421740.79744,-119.417105363546,-175.93652246891,-29.9992370489051
1580421740.80143,-114.534218356603,-172.579537651637,-30.0602731364918
1580421740.80542,-108.430609597925,-168.856336308843,-29.3278400854504
1580421740.80942,-101.411459525445,-165.377279316396,-28.1681544213016
1580421740.81341,-93.4767681391622,-162.142366674296,-26.3981078812847
1580421740.8174,-85.0537880521858,-158.84641794461,-24.2008087281604
1580421740.8214,-76.447699702449,-155.550469214923,-21.759365224689
1580421740.82539,-68.207827878233,-152.254520485237,-19.2568856336309
1580421740.82939,-60.4562447547112,-148.77546349279,-16.8154421301595
1580421740.83338,-53.5591668574045,-144.563973449302,-14.5571068894483
1580421740.83737,-47.3945220111391,-139.986266880293,-12.4208438239109
1580421740.84137,-41.8402380407417,-135.042343785763,-10.2235446707866
1580421740.84536,-37.201495384146,-129.732204165713,-7.90417334248878
1580421740.84935,-33.3562218661784,-124.361028458076,-6.07309071488521
1580421740.85335,-30.5485618371861,-118.989852750439,-3.99786373693451
1580421740.85734,-28.900587472343,-113.618677042802,-2.10574502174404
1580421740.86136,-28.1681544213016,-108.369573510338,-0.51880674448762
1580421740.86535,-28.4733348592354,-103.547722590982,0.885023270008332
1580421740.86934,-29.3888761730373,-99.0310521095598,2.04470893415737
1580421740.87334,-30.9147783627068,-94.2702372777906,2.96025024795904
1580421740.87733,-32.8679331654841,-89.8756389715418,3.44853894865332
1580421740.88133,-35.0652323186084,-85.5420767528801,3.75371938658736
1580421740.88532,-37.3846036469063,-81.2695506218051,3.81475547417404
1580421740.88931,-40.0701915007248,-76.8749523155566,3.63164721141379
1580421740.89331,-43.3661402304112,-71.6868848706797,3.26543068589308
1580421740.8973,-47.3334859235524,-65.8274204623483,2.65506981002522
1580421740.90129,-51.8501564049745,-59.4186312657359,1.98367284657047
1580421740.90529,-57.0992599374381,-52.2163729304953,1.31227588311594
1580421740.90928,-62.2262912947281,-44.3427176317998,0.579842832074519
1580421740.91327,-67.5364309147783,-36.5300984206913,-0.152590218966907
1580421740.91727,-71.7479209582666,-28.4733348592354,-0.640878919661191
1580421740.92126,-74.738689250019,-20.5386434729533,-1.0070954451819
1580421740.92525,-75.7763027389944,-12.7870603494316,-0.762951094834762
1580421740.92925,-74.3114366369116,-5.34065766384379,0.152590218966907
1580421740.93324,-70.0999465934233,1.9226367589838,2.04470893415737
1580421740.93723,-63.4470130464638,9.18593118181116,4.36408026245522
1580421740.94122,-55.3902494850081,16.5712977798123,7.17174029144735
1580421740.94522,-47.455558098726,24.5059891660944,9.91836423285258
1580421740.94921,-41.5960936903946,32.7458609903103,12.6039520866711
1580421740.9532,-39.5208667124439,40.1922636758982,14.1908903639276
1580421740.9572,-41.474021515221,46.4179446097503,13.7026016632333
1580421740.96119,-46.2958724345769,51.2397955291062,11.4442664225223
1580421740.96518,-52.2774090180819,55.0240329594872,8.14831769283592
1580421740.96918,-56.1837186236362,58.747234302281,4.91340505073617
1580421740.97317,-56.3668268863967,63.5080491340509,2.41092545967808
1580421740.97716,-51.1177233539331,70.771343556878,0.640878919661191
1580421740.98116,-39.459830624857,80.842298008698,0.152590218966907
1580421740.98515,-20.050354772259,93.598840314336,1.0070954451819
1580421740.98915,7.96520943007545,107.820248722057,4.36408026245522
1580421740.99314,44.7699702449072,121.187151903563,11.0780498970016
1580421740.99713,89.3263141832608,131.563286793316,21.0269321736475
1580421741.00112,139.131761654078,136.385137712673,33.6614023041122
1580421741.00512,188.998245212482,133.699549858854,47.638666361486
1580421741.00911,232.089723048753,122.95719844358,60.7003891050581
1580421741.01311,261.448081177996,104.585336079957,70.3440909437709
1580421741.0171,271.030746929122,81.0864423590451,76.264591439689
1580421741.02109,257.236591134508,56.0006103608757,77.2411688410775
1580421741.02508,218.234531166552,33.2341496910046,72.9686427100023
1580421741.02907,147.249561303121,18.4634164950025,64.0573739223319
1580421741.03307,37.7508201724268,7.17174029144735,53.8643472953381
1580421741.03706,-89.2042420080872,-11.1390859845883,48.1879911497672
1580421741.04105,-191.744869153887,-31.2809948882277,46.1738002594032
1580421741.04505,-245.334554055085,-42.9388876173039,47.3945220111389
1580421741.04904,-246.982528419928,-44.9530785076677,50.4463263904781
1580421741.05304,-214.389257648585,-42.6337071793698,54.4136720836191
1580421741.05703,-170.565346761273,-38.605325398642,58.3810177767605
1580421741.06102,-130.525673304341,-28.2291905088882,61.1276417181657
1580421741.06502,-98.3596551461053,-9.79629205767901,62.0431830319676
1580421741.06901,-71.1375600823987,10.8339055466545,61.249713893339
1580421741.073,-45.5024032959489,28.2291905088882,58.3199816891733
1580421741.077,-22.7359426260775,41.1688410772867,53.7422751201648
1580421741.08099,-5.09651331349664,48.3710994125277,47.5165941863124
1580421741.08498,6.74448767833974,48.1269550621805,40.2532997634851
1580421741.08898,14.7402151522087,41.4129854276339,32.8068970778972
1580421741.09297,21.2710765239947,30.1823453116654,25.7877470054168
1580421741.09696,26.9474326695658,17.3037308308537,20.1113908598459
1580421741.10098,30.1823453116654,6.19516289005878,16.5102616922254
1580421741.10498,30.609597924773,-2.83817807278547,15.3505760280766
1580421741.10897,28.7174792095825,-10.5897611963073,17.0595864805066
1580421741.11296,26.7032883192187,-18.0361638818952,20.2334630350194
1580421741.11696,26.0318913557639,-25.9098191805904,22.7969787136644
1580421741.12095,27.0695048447394,-38.3611810482948,23.468375677119
1580421741.12494,27.3136491950866,-56.5499351491569,21.2710765239947
1580421741.12894,19.0737773708704,-78.8891432059204,16.4492256046387
1580421741.13293,-0.396734569314049,-99.8245212481881,8.27038986800949
1580421741.13692,-27.0084687571525,-112.214847028305,-1.61745632104976
1580421741.14092,-54.1084916456855,-109.956511787595,-12.1156633859769
1580421741.14491,-77.302204928664,-92.927443350881,-20.5386434729533
1580421741.1489,-89.3873502708475,-67.7805752651254,-24.2008087281604
1580421741.1529,-82.1850919356068,-41.1078049897003,-22.4307621881437
1580421741.15689,-53.0098420691234,-18.2803082322423,-15.5947203784237
1580421741.16088,-11.0780498970016,-3.20439459830618,-3.69268329900046
1580421741.16488,27.191577019913,2.10574502174404,11.9935912108033
1580421741.16887,46.9672693980315,0.946059357595232,29.1447318226901
1580421741.17286,44.1596093690393,-0.946059357595232,43.7933928435186
1580421741.17686,24.0787365529868,-1.19020370794237,52.0943007553215
1580421741.18085,-3.44853894865332,-0.335698481727377,52.9488059815362
1580421741.18484,-29.6940566109711,-0.762951094834762,48.6152437628748
1580421741.18883,-53.1319142442969,-1.19020370794237,42.2064545662622
1580421741.19283,-75.1659418631266,0.091554131380235,35.4924849317158
1580421741.19682,-93.4767681391622,0.51880674448762,28.3512626840618
1580421741.20081,-106.111238269627,-1.61745632104976,20.1113908598459
1580421741.20481,-113.313496604868,-4.73029678797593,10.0404364080262
1580421741.2088,-116.792553597315,-5.7068741893645,-0.885023270008332
1580421741.2128,-117.341878385595,-3.20439459830618,-10.4676890211338
1580421741.21679,-114.717326619364,1.0070954451819,-17.2426947432668
1580421741.22078,-109.224078736553,4.60822461280236,-20.2334630350194
1580421741.22477,-102.082856488899,6.62241550316617,-20.1113908598459
1580421741.22877,-94.2092011902039,7.53795681696806,-18.7075608453497
1580421741.23276,-84.6265354390782,9.06385900663759,-16.7544060425726
1580421741.23676,-71.1985961699854,12.7870603494316,-14.373998626688
1580421741.24075,-53.0098420691234,19.4399938963911,-11.505302510109
1580421741.24474,-30.9147783627068,28.4122987716487,-8.39246204318306
1580421741.24874,-6.25619897764545,38.7273975738153,-5.7068741893645
1580421741.25273,19.9893186846723,50.4463263904781,-3.87579156176093
1580421741.25672,46.1127641718165,62.7756160830095,-2.47196154726475
1580421741.26074,69.8558022430766,74.6776531624323,-1.43434805828952
1580421741.26473,87.8004119935913,83.4058136873427,-0.091554131380235
1580421741.26873,97.2610055695432,87.2510872053103,2.22781719691761
1580421741.27272,97.4441138323036,85.7862211032275,6.01205462729831
1580421741.27672,90.2418554970627,80.6591897459375,10.7728694590676
1580421741.28071,78.6449988555737,74.2504005493251,14.8622873273823
1580421741.2847,65.2780956740676,68.2078278782333,17.5478751812009
1580421741.2887,51.4839398794534,62.7145799954224,18.8296330205233
1580421741.29269,37.6897840848401,57.4654764629586,19.2568856336309
1580421741.29668,24.3839169909209,53.07087815671,19.1348134584573
