Timestamp_seconds,Accel_X_g,Accel_Y_g,Accel_Z_g
1580421734.92651,-0.969497215228504,0.037842374303807,-0.251224536507211
1580421734.93051,-0.966079194323644,0.0383306630045013,-0.250247959105822
1580421734.9345,-0.970473792629893,0.0368657969024184,-0.251224536507211
1580421734.93849,-0.97242694743267,0.0393072404058898,-0.256595712214848
1580421734.94249,-0.974868390936141,0.0388189517051956,-0.254154268711376
1580421734.94648,-0.973403524834058,0.0388189517051956,-0.252201113908599
1580421734.95047,-0.974868390936141,0.0358892195010299,-0.253177691309988
1580421734.95446,-0.977309834439613,0.0339360646982527,-0.248783093003738
1580421734.95846,-0.975356679636835,0.0324711985961699,-0.255130846112765
1580421734.96245,-0.976821545738918,0.0290531776913099,-0.250736247806516
1580421734.96644,-0.976821545738918,0.0314946211947813,-0.252201113908599
1580421734.97044,-0.972915236133364,0.0280766002899213,-0.253665980010682
1580421734.97443,-0.972915236133364,0.0324711985961699,-0.253177691309988
1580421734.97842,-0.970962081330587,0.0354009308003356,-0.253177691309988
1580421734.98242,-0.970473792629893,0.0334477759975584,-0.250736247806516
1580421734.98641,-0.969497215228504,0.0368657969024184,-0.252689402609294
1580421734.9904,-0.968032349126421,0.0373540856031127,-0.256595712214848
1580421734.9944,-0.967544060425727,0.0407721065079727,-0.259037155718319
1580421734.99839,-0.966567483024338,0.0388189517051956,-0.261478599221791
1580421735.00238,-0.96559090562295,0.0432135500114441,-0.257084000915542
1580421735.00638,-0.966567483024338,0.044678416113527,-0.258548867017625
1580421735.01037,-0.966079194323644,0.041260395208667,-0.254642557412071
1580421735.01437,-0.968032349126421,0.0417486839093613,-0.257572289616236
1580421735.01836,-0.970473792629893,0.044678416113527,-0.255130846112765
1580421735.02235,-0.969985503929198,0.041260395208667,-0.250736247806516
1580421735.02635,-0.969985503929198,0.0397955291065841,-0.255130846112765
1580421735.03036,-0.969985503929198,0.044678416113527,-0.255130846112765
1580421735.03436,-0.97242694743267,0.0417486839093613,-0.250736247806516
1580421735.03835,-0.974380102235447,0.0437018387121384,-0.248294804303043
1580421735.04235,-0.97242694743267,0.0397955291065841,-0.249759670405126
1580421735.04634,-0.973403524834058,0.0397955291065841,-0.255130846112765
1580421735.05033,-0.976333257038224,0.0373540856031127,-0.251712825207905
1580421735.05433,-0.974868390936141,0.0383306630045013,-0.243900205996795
1580421735.05832,-0.974868390936141,0.0393072404058898,-0.245853360799572
1580421735.06231,-0.97242694743267,0.0358892195010299,-0.245365072098878
1580421735.06631,-0.971938658731975,0.0383306630045013,-0.241947051194018
1580421735.0703,-0.971938658731975,0.0368657969024184,-0.244876783398183
1580421735.07429,-0.97242694743267,0.0349126420996413,-0.23999389639124
1580421735.07829,-0.972915236133364,0.034424353398947,-0.241458762493323
1580421735.08228,-0.973403524834058,0.0354009308003356,-0.241458762493323
1580421735.08627,-0.973891813534753,0.0349126420996413,-0.233646143282215
1580421735.09027,-0.972915236133364,0.0368657969024184,-0.238040741588463
1580421735.09426,-0.973403524834058,0.037842374303807,-0.237552452887769
1580421735.09825,-0.973891813534753,0.0388189517051956,-0.240482185091935
1580421735.10225,-0.976821545738918,0.0417486839093613,-0.239017318989852
1580421735.10624,-0.976821545738918,0.0437018387121384,-0.236087586785686
1580421735.11023,-0.97926298924239,0.0441901274128327,-0.242923628595406
1580421735.11422,-0.980239566643778,0.0451667048142212,-0.241458762493323
1580421735.11822,-0.980239566643778,0.0495613031204698,-0.240482185091935
1580421735.12221,-0.979751277943084,0.0500495918211641,-0.238529030289158
1580421735.1262,-0.982192721446555,0.0490730144197755,-0.241458762493323
1580421735.1302,-0.979751277943084,0.0505378805218584,-0.238040741588463
1580421735.13419,-0.979751277943084,0.0534676127260241,-0.242923628595406
1580421735.13818,-0.977798123140307,0.0510261692225527,-0.241947051194018
1580421735.14218,-0.977309834439613,0.0520027466239412,-0.239017318989852
1580421735.14617,-0.973403524834058,0.0534676127260241,-0.244876783398183
1580421735.15016,-0.975356679636835,0.0490730144197755,-0.244388494697489
1580421735.15416,-0.975356679636835,0.0490730144197755,-0.245853360799572
1580421735.15815,-0.974380102235447,0.0451667048142212,-0.244876783398183
1580421735.16214,-0.97242694743267,0.0471198596169984,-0.245365072098878
1580421735.16614,-0.975356679636835,0.0451667048142212,-0.245853360799572
1580421735.17013,-0.970962081330587,0.041260395208667,-0.245365072098878
1580421735.17412,-0.971450370031281,0.0417486839093613,-0.248783093003738
1580421735.17812,-0.97242694743267,0.0461432822156098,-0.246341649500266
1580421735.18211,-0.969497215228504,0.0461432822156098,-0.248294804303043
1580421735.18611,-0.967055771725033,0.0437018387121384,-0.249271381704432
1580421735.19009,-0.967544060425727,0.0427252613107498,-0.249271381704432
1580421735.19409,-0.967055771725033,0.048096437018387,-0.248783093003738
1580421735.19808,-0.966079194323644,0.0466315709163041,-0.252689402609294
1580421735.20207,-0.966079194323644,0.0437018387121384,-0.254154268711376
1580421735.20607,-0.966079194323644,0.0471198596169984,-0.255130846112765
1580421735.21006,-0.964126039520867,0.0476081483176927,-0.250247959105822
1580421735.21405,-0.963149462119478,0.0510261692225527,-0.250736247806516
1580421735.21805,-0.966079194323644,0.0466315709163041,-0.249759670405126
1580421735.22204,-0.968520637827115,0.0490730144197755,-0.253665980010682
1580421735.22603,-0.967055771725033,0.0505378805218584,-0.253665980010682
1580421735.23003,-0.966079194323644,0.0515144579232469,-0.252201113908599
1580421735.23402,-0.967544060425727,0.0505378805218584,-0.256595712214848
1580421735.23802,-0.967055771725033,0.0549324788281069,-0.258060578316931
1580421735.24201,-0.966567483024338,0.0563973449301898,-0.261478599221791
1580421735.246,-0.965102616922255,0.0583504997329669,-0.260013733119708
1580421735.25,-0.965102616922255,0.0583504997329669,-0.257572289616236
1580421735.25399,-0.966079194323644,0.0607919432364383,-0.256107423514154
1580421735.25798,-0.968520637827115,0.0573739223315783,-0.255130846112765
1580421735.26198,-0.968032349126421,0.060303654535744,-0.253177691309988
1580421735.26597,-0.966079194323644,0.060303654535744,-0.258548867017625
1580421735.26999,-0.964614328221561,0.0563973449301898,-0.252201113908599
1580421735.27398,-0.968032349126421,0.0544441901274126,-0.247806515602349
1580421735.27798,-0.969985503929198,0.0593270771343555,-0.254154268711376
1580421735.28197,-0.968520637827115,0.0578622110322726,-0.252689402609294
1580421735.28596,-0.971938658731975,0.0568856336308841,-0.243900205996795
1580421735.28996,-0.972915236133364,0.0559090562294955,-0.243900205996795
1580421735.29395,-0.973891813534753,0.0563973449301898,-0.245365072098878
1580421735.29794,-0.974868390936141,0.0534676127260241,-0.239505607690546
1580421735.30194,-0.97926298924239,0.0529793240253298,-0.238040741588463
1580421735.30593,-0.981216144045167,0.0495613031204698,-0.239017318989852
1580421735.30992,-0.982192721446555,0.0456549935149155,-0.237064164187075
1580421735.31392,-0.983169298847944,0.0432135500114441,-0.232181277180132
1580421735.31791,-0.98609903105211,0.0373540856031127,-0.234622720683603
1580421735.3219,-0.981704432745861,0.0339360646982527,-0.238040741588463
1580421735.3259,-0.98268101014725,0.0334477759975584,-0.230228122377355
1580421735.32989,-0.97926298924239,0.0319829098954756,-0.236087586785686
1580421735.33388,-0.978286411841001,0.031006332494087,-0.233646143282215
1580421735.33788,-0.974380102235447,0.0305180437933927,-0.235599298084992
1580421735.34187,-0.974868390936141,0.0349126420996413,-0.237064164187075
1580421735.34587,-0.975356679636835,0.0334477759975584,-0.240970473792629
1580421735.34985,-0.970962081330587,0.0349126420996413,-0.243900205996795
1580421735.35385,-0.97242694743267,0.0354009308003356,-0.238529030289158
1580421735.35784,-0.969985503929198,0.0339360646982527,-0.2434119172961
1580421735.36183,-0.971938658731975,0.031006332494087,-0.253177691309988
1580421735.36583,-0.969985503929198,0.0329594872968642,-0.248783093003738
1580421735.36982,-0.967055771725033,0.0314946211947813,-0.256107423514154
1580421735.37381,-0.966079194323644,0.0314946211947813,-0.261966887922485
1580421735.37781,-0.967055771725033,0.0324711985961699,-0.261966887922485
1580421735.3818,-0.970962081330587,0.0373540856031127,-0.265384908827345
1580421735.38579,-0.971938658731975,0.037842374303807,-0.264408331425956
1580421735.38979,-0.969497215228504,0.0388189517051956,-0.257572289616236
1580421735.39378,-0.969985503929198,0.041260395208667,-0.257084000915542
1580421735.39777,-0.96900892652781,0.0368657969024184,-0.248294804303043
1580421735.40177,-0.96900892652781,0.037842374303807,-0.250247959105822
1580421735.40576,-0.970962081330587,0.0373540856031127,-0.247318226901655
1580421735.40976,-0.968032349126421,0.0314946211947813,-0.238529030289158
1580421735.41375,-0.965102616922255,0.0261234454871442,-0.242923628595406
1580421735.41774,-0.963637750820173,0.0271000228885327,-0.245365072098878
1580421735.42174,-0.962661173418784,0.024170290684367,-0.248294804303043
1580421735.42573,-0.964126039520867,0.0163576714732585,-0.248294804303043
1580421735.42975,-0.967544060425727,0.0187991149767299,-0.242435339894712
1580421735.43374,-0.968520637827115,0.0187991149767299,-0.251224536507211
1580421735.43773,-0.965102616922255,0.0187991149767299,-0.250736247806516
1580421735.44173,-0.964126039520867,0.0217288471808956,-0.251224536507211
1580421735.44572,-0.964614328221561,0.0207522697795071,-0.253665980010682
1580421735.44972,-0.964614328221561,0.0246585793850613,-0.249271381704432
1580421735.45371,-0.962661173418784,0.0261234454871442,-0.254642557412071
1580421735.4577,-0.965102616922255,0.027588311589227,-0.255619134813459
1580421735.4617,-0.963637750820173,0.0305180437933927,-0.257084000915542
1580421735.46569,-0.966079194323644,0.0354009308003356,-0.257084000915542
1580421735.46968,-0.968520637827115,0.0363775082017241,-0.259525444419014
1580421735.47368,-0.96559090562295,0.0339360646982527,-0.260502021820402
1580421735.47767,-0.963637750820173,0.0393072404058898,-0.261966887922485
1580421735.48166,-0.966567483024338,0.037842374303807,-0.262943465323874
1580421735.48566,-0.963149462119478,0.0363775082017241,-0.270267795834288
1580421735.48965,-0.961196307316701,0.0329594872968642,-0.269779507133594
1580421735.49364,-0.960708018616007,0.0334477759975584,-0.270756084534982
1580421735.49764,-0.958266575112535,0.0314946211947813,-0.272220950637065
1580421735.50163,-0.959243152513924,0.031006332494087,-0.272220950637065
1580421735.50563,-0.96217288471809,0.0295414663920042,-0.269291218432899
1580421735.50964,-0.961684596017395,0.0339360646982527,-0.266361486228734
1580421735.51364,-0.967544060425727,0.031006332494087,-0.266849774929428
1580421735.51763,-0.96900892652781,0.0354009308003356,-0.262943465323874
1580421735.52162,-0.969497215228504,0.0373540856031127,-0.260013733119708
1580421735.52562,-0.97242694743267,0.037842374303807,-0.259525444419014
1580421735.52961,-0.968520637827115,0.0358892195010299,-0.250736247806516
1580421735.5336,-0.972915236133364,0.0397955291065841,-0.250736247806516
1580421735.5376,-0.973403524834058,0.0407721065079727,-0.247318226901655
1580421735.54159,-0.970473792629893,0.0402838178072784,-0.245365072098878
1580421735.54558,-0.971938658731975,0.0393072404058898,-0.245365072098878
1580421735.54958,-0.96559090562295,0.037842374303807,-0.248783093003738
1580421735.55357,-0.966567483024338,0.0383306630045013,-0.249271381704432
1580421735.55756,-0.964126039520867,0.0349126420996413,-0.251224536507211
1580421735.56156,-0.964126039520867,0.0324711985961699,-0.258060578316931
1580421735.56555,-0.962661173418784,0.0280766002899213,-0.260013733119708
1580421735.56955,-0.961196307316701,0.0271000228885327,-0.262943465323874
1580421735.57354,-0.96559090562295,0.0212405584802013,-0.264896620126651
1580421735.57753,-0.959243152513924,0.0183108262760356,-0.266849774929428
1580421735.58153,-0.96217288471809,0.0148928053711757,-0.267826352330816
1580421735.58552,-0.961196307316701,0.0153810940718699,-0.266361486228734
1580421735.58951,-0.960219729915313,0.0148928053711757,-0.262455176623179
1580421735.5935,-0.96217288471809,0.0144045166704814,-0.268314641031511
1580421735.59749,-0.963637750820173,0.0212405584802013,-0.261966887922485
1580421735.60149,-0.964126039520867,0.0217288471808956,-0.260502021820402
1580421735.60548,-0.965102616922255,0.0285648889906156,-0.260990310521096
1580421735.60947,-0.967544060425727,0.0261234454871442,-0.255130846112765
1580421735.61347,-0.966079194323644,0.0295414663920042,-0.247318226901655
1580421735.61746,-0.963637750820173,0.0329594872968642,-0.250247959105822
1580421735.62146,-0.966079194323644,0.0305180437933927,-0.250736247806516
1580421735.62545,-0.966079194323644,0.0295414663920042,-0.252201113908599
1580421735.62944,-0.966567483024338,0.031006332494087,-0.253177691309988
1580421735.63344,-0.963637750820173,0.0300297550926985,-0.251712825207905
1580421735.63743,-0.961196307316701,0.0285648889906156,-0.253665980010682
1580421735.64142,-0.96217288471809,0.0266117341878385,-0.253665980010682
1580421735.64542,-0.960219729915313,0.0251468680857556,-0.253177691309988
1580421735.64941,-0.96217288471809,0.0251468680857556,-0.252689402609294
1580421735.6534,-0.963637750820173,0.0261234454871442,-0.249759670405126
1580421735.6574,-0.969497215228504,0.027588311589227,-0.250247959105822
1580421735.66139,-0.970962081330587,0.027588311589227,-0.246341649500266
1580421735.66538,-0.974868390936141,0.0266117341878385,-0.246341649500266
1580421735.66937,-0.970962081330587,0.027588311589227,-0.247806515602349
1580421735.67337,-0.977309834439613,0.0290531776913099,-0.242923628595406
1580421735.67736,-0.982192721446555,0.0271000228885327,-0.242435339894712
1580421735.68135,-0.980727855344472,0.031006332494087,-0.2434119172961
1580421735.68535,-0.987075608453498,0.0368657969024184,-0.23999389639124
1580421735.68934,-0.988540474555581,0.0339360646982527,-0.23315785458152
1580421735.69333,-0.98951705195697,0.0358892195010299,-0.228274967574578
1580421735.69733,-0.990981918059052,0.0388189517051956,-0.226321812771801
1580421735.70132,-0.990981918059052,0.0358892195010299,-0.222415503166246
1580421735.70531,-0.987563897154192,0.0358892195010299,-0.224368657969023
1580421735.70931,-0.989028763256275,0.0324711985961699,-0.222415503166246
1580421735.7133,-0.985610742351415,0.031006332494087,-0.222415503166246
1580421735.71729,-0.986587319752804,0.0319829098954756,-0.221438925764858
1580421735.72129,-0.984145876249332,0.0271000228885327,-0.220950637064163
1580421735.72528,-0.985122453650721,0.0246585793850613,-0.227298390173189
1580421735.72927,-0.982192721446555,0.0236820019836728,-0.228274967574578
1580421735.73327,-0.98268101014725,0.0183108262760356,-0.229739833676661
1580421735.73726,-0.979751277943084,0.0197756923781185,-0.233646143282215
1580421735.74126,-0.974868390936141,0.0207522697795071,-0.229251544975966
1580421735.74525,-0.976821545738918,0.0197756923781185,-0.244876783398183
1580421735.74927,-0.97242694743267,0.0222171358815899,-0.241458762493323
1580421735.75326,-0.968032349126421,0.0217288471808956,-0.245365072098878
1580421735.75725,-0.963149462119478,0.0231937132829785,-0.248783093003738
1580421735.76125,-0.959243152513924,0.0178225375753414,-0.252201113908599
1580421735.76524,-0.955825131609064,0.0261234454871442,-0.252201113908599
1580421735.76923,-0.958266575112535,0.0236820019836728,-0.245853360799572
1580421735.77323,-0.957289997711147,0.0280766002899213,-0.252689402609294
1580421735.77722,-0.961684596017395,0.0256351567864499,-0.255130846112765
1580421735.78121,-0.963637750820173,0.0231937132829785,-0.258060578316931
1580421735.78521,-0.966567483024338,0.0222171358815899,-0.256595712214848
1580421735.7892,-0.969497215228504,0.0173342488746471,-0.255619134813459
1580421735.7932,-0.970473792629893,0.0144045166704814,-0.255130846112765
1580421735.79719,-0.974868390936141,0.0129396505683985,-0.248294804303043
1580421735.80118,-0.976821545738918,0.0173342488746471,-0.250247959105822
1580421735.80518,-0.977798123140307,0.0192874036774242,-0.248783093003738
1580421735.80917,-0.97584496833753,0.0227054245822842,-0.245853360799572
1580421735.81316,-0.975356679636835,0.0290531776913099,-0.242435339894712
1580421735.81716,-0.975356679636835,0.0358892195010299,-0.248294804303043
1580421735.82115,-0.972915236133364,0.0388189517051956,-0.245365072098878
1580421735.82514,-0.971938658731975,0.0466315709163041,-0.245853360799572
1580421735.82913,-0.96900892652781,0.0505378805218584,-0.249759670405126
1580421735.83312,-0.967055771725033,0.0593270771343555,-0.256107423514154
1580421735.83712,-0.965102616922255,0.067139696345464,-0.259525444419014
1580421735.84111,-0.963149462119478,0.0676279850461583,-0.260990310521096
1580421735.84511,-0.96217288471809,0.0695811398489354,-0.267338063630122
1580421735.8491,-0.95875486381323,0.0715342946517126,-0.271244373235676
1580421735.85309,-0.95875486381323,0.0700694285496297,-0.271732661936371
1580421735.85709,-0.960708018616007,0.0666514076447697,-0.265384908827345
1580421735.86108,-0.960219729915313,0.0632333867399097,-0.276615548943314
1580421735.86507,-0.960708018616007,0.0524910353246355,-0.274174105439842
1580421735.86907,-0.957778286411841,0.0485847257190812,-0.268314641031511
1580421735.87306,-0.95533684290837,0.0441901274128327,-0.267338063630122
1580421735.87705,-0.95533684290837,0.0388189517051956,-0.269291218432899
1580421735.88105,-0.952895399404898,0.0368657969024184,-0.269779507133594
1580421735.88504,-0.949965667200733,0.0329594872968642,-0.271732661936371
1580421735.88903,-0.949477378500038,0.0271000228885327,-0.270267795834288
1580421735.89303,-0.949477378500038,0.0202639810788128,-0.275638971541925
1580421735.89702,-0.946059357595178,0.0207522697795071,-0.278080415045396
1580421735.90102,-0.948012512397955,0.0168459601739528,-0.280521858548868
1580421735.90501,-0.94850080109865,0.0187991149767299,-0.281498435950256
1580421735.90903,-0.952407110704204,0.0158693827725642,-0.276127260242619
1580421735.91302,-0.955825131609064,0.0212405584802013,-0.276615548943314
1580421735.91701,-0.958266575112535,0.0207522697795071,-0.276127260242619
1580421735.92101,-0.96217288471809,0.0217288471808956,-0.270267795834288
1580421735.925,-0.966567483024338,0.0290531776913099,-0.263920042725262
1580421735.92899,-0.967055771725033,0.0290531776913099,-0.254154268711376
1580421735.93299,-0.966079194323644,0.0300297550926985,-0.250247959105822
1580421735.93698,-0.968032349126421,0.0300297550926985,-0.244388494697489
1580421735.94097,-0.96900892652781,0.031006332494087,-0.241947051194018
1580421735.94497,-0.970962081330587,0.0339360646982527,-0.235599298084992
1580421735.94896,-0.974380102235447,0.034424353398947,-0.229739833676661
1580421735.95296,-0.974868390936141,0.0402838178072784,-0.234622720683603
1580421735.95695,-0.980239566643778,0.0397955291065841,-0.23315785458152
1580421735.96094,-0.983657587548638,0.037842374303807,-0.229739833676661
1580421735.96494,-0.983169298847944,0.034424353398947,-0.235111009384298
1580421735.96893,-0.986587319752804,0.0280766002899213,-0.225345235370412
1580421735.97292,-0.994888227664607,0.0231937132829785,-0.226321812771801
1580421735.97692,-0.997817959868772,0.0192874036774242,-0.213626306553749
1580421735.98091,-1.00270084687572,0.0153810940718699,-0.201907377737086
1580421735.9849,-1.01344319829099,0.0109864957656214,-0.186770428015564
1580421735.98889,-1.01930266269932,0.0100099183642328,-0.179446097505149
1580421735.99288,-1.0207675288014,0.00610360875867855,-0.170168612191958
1580421735.99688,-1.02369726100557,0.0046387426565957,-0.157961394674601
1580421736.00087,-1.02272068360418,0.00366216525520713,-0.150637064164187
1580421736.00486,-1.01734950789654,0.00659189745937283,-0.143801022354467
1580421736.00886,-1.01490806439307,0.00903334096284425,-0.141359578850995
1580421736.01285,-1.0124666208896,0.0163576714732585,-0.137453269245441
1580421736.01685,-1.01051346608682,0.0178225375753414,-0.137941557946135
1580421736.02084,-1.00758373388266,0.0192874036774242,-0.134035248340581
1580421736.02483,-1.00660715648127,0.0227054245822842,-0.142336156252384
1580421736.02883,-1.00758373388266,0.0295414663920042,-0.137453269245441
1580421736.03282,-1.00611886778058,0.0300297550926985,-0.139894712748912
1580421736.03681,-1.00660715648127,0.0324711985961699,-0.143801022354467
1580421736.04081,-1.01002517738613,0.0334477759975584,-0.146242465857938
1580421736.0448,-1.00807202258335,0.0388189517051956,-0.146242465857938
1580421736.04879,-1.00563057907988,0.0407721065079727,-0.153078507667658
1580421736.05279,-1.00514229037919,0.048096437018387,-0.159914549477378
1580421736.05678,-1.00465400167849,0.0500495918211641,-0.164797436484321
1580421736.06077,-1.00270084687572,0.0524910353246355,-0.169680323491264
1580421736.06477,-0.999282825970855,0.0588387884336612,-0.175539787899595
1580421736.06876,-0.99635309376669,0.060303654535744,-0.182864118410009
1580421736.07275,-0.994888227664607,0.0607919432364383,-0.189211871519035
1580421736.07674,-0.98951705195697,0.0627450980392155,-0.197024490730143
1580421736.08074,-0.985610742351415,0.0622568093385212,-0.207278553444723
1580421736.08473,-0.979751277943084,0.0651865415426869,-0.208743419546806
1580421736.08872,-0.977798123140307,0.0646982528419926,-0.218997482261386
1580421736.09272,-0.973891813534753,0.0651865415426869,-0.220462348363469
1580421736.09671,-0.968520637827115,0.0627450980392155,-0.218509193560692
1580421736.1007,-0.96900892652781,0.0627450980392155,-0.221927214465552
1580421736.1047,-0.968032349126421,0.0627450980392155,-0.218997482261386
1580421736.10869,-0.965102616922255,0.0627450980392155,-0.215579461356526
1580421736.11268,-0.964614328221561,0.0598153658350498,-0.213626306553749
1580421736.11668,-0.963637750820173,0.060303654535744,-0.208743419546806
1580421736.12067,-0.962661173418784,0.0598153658350498,-0.206790264744029
1580421736.12467,-0.963637750820173,0.0627450980392155,-0.198489356832226
1580421736.12866,-0.96900892652781,0.0607919432364383,-0.196047913328755
1580421736.13265,-0.974380102235447,0.0524910353246355,-0.197512779430838
1580421736.13664,-0.983169298847944,0.0515144579232469,-0.198489356832226
1580421736.14064,-0.987563897154192,0.0466315709163041,-0.187747005416952
1580421736.14463,-0.993423361562524,0.0471198596169984,-0.188723582818341
1580421736.14865,-0.999282825970855,0.0451667048142212,-0.180422674906538
1580421736.15264,-1.00611886778058,0.0437018387121384,-0.175051499198901
1580421736.15664,-1.01149004348821,0.0407721065079727,-0.163332570382238
1580421736.16063,-1.01734950789654,0.037842374303807,-0.153566796368352
1580421736.16462,-1.02223239490349,0.0358892195010299,-0.141847867551689
1580421736.16862,-1.02906843671321,0.037842374303807,-0.128175783932249
1580421736.17261,-1.0383459220264,0.0358892195010299,-0.113038834210727
1580421736.1766,-1.04322880903334,0.0339360646982527,-0.0900892652780954
1580421736.1806,-1.04469367513542,0.0271000228885327,-0.0813000686655982
1580421736.18459,-1.04811169604028,0.0227054245822842,-0.0622568093385212
1580421736.18859,-1.05055313954376,0.0148928053711757,-0.0485847257190812
1580421736.19258,-1.05348287174792,0.00903334096284425,-0.0354009308003356
1580421736.19657,-1.05592431525139,0.00561532005798426,-0.0197756923781185
1580421736.20057,-1.05494773785,-0.00219729915312428,-0.00854505226214997
1580421736.20456,-1.0554360265507,-0.00708018616006711,0.00415045395590141
1580421736.20855,-1.0554360265507,-0.0153810940718699,0.0173342488746471
1580421736.21255,-1.05152971694514,-0.0266117341878385,0.0290531776913099
1580421736.21654,-1.05201800564584,-0.0329594872968642,0.044678416113527
1580421736.22053,-1.05934233615625,-0.0383306630045013,0.0578622110322726
1580421736.22453,-1.06764324406805,-0.0427252613107498,0.0764171816586554
1580421736.22851,-1.07447928587777,-0.0451667048142212,0.100343327992675
1580421736.23251,-1.0808270389868,-0.0476081483176927,0.117433432516975
1580421736.2365,-1.08717479209583,-0.0549324788281069,0.130128938735027
1580421736.2405,-1.09254596780346,-0.0563973449301898,0.152101930266269
1580421736.24449,-1.09938200961318,-0.0539559014267184,0.173098344396124
1580421736.24848,-1.11061264972915,-0.0563973449301898,0.191653315022506
1580421736.25248,-1.12770275425345,-0.0563973449301898,0.207766842145418
1580421736.25647,-1.13990997177081,-0.0549324788281069,0.233646143282215
1580421736.26046,-1.15602349889372,-0.0568856336308841,0.252689402609292
1580421736.26446,-1.17262531471733,-0.0534676127260241,0.281986724650949
1580421736.26845,-1.18580910963607,-0.0578622110322726,0.295170519569695
1580421736.27244,-1.20582894636454,-0.0559090562294955,0.313237201495383
1580421736.27644,-1.23366140230411,-0.0500495918211641,0.323491264209963
1580421736.28043,-1.26686503395132,-0.0471198596169984,0.330815594720377
1580421736.28442,-1.29665064469368,-0.0432135500114441,0.344487678339817
1580421736.28842,-1.320088502327,-0.041260395208667,0.363530937666894
1580421736.29241,-1.35671015487907,-0.0388189517051956,0.395757991912717
1580421736.2964,-1.41481651026169,-0.0402838178072784,0.45532921339742
1580421736.3004,-1.4572976272221,-0.0354009308003356,0.526619363698789
1580421736.30439,-1.49294270237278,-0.041260395208667,0.581307698176548
1580421736.30838,-1.52614633401999,-0.0593270771343555,0.612558175020983
1580421736.31237,-1.55397878995956,-0.0993667505912867,0.610116731517511
1580421736.31637,-1.55251392385748,-0.153078507667658,0.527595941100177
1580421736.32036,-1.50563820859083,-0.198489356832226,0.381109330891888
1580421736.32435,-1.45241474021515,-0.225345235370412,0.185793850614175
1580421736.32835,-1.40212100404364,-0.229251544975966,0.00268558785381856
1580421736.33234,-1.35329213397421,-0.256595712214848,-0.143801022354467
1580421736.33633,-1.30739299610895,-0.298588540474556,-0.250247959105822
1580421736.34033,-1.23756771190967,-0.34009308003357,-0.327397573815519
1580421736.34432,-1.14186312657359,-0.390875104905776,-0.390386816205082
1580421736.34832,-1.00025940337224,-0.455329213397421,-0.481696803234913
1580421736.35231,-0.837170977340353,-0.55884641794461,-0.592538338292515
1580421736.3563,-0.717540245670252,-0.660410467689021,-0.622323949034866
1580421736.36029,-0.669687953002212,-0.726329442282749,-0.556893263141832
1580421736.36429,-0.6877546349279,-0.732677195391775,-0.444586861982147
1580421736.36828,-0.722423132677195,-0.709239337758449,-0.318120088502328
1580421736.37228,-0.776623178454262,-0.664805065995269,-0.202395666437781
1580421736.37627,-0.840588998245213,-0.595956359197375,-0.108155947203784
1580421736.38026,-0.902113374532693,-0.505134660868238,-0.0422369726100555
1580421736.38426,-0.957778286411841,-0.406988632028687,-0.0183108262760356
1580421736.38827,-1.00123598077363,-0.308354314488442,-0.0144045166704814
1580421736.39227,-1.0378576333257,-0.213626306553749,-0.0197756923781185
1580421736.39626,-1.0720378423743,-0.116945143816281,-0.0417486839093613
1580421736.40025,-1.10035858701457,-0.0153810940718699,-0.0646982528419926
1580421736.40425,-1.12428473334859,0.0788586251621268,-0.0813000686655982
1580421736.40824,-1.12770275425345,0.141847867551689,-0.0759288929579611
1580421736.41224,-1.11793698023957,0.183840695811398,-0.0656748302433812
1580421736.41623,-1.11403067063401,0.194094758525978,-0.0485847257190812
1580421736.42022,-1.10572976272221,0.192629892423895,-0.0158693827725642
1580421736.42422,-1.09010452429999,0.179934386205844,0.00903334096284425
1580421736.42821,-1.05836575875486,0.160402838178072,0.0354009308003356
1580421736.4322,-1.02467383840696,0.132082093537804,0.0505378805218584
1580421736.4362,-0.99293507286183,0.110109102006561,0.0607919432364383
1580421736.44019,-0.967055771725033,0.0969253070878153,0.0676279850461583
1580421736.44418,-0.946059357595178,0.0915541313801782,0.0729991607537954
1580421736.44818,-0.930434119172961,0.0944838635843439,0.0754406042572668
1580421736.45217,-0.913832303349356,0.101808194094758,0.0852063782711525
1580421736.45616,-0.906996261539636,0.116945143816281,0.0827649347676811
1580421736.46016,-0.902601663233387,0.131593804837109,0.0778820477607383
1580421736.46415,-0.89723048752575,0.151125352864881,0.0607919432364383
1580421736.46814,-0.887953002212559,0.164797436484321,0.0485847257190812
1580421736.47213,-0.885023270008393,0.173586633096818,0.0251468680857556
1580421736.47613,-0.878187228198673,0.179446097505149,0.0139162279697871
1580421736.48012,-0.870374608987564,0.179446097505149,-0.00170901045242999
1580421736.48411,-0.861585412375067,0.179446097505149,0.00268558785381856
1580421736.48811,-0.861585412375067,0.168215457389181,0.00366216525520713
1580421736.4921,-0.855237659266042,0.148683909361409,0.0187991149767299
1580421736.49609,-0.848889906157016,0.118410009918364,0.041260395208667
1580421736.50009,-0.844495307850767,0.0837415121690697,0.0656748302433812
1580421736.50408,-0.844007019150073,0.0432135500114441,0.0939955748836496
1580421736.50807,-0.844495307850767,0.00512703135728998,0.121828030823224
1580421736.51207,-0.841565575646602,-0.0383306630045013,0.150148775463492
1580421736.51606,-0.846448462653544,-0.0783703364614325,0.180422674906538
1580421736.52005,-0.84937819485771,-0.116945143816281,0.209231708247501
1580421736.52405,-0.851331349660487,-0.150637064164187,0.23315785458152
1580421736.52804,-0.854261081864653,-0.187258716716258,0.26392004272526
1580421736.53203,-0.850843060959793,-0.221438925764858,0.298588540474555
1580421736.53603,-0.847913328755627,-0.257084000915542,0.323491264209963
1580421736.54002,-0.840100709544519,-0.290775921263448,0.353276874952314
1580421736.54402,-0.829358358129245,-0.321049820706493,0.383062485694666
1580421736.548,-0.819592584115359,-0.354253452353705,0.410406652933546
1580421736.552,-0.807873655298696,-0.389898527504387,0.4484931715877
1580421736.55599,-0.800549324788282,-0.42554360265507,0.478767071030745
1580421736.55998,-0.798596169985505,-0.457282368200199,0.512947280079349
1580421736.56398,-0.789806973373008,-0.486579690241856,0.540779736018923
1580421736.56797,-0.780041199359122,-0.52124818799115,0.560311284046694
1580421736.57196,-0.770275425345236,-0.549080643930724,0.577889677271688
1580421736.57596,-0.761974517433433,-0.574471656366827,0.592538338292517
1580421736.57995,-0.755626764324408,-0.594003204394598,0.595468070496683
1580421736.58395,-0.748302433813992,-0.607675288014038,0.593026626993211
1580421736.58794,-0.749767299916074,-0.614023041123064,0.581307698176548
1580421736.59193,-0.746837567711909,-0.610605020218204,0.562752727550166
1580421736.59593,-0.745372701609826,-0.598397802700847,0.542244602121006
1580421736.59992,-0.748790722514686,-0.577401388570992,0.523689631494623
1580421736.60391,-0.751720454718853,-0.546639200427252,0.50513466086824
1580421736.60791,-0.751232166018159,-0.512947280079347,0.489509422446019
1580421736.6119,-0.753185320820936,-0.480720225833524,0.470466163118942
1580421736.61589,-0.755626764324408,-0.45288776989395,0.45191119249256
1580421736.61989,-0.753185320820936,-0.425055313954376,0.433844510566871
1580421736.62388,-0.748302433813992,-0.403570611123827,0.425055313954374
1580421736.6279,-0.747325856412603,-0.378667887388419,0.412359807736323
1580421736.63189,-0.747814145113297,-0.36060120546273,0.40405889982452
1580421736.63589,-0.750743877317465,-0.336186770428016,0.405523765926603
1580421736.63988,-0.756603341725796,-0.316655222400245,0.411871519035628
1580421736.64387,-0.762462806134128,-0.291752498664836,0.406012054627297
1580421736.64787,-0.77759975585565,-0.267826352330816,0.400152590218966
1580421736.65186,-0.791760128175785,-0.235599298084992,0.386480506599526
1580421736.65585,-0.809338521400779,-0.198489356832226,0.370855268177309
1580421736.65985,-0.828381780727856,-0.159426260776684,0.355718318455786
1580421736.66384,-0.847913328755627,-0.11792172121767,0.344487678339817
1580421736.66783,-0.86988632028687,-0.0778820477607383,0.346929121843289
1580421736.67183,-0.889906157015336,-0.0407721065079727,0.356694895857174
1580421736.67582,-0.908949416342413,-0.00610360875867855,0.383062485694666
1580421736.67981,-0.925551232166018,0.0197756923781185,0.412359807736323
1580421736.68381,-0.939223315785458,0.0432135500114441,0.437262531471731
1580421736.6878,-0.954360265506981,0.063721675440604,0.468024719615471
1580421736.69179,-0.961196307316701,0.0744640268558783,0.50513466086824
1580421736.69579,-0.956801709010453,0.0842298008697639,0.540291447318229
1580421736.69978,-0.946547646295873,0.0886243991760125,0.578377965972383
1580421736.70378,-0.933852140077821,0.0876478217746239,0.6110933089189
1580421736.70776,-0.920180056458381,0.0876478217746239,0.63501945525292
1580421736.71176,-0.906996261539636,0.0891126878767068,0.653086137178608
1580421736.71575,-0.891859311818113,0.0930189974822611,0.65552758068208
1580421736.71974,-0.877698939497979,0.096437018387121,0.646738384069582
1580421736.72374,-0.867444876783399,0.0959487296864268,0.635996032654308
1580421736.72773,-0.864515144579233,0.0944838635843439,0.62134737163348
1580421736.73172,-0.871351186388953,0.0915541313801782,0.610116731517511
1580421736.73572,-0.88014038300145,0.0891126878767068,0.60767528801404
1580421736.73971,-0.892347600518807,0.0832532234683754,0.594979781795988
1580421736.74371,-0.891859311818113,0.0744640268558783,0.606698710612651
1580421736.7477,-0.872816052491036,0.0598153658350498,0.602304112306403
1580421736.75169,-0.850843060959793,0.0397955291065841,0.62134737163348
1580421736.75568,-0.840100709544519,0.0173342488746471,0.661387045090411
1580421736.75968,-0.84254215304799,-0.000244144350347142,0.703379873350119
1580421736.76367,-0.86305027847715,-0.0173342488746471,0.736583504997331
1580421736.76767,-0.89039444571603,-0.0388189517051956,0.762951094834822
1580421736.77166,-0.917250324254216,-0.0729991607537954,0.772716868848708
1580421736.77565,-0.939223315785458,-0.103761348897535,0.744884412909133
1580421736.77965,-0.951430533302815,-0.12475776302739,0.668711375600825
1580421736.78364,-0.96217288471809,-0.125734340428778,0.517341878385597
1580421736.78763,-0.96900892652781,-0.116945143816281,0.289311055161363
1580421736.79162,-0.947524223697261,-0.120851453421835,-0.0100099183642328
1580421736.79561,-0.916273746852827,-0.151125352864881,-0.306401159685665
1580421736.79961,-0.901625085831999,-0.182375829709315,-0.511482413977264
1580421736.8036,-0.905043106736859,-0.196047913328755,-0.598397802700847
1580421736.8076,-0.923598077363241,-0.185305561913481,-0.540291447318227
1580421736.81159,-0.931898985275044,-0.161867704280155,-0.405523765926604
1580421736.81558,-0.926039520866713,-0.147707331960021,-0.211184863050278
1580421736.81958,-0.916273746852827,-0.145754177157244,-0.0144045166704814
1580421736.82357,-0.92799267566949,-0.165285725185015,0.190188448920424
1580421736.82756,-0.988540474555581,-0.164797436484321,0.390875104905774
1580421736.83156,-1.09449912260624,-0.136476691844052,0.559822995346
1580421736.83555,-1.22340733958953,-0.0900892652780954,0.666269932097354
1580421736.83954,-1.32301823453117,-0.0910658426794839,0.64869153887236
1580421736.84354,-1.36159304188602,-0.169192034790569,0.531990539406426
1580421736.84753,-1.34254978255894,-0.294193942168308,0.372808422980086
1580421736.85152,-1.28346684977493,-0.414801251239796,0.231204699778743
1580421736.85552,-1.22145418478675,-0.484626535439078,0.143801022354467
1580421736.85951,-1.19899290455482,-0.474860761425193,0.106202792401007
1580421736.8635,-1.19899290455482,-0.397711146715496,0.0622568093385212
1580421736.86752,-1.18873884184024,-0.287846189059282,0.00219729915312428
1580421736.87152,-1.15211718928817,-0.178957808804455,-0.0593270771343555
1580421736.87551,-1.11989013504234,-0.0822766460669868,-0.118898298619058
1580421736.8795,-1.08815136949721,-0.00317387655451284,-0.165774013885709
1580421736.8835,-1.04957656214237,0.0349126420996413,-0.232181277180132
1580421736.88749,-0.998794537270161,0.0441901274128327,-0.287846189059282
1580421736.89148,-0.93482871747921,0.0251468680857556,-0.345464255741208
1580421736.89548,-0.856702525368124,-0.00268558785381856,-0.396734569314107
1580421736.89947,-0.781994354161899,-0.0227054245822842,-0.427008468757153
1580421736.90346,-0.7219348439765,-0.0314946211947813,-0.444586861982147
1580421736.90746,-0.681406881818875,-0.0456549935149155,-0.436285954070344
1580421736.91145,-0.665781643396658,-0.0666514076447697,-0.392828259708553
1580421736.91544,-0.682383459220263,-0.0754406042572668,-0.309819180590525
1580421736.91944,-0.739513237201495,-0.0495613031204698,-0.221927214465552
1580421736.92343,-0.828381780727856,0.0192874036774242,-0.136476691844052
1580421736.92742,-0.937758449683376,0.125734340428778,-0.0715342946517126
1580421736.93142,-1.05445944914931,0.249759670405126,-0.0373540856031127
1580421736.93541,-1.14869916838331,0.3630426489662,-0.037842374303807
1580421736.93941,-1.20534065766384,0.438727397573814,-0.0744640268558783
1580421736.9434,-1.22487220569161,0.464118410009917,-0.126710917830167
1580421736.94739,-1.21120012207217,0.448004882887005,-0.162844281681544
1580421736.95138,-1.18239108873121,0.410406652933546,-0.177981231403066
1580421736.95537,-1.14723430228122,0.376226443884946,-0.169680323491264
1580421736.95937,-1.10817120622568,0.347905699244677,-0.142824444953078
1580421736.96336,-1.0637369344625,0.333257038223849,-0.128664072632944
1580421736.96736,-1.0300450141146,0.319584954604409,-0.117433432516975
1580421736.97135,-0.99635309376669,0.302006561379415,-0.116945143816281
1580421736.97534,-0.975356679636835,0.28442816815442,-0.106202792401007
1580421736.97933,-0.956313420309758,0.268802929732203,-0.0925307087815668
1580421736.98333,-0.943129625391013,0.248783093003738,-0.080811779964904
1580421736.98732,-0.930922407873656,0.234622720683603,-0.0656748302433812
1580421736.99132,-0.925062943465324,0.218509193560692,-0.0485847257190812
1580421736.99531,-0.925551232166018,0.203860532539863,-0.0349126420996413
1580421736.9993,-0.933363851377127,0.185793850614175,-0.0192874036774242
1580421737.0033,-0.939223315785458,0.176516365300984,-0.00708018616006711
1580421737.00729,-0.949477378500038,0.166750591287098,-0.00415045395590141
1580421737.01128,-0.963149462119478,0.158937972075989,-0.0153810940718699
1580421737.01528,-0.978774700541695,0.156008239871824,-0.0236820019836728
1580421737.01927,-0.987075608453498,0.150637064164187,-0.0363775082017241
1580421737.02326,-0.99293507286183,0.146242465857938,-0.0485847257190812
1580421737.02728,-0.994399938963912,0.144777599755855,-0.0544441901274126
1580421737.03128,-0.99635309376669,0.139406424048218,-0.0598153658350498
1580421737.03527,-0.988052185854887,0.131105516136415,-0.0676279850461583
1580421737.03926,-0.976821545738918,0.112062256809338,-0.0725108720531011
1580421737.04326,-0.976333257038224,0.0915541313801782,-0.0764171816586554
1580421737.04725,-0.972915236133364,0.0759288929579611,-0.073975738155184
1580421737.05124,-0.966079194323644,0.0578622110322726,-0.0681162737468526
1580421737.05524,-0.959731441214618,0.0388189517051956,-0.0632333867399097
1580421737.05923,-0.957778286411841,0.024170290684367,-0.0627450980392155
1580421737.06322,-0.944106202792401,0.0114747844663157,-0.0607919432364383
1580421737.06722,-0.930922407873656,0.000732433051041426,-0.0695811398489354
1580421737.07121,-0.920668345159076,-0.00561532005798426,-0.0734874494544897
1580421737.0752,-0.906996261539636,-0.0114747844663157,-0.0759288929579611
1580421737.0792,-0.898695353627833,-0.0148928053711757,-0.0729991607537954
1580421737.08319,-0.882581826504921,-0.0173342488746471,-0.0666514076447697
1580421737.08718,-0.866956588082704,-0.0134279392690928,-0.0563973449301898
1580421737.09118,-0.864026855878539,-0.0100099183642328,-0.0529793240253298
1580421737.09517,-0.867933165484093,0.00219729915312428,-0.0534676127260241
1580421737.09917,-0.872327763790341,0.0100099183642328,-0.0456549935149155
1580421737.10316,-0.881116960402839,0.0187991149767299,-0.0422369726100555
1580421737.10715,-0.89381246662089,0.0329594872968642,-0.0476081483176927
1580421737.11114,-0.919691767757687,0.0510261692225527,-0.0437018387121384
1580421737.11513,-0.931898985275044,0.0690928511482412,-0.0383306630045013
1580421737.11913,-0.954360265506981,0.0969253070878153,-0.024170290684367
1580421737.12312,-0.97584496833753,0.125246051728084,-0.0153810940718699
1580421737.12711,-1.00123598077363,0.161379415579461,-0.0046387426565957
1580421737.13111,-0.984145876249332,0.169192034790569,0.00805676356145568
1580421737.1351,-0.990981918059052,0.244876783398183,0.01196307316701
1580421737.13909,-1.03736934462501,0.257572289616235,-0.0124513618677042
1580421737.14309,-1.0896162355993,0.296147096971083,-0.0153810940718699
1580421737.14708,-1.11793698023957,0.247806515602349,-0.0246585793850613
1580421737.15107,-1.09401083390555,0.231692988479438,-0.0217288471808956
1580421737.15507,-1.09156939040207,0.226321812771801,-0.0222171358815899
1580421737.15906,-1.08619821469444,0.210208285648889,-0.0334477759975584
1580421737.16306,-1.09938200961318,0.220950637064163,-0.0373540856031127
1580421737.16705,-1.07008468757153,0.173098344396124,-0.0500495918211641
1580421737.17104,-1.03981078812848,0.148683909361409,-0.063721675440604
1580421737.17504,-1.01539635309377,0.122316319523918,-0.0866712443732354
1580421737.17903,-0.986587319752804,0.0954604409857325,-0.10083161669337
1580421737.18302,-0.964126039520867,0.0715342946517126,-0.120363164721141
1580421737.18701,-0.946059357595178,0.0534676127260241,-0.143801022354467
1580421737.191,-0.927504386968796,0.0407721065079727,-0.170168612191958
1580421737.195,-0.915785458152133,0.0266117341878385,-0.200930800335698
1580421737.19899,-0.920668345159076,0.0217288471808956,-0.227786678873883
1580421737.20298,-0.920180056458381,0.0227054245822842,-0.253665980010682
1580421737.20698,-0.920180056458381,0.0256351567864499,-0.273197528038454
1580421737.21097,-0.922621499961853,0.0324711985961699,-0.279545281147479
1580421737.21497,-0.942641336690318,0.0329594872968642,-0.276127260242619
1580421737.21896,-0.969497215228504,0.0451667048142212,-0.265873197528039
1580421737.22295,-0.994399938963912,0.0573739223315783,-0.260013733119708
1580421737.22695,-1.01149004348821,0.0656748302433812,-0.252201113908599
1580421737.23094,-1.01100175478752,0.0769054703593497,-0.237552452887769
1580421737.23493,-0.993423361562524,0.0798352025635154,-0.217044327458609
1580421737.23893,-0.974380102235447,0.0803234912642097,-0.197024490730143
1580421737.24292,-0.956801709010453,0.0866712443732354,-0.182375829709315
1580421737.24691,-0.940688181887541,0.0974135957885096,-0.170168612191958
1580421737.25091,-0.930922407873656,0.105226214999618,-0.169192034790569
1580421737.2549,-0.932875562676433,0.11450370031281,-0.178469520103761
1580421737.25889,-0.940199893186847,0.116945143816281,-0.193606469825284
1580421737.26289,-0.963149462119478,0.112550545510032,-0.209231708247501
1580421737.26691,-0.995864805065995,0.099855039291981,-0.205813687342641
1580421737.2709,-1.03297474631876,0.0915541313801782,-0.187258716716258
1580421737.27489,-1.07594415197986,0.0954604409857325,-0.156008239871824
1580421737.27889,-1.10524147402151,0.0930189974822611,-0.108155947203784
1580421737.28288,-1.13014419775692,0.0891126878767068,-0.0573739223315783
1580421737.28687,-1.15309376668955,0.0842298008697639,0.0158693827725642
1580421737.29087,-1.17750820172427,0.0861829556725411,0.0798352025635154
1580421737.29486,-1.19752803845273,0.0876478217746239,0.125246051728084
1580421737.29885,-1.21657129777981,0.080811779964904,0.158449683375295
1580421737.30285,-1.22926680399786,0.0681162737468526,0.186770428015564
1580421737.30684,-1.25270466163119,0.0539559014267184,0.210208285648889
1580421737.31083,-1.27370107576104,0.048096437018387,0.222903791866941
1580421737.31483,-1.2946974898909,0.0358892195010299,0.240482185091935
1580421737.31882,-1.31715877012284,0.0178225375753414,0.239505607690546
1580421737.32282,-1.33083085374228,-0.0100099183642328,0.235599298084992
1580421737.32681,-1.33962005035477,-0.0476081483176927,0.221927214465552
1580421737.3308,-1.34499122606241,-0.0930189974822611,0.203860532539863
1580421737.3348,-1.34010833905547,-0.146730754558632,0.184328984512092
1580421737.33879,-1.3288776989395,-0.203860532539863,0.162355992980849
1580421737.34278,-1.320088502327,-0.253177691309988,0.138429846646829
1580421737.34677,-1.31520561532006,-0.291264209964142,0.128175783932249
1580421737.35076,-1.3034866865034,-0.32300297550927,0.126222629129472
1580421737.35476,-1.28932631418326,-0.337163347829405,0.120851453421835
1580421737.35875,-1.28200198367285,-0.32983901731899,0.108155947203784
1580421737.36275,-1.27614251926452,-0.309819180590525,0.104737926298924
1580421737.36674,-1.2776073853666,-0.289799343862059,0.10083161669337
1580421737.37073,-1.27858396276799,-0.260990310521096,0.096437018387121
1580421737.37472,-1.2859082932784,-0.232669565880826,0.0813000686655982
1580421737.37872,-1.30592813000687,-0.203860532539863,0.0764171816586554
1580421737.38271,-1.33083085374228,-0.162844281681544,0.0656748302433812
1580421737.38671,-1.35915159838254,-0.11792172121767,0.0627450980392155
1580421737.3907,-1.39089036392767,-0.0661631189440754,0.063721675440604
1580421737.39469,-1.4226291294728,-0.0134279392690928,0.0788586251621268
1580421737.39869,-1.45143816281376,0.0368657969024184,0.105714503700312
1580421737.40268,-1.47878233005264,0.0832532234683754,0.124269474326695
1580421737.40667,-1.50222018768597,0.123781185626001,0.142336156252384
1580421737.41067,-1.52077515831235,0.153566796368352,0.166750591287098
1580421737.41466,-1.53981841763943,0.186770428015564,0.200930800335698
1580421737.41865,-1.5510490577554,0.208743419546806,0.250736247806515
1580421737.42265,-1.55446707866026,0.225345235370412,0.290775921263446
1580421737.42664,-1.5505607690547,0.228763256275272,0.32544441901274
1580421737.43063,-1.53737697413596,0.209719996948195,0.343999389639123
1580421737.43462,-1.50270847638666,0.163332570382238,0.340093080033569
1580421737.43862,-1.4568093385214,0.0832532234683754,0.349858854047454
1580421737.44261,-1.40212100404364,-0.0178225375753414,0.346929121843289
1580421737.4466,-1.35915159838254,-0.113527122911421,0.309819180590523
1580421737.4506,-1.32741283283742,-0.203860532539863,0.253177691309986
1580421737.45459,-1.28688487067979,-0.290775921263448,0.181887541008621
1580421737.45858,-1.24831006332494,-0.371831845578699,0.11108567940795
1580421737.46258,-1.21168841077287,-0.434821087968261,0.0612802319371326
1580421737.46657,-1.1921568627451,-0.475837338826581,0.0676279850461583
1580421737.47056,-1.18678568703746,-0.492927443350881,0.077393759060044
1580421737.47456,-1.18092622262913,-0.479743648432136,0.077393759060044
1580421737.47855,-1.19996948195621,-0.431891355764096,0.0227054245822842
1580421737.48254,-1.23756771190967,-0.346440833142596,-0.0661631189440754
1580421737.48654,-1.29079118028534,-0.251712825207905,-0.180422674906538
1580421737.49053,-1.33180743114366,-0.174074921797512,-0.294682230869002
1580421737.49452,-1.34303807125963,-0.112550545510032,-0.397222858014802
1580421737.49852,-1.3283894102388,-0.060303654535744,-0.494880598153658
1580421737.50251,-1.3117875944152,-0.0144045166704814,-0.580331120775158
1580421737.50653,-1.30397497520409,0.0437018387121384,-0.688731212329289
1580421737.51052,-1.30739299610895,0.112062256809338,-0.815686274509805
1580421737.51452,-1.31862363622492,0.200442511635003,-0.956313420309758
1580421737.51851,-1.33034256504158,0.290775921263446,-1.05787747005417
1580421737.5225,-1.33620202944991,0.381597619592583,-1.11256580453193
1580421737.5265,-1.3371786068513,0.457282368200197,-1.08522163729305
1580421737.53049,-1.34303807125963,0.516365300984209,-0.974868390936141
1580421737.53448,-1.3542687113756,0.550057221332114,-0.823498893720913
1580421737.53848,-1.36891737239643,0.552010376134891,-0.661875333791103
1580421737.54247,-1.39186694132906,0.523689631494623,-0.509040970473793
1580421737.54646,-1.42848859388113,0.470466163118942,-0.382574196993973
1580421737.55046,-1.47243457694362,0.391363393606468,-0.274662394140536
1580421737.55445,-1.51442740520333,0.28784618905928,-0.200930800335698
1580421737.55845,-1.54567788204776,0.179446097505149,-0.148683909361409
1580421737.56244,-1.55544365606165,0.0666514076447697,-0.123781185626001
1580421737.56643,-1.55202563515679,-0.0422369726100555,-0.130128938735027
1580421737.57043,-1.53835355153735,-0.132570382238498,-0.159914549477378
1580421737.57442,-1.51882200350957,-0.204837109941252,-0.183352407110704
1580421737.57841,-1.49880216678111,-0.244388494697489,-0.194583047226672
1580421737.58241,-1.46901655603876,-0.257572289616236,-0.188235294117646
1580421737.5864,-1.43532463569085,-0.242923628595406,-0.173586633096818
1580421737.59039,-1.40456244754711,-0.220950637064163,-0.160402838178072
1580421737.59438,-1.37624170290684,-0.190676737621118,-0.164797436484321
1580421737.59837,-1.34450293736172,-0.170656900892652,-0.173586633096818
1580421737.60237,-1.32448310063325,-0.158937972075989,-0.186282139314869
1580421737.60636,-1.30641641870756,-0.153078507667658,-0.197512779430838
1580421737.61036,-1.28737315938048,-0.162355992980849,-0.202395666437781
1580421737.61435,-1.2771190966659,-0.181887541008621,-0.207766842145418
1580421737.61834,-1.2605172808423,-0.195559624628061,-0.212161440451666
1580421737.62234,-1.24049744411383,-0.208255130846112,-0.224856946669718
1580421737.62633,-1.21998931868467,-0.208255130846112,-0.238040741588463
1580421737.63032,-1.19899290455482,-0.200442511635003,-0.247318226901655
1580421737.63432,-1.17164873731594,-0.178957808804455,-0.260013733119708
1580421737.63831,-1.14186312657359,-0.152101930266269,-0.268802929732205
1580421737.6423,-1.11012436102846,-0.11792172121767,-0.269779507133594
1580421737.6463,-1.07545586327916,-0.0783703364614325,-0.272709239337759
1580421737.65029,-1.04518196383612,-0.0383306630045013,-0.275638971541925
1580421737.65428,-1.01686121919585,0.000732433051041426,-0.281010147249562
1580421737.65828,-0.990981918059052,0.0363775082017241,-0.288822766460671
1580421737.66227,-0.961196307316701,0.0700694285496297,-0.289799343862059
1580421737.66626,-0.929457541771573,0.0900892652780954,-0.288822766460671
1580421737.67025,-0.896253910124361,0.103273060196841,-0.291264209964142
1580421737.67425,-0.852307927061876,0.10424963759823,-0.293705653467613
1580421737.67824,-0.81177996490425,0.10083161669337,-0.290287632562753
1580421737.68223,-0.77759975585565,0.0900892652780954,-0.288822766460671
1580421737.68623,-0.734630350194552,0.080811779964904,-0.292729076066225
1580421737.69022,-0.691660944533455,0.0686045624475469,-0.292240787365531
1580421737.69421,-0.653574425879301,0.0554207675288012,-0.290775921263448
1580421737.69821,-0.621347371633478,0.041260395208667,-0.294193942168308
1580421737.7022,-0.583749141680018,0.0339360646982527,-0.292729076066225
1580421737.70619,-0.553475242236972,0.0256351567864499,-0.301029983978028
1580421737.71019,-0.522224765392538,0.0139162279697871,-0.306401159685665
1580421737.71418,-0.49048599984741,0.00708018616006711,-0.314702067597468
1580421737.71817,-0.465094987411307,0.00268558785381856,-0.32300297550927
1580421737.72217,-0.437262531471733,-0.00415045395590141,-0.329350728618296
1580421737.72616,-0.404547188525216,-0.00561532005798426,-0.33667505912871
1580421737.73016,-0.37085526817731,-0.0114747844663157,-0.340581368734265
1580421737.73415,-0.34009308003357,-0.0134279392690928,-0.341069657434959
1580421737.73814,-0.317631799801633,-0.0183108262760356,-0.339116502632182
1580421737.74214,-0.296635385671779,-0.0236820019836728,-0.329350728618296
1580421737.74615,-0.275150682841231,-0.0295414663920042,-0.324467841611353
1580421737.75015,-0.258548867017625,-0.0383306630045013,-0.316655222400245
1580421737.75414,-0.24682993820096,-0.0466315709163041,-0.314702067597468
1580421737.75813,-0.245365072098878,-0.0549324788281069,-0.304448004882888
1580421737.76213,-0.2434119172961,-0.0612802319371326,-0.287357900358588
1580421737.76612,-0.248294804303043,-0.073975738155184,-0.261966887922485
1580421737.77011,-0.260013733119708,-0.0900892652780954,-0.239017318989852
1580421737.77411,-0.272709239337759,-0.110109102006561,-0.207278553444723
1580421737.7781,-0.281010147249562,-0.133058670939192,-0.170656900892652
1580421737.7821,-0.288822766460671,-0.156496528572518,-0.137941557946135
1580421737.78609,-0.298100251773862,-0.174563210498206,-0.114015411612115
1580421737.79008,-0.303471427481499,-0.187747005416952,-0.096437018387121
1580421737.79408,-0.303471427481499,-0.195071335927366,-0.0822766460669868
1580421737.79807,-0.305912870984971,-0.196536202029449,-0.0588387884336612
1580421737.80206,-0.304448004882888,-0.194583047226672,-0.0256351567864499
1580421737.80606,-0.320561532005799,-0.185793850614175,0.0139162279697871
1580421737.81005,-0.356694895857176,-0.167727168688486,0.060303654535744
1580421737.81404,-0.41528953994049,-0.141359578850995,0.123781185626001
1580421737.81804,-0.492439154650187,-0.108155947203784,0.195071335927366
1580421737.82203,-0.583260852979324,-0.0695811398489354,0.274662394140535
1580421737.82602,-0.684824902723735,-0.0397955291065841,0.357671473258563
1580421737.83001,-0.797131303883422,-0.00903334096284425,0.455817502098114
1580421737.83401,-0.915785458152133,0.0202639810788128,0.580819409475854
1580421737.838,-1.05348287174792,0.0388189517051956,0.728282597085528
1580421737.84199,-1.19996948195621,0.044678416113527,0.896253910124361
1580421737.84599,-1.34840924696727,0.0197756923781185,1.08033875028611
1580421737.84998,-1.47536430914778,-0.0485847257190812,1.22975509269856
1580421737.85397,-1.57204547188525,-0.145265888456549,1.31764705882353
1580421737.85797,-1.62233920805676,-0.258060578316931,1.34010833905547
1580421737.86196,-1.63405813687343,-0.347417410543985,1.30983443961242
1580421737.86595,-1.63942931258106,-0.39136339360647,1.26540016784924
1580421737.86995,-1.64626535439078,-0.359136339360647,1.21901274128328
1580421737.87394,-1.66677347981994,-0.271244373235676,1.13502708476387
1580421737.87793,-1.6701915007248,-0.143801022354467,1.03102159151598
1580421737.88193,-1.63845273517967,-0.0202639810788128,0.903089951934081
1580421737.88592,-1.55642023346303,0.0778820477607383,0.758068207827879
1580421737.88991,-1.43630121309224,0.134523537041275,0.613534752422371
1580421737.89391,-1.28981460288396,0.129640650034332,0.488532845044631
1580421737.8979,-1.15162890058747,0.0734874494544897,0.384039063096054
1580421737.9019,-1.04078736552987,-0.00805676356145568,0.3288624399176
1580421737.90588,-0.961196307316701,-0.0876478217746239,0.306889448386357
1580421737.90988,-0.909437705043107,-0.154543373769741,0.313725490196077
1580421737.91387,-0.87330434119173,-0.203372243839169,0.340581368734263
1580421737.91786,-0.854261081864653,-0.228763256275272,0.377691309987028
1580421737.92186,-0.844983596551462,-0.231204699778743,0.420660715648125
1580421737.92585,-0.845471885252156,-0.218509193560692,0.460212100404362
1580421737.92984,-0.837170977340353,-0.190676737621118,0.485603112840465
1580421737.93384,-0.81861600671397,-0.152101930266269,0.570565346761274
1580421737.93783,-0.821057450217442,-0.12475776302739,0.715098802166782
1580421737.94182,-0.857679102769513,-0.0959487296864268,0.84596017395285
1580421737.94582,-0.878675516899367,-0.0729991607537954,0.894300755321584
1580421737.94981,-0.825940337224385,-0.0759288929579611,0.826916914625773
1580421737.95381,-0.738536659800106,-0.113527122911421,0.686289768825819
1580421737.9578,-0.713145647364003,-0.134035248340581,0.477790493629357
1580421737.96179,-0.762462806134128,-0.108155947203784,0.127199206530861
1580421737.96579,-0.778576333257039,-0.0783703364614325,-0.284916456855116
1580421737.96978,-0.784924086366065,-0.0778820477607383,-0.631113145647364
1580421737.97377,-0.817639429312582,-0.0915541313801782,-0.822522316319525
1580421737.97777,-0.874769207293813,-0.0969253070878153,-0.841077286945907
1580421737.98176,-0.936781872281987,-0.077393759060044,-0.70826276035706
1580421737.98581,-0.998794537270161,-0.00170901045242999,-0.514900434882124
1580421737.9898,-1.07838559548333,0.10424963759823,-0.331792172121768
1580421737.9938,-1.1745784695201,0.144289311055161,-0.168703746089875
1580421737.99779,-1.25709925993744,0.048096437018387,-0.0192874036774242
1580421738.00178,-1.35133897917144,-0.119386587319752,0.130128938735027
1580421738.00578,-1.45827420462348,-0.235599298084992,0.276127260242617
1580421738.00977,-1.5593499656672,-0.182864118410009,0.392828259708551
1580421738.01376,-1.65163653009842,-0.0109864957656214,0.450934615091171
1580421738.01776,-1.73366903181506,0.126710917830167,0.441168841077285
1580421738.02175,-1.78591592278935,0.182375829709315,0.385992217898831
1580421738.02574,-1.78542763408866,0.160891126878766,0.323979552910657
1580421738.02974,-1.68630502784771,0.0407721065079727,0.24682993820096
1580421738.03373,-1.48317692835889,-0.104737926298924,0.139406424048218
1580421738.03772,-1.21950102998398,-0.240970473792629,0.00512703135728998
1580421738.04172,-0.972915236133364,-0.323491264209965,-0.115968566414892
1580421738.04571,-0.784924086366065,-0.333745326924545,-0.197024490730143
1580421738.04971,-0.665781643396658,-0.288334477759976,-0.247806515602349
1580421738.0537,-0.608163576714732,-0.221438925764858,-0.285404745555811
1580421738.05769,-0.590096894789044,-0.151125352864881,-0.32642099641413
1580421738.06169,-0.602304112306401,-0.0793469138628211,-0.378667887388419
1580421738.06567,-0.618905928130006,-0.00317387655451284,-0.440680552376593
1580421738.06967,-0.622812237735561,0.0783703364614325,-0.508552681773098
1580421738.07366,-0.614999618524452,0.156984817273212,-0.582284275577935
1580421738.07765,-0.608163576714732,0.230716411078049,-0.646738384069581
1580421738.08165,-0.623300526436255,0.300053406576637,-0.673594262607766
1580421738.08564,-0.678477149614709,0.369390402075226,-0.646738384069581
1580421738.08963,-0.775158312352179,0.458258945601585,-0.577889677271687
1580421738.09363,-0.903089951934081,0.555428397039751,-0.515388723582818
1580421738.09762,-1.03590447852293,0.643808651865417,-0.458747234302281
1580421738.10161,-1.15065232318608,0.703868162050814,-0.414801251239796
1580421738.10561,-1.22243076218814,0.710704203860534,-0.389898527504387
1580421738.1096,-1.26247043564508,0.657969024185551,-0.368902113374533
1580421738.1136,-1.27077134355688,0.575448233768217,-0.359136339360647
1580421738.11759,-1.26832990005341,0.500740062561992,-0.347417410543985
1580421738.12158,-1.25807583733883,0.442145418478674,-0.341557946135653
1580421738.12558,-1.24782177462425,0.39380483710994,-0.33325703822385
1580421738.12957,-1.22780193789578,0.347417410543983,-0.320073243305105
1580421738.13356,-1.20289921416037,0.293705653467612,-0.302494850080111
1580421738.13756,-1.1750667582208,0.249759670405126,-0.295170519569696
1580421738.14155,-1.13014419775692,0.218997482261386,-0.263431754024568
1580421738.14557,-1.08180361638819,0.206301976043335,-0.238529030289158
1580421738.14956,-1.02174410620279,0.200930800335698,-0.211184863050278
1580421738.15355,-0.965102616922255,0.195559624628061,-0.205813687342641
1580421738.15755,-0.91432059205005,0.189700160219729,-0.204348821240558
1580421738.16154,-0.865491721980622,0.178469520103761,-0.203372243839169
1580421738.16554,-0.844983596551462,0.159914549477378,-0.221927214465552
1580421738.16953,-0.836194399938964,0.137941557946135,-0.223392080567635
1580421738.17352,-0.84596017395285,0.109132524605172,-0.220950637064163
1580421738.17752,-0.865980010681316,0.0842298008697639,-0.206790264744029
1580421738.18151,-0.892835889219501,0.0578622110322726,-0.189211871519035
1580421738.1855,-0.914808880750744,0.034424353398947,-0.173098344396124
1580421738.1895,-0.937758449683376,0.0100099183642328,-0.160891126878766
1580421738.19349,-0.957778286411841,-0.00952162966353853,-0.143801022354467
1580421738.19748,-0.971938658731975,-0.0192874036774242,-0.123781185626001
1580421738.20148,-0.984145876249332,-0.0324711985961699,-0.112062256809338
1580421738.20547,-1.01002517738613,-0.024170290684367,-0.0983901731898982
1580421738.20947,-1.01783779659724,-0.0109864957656214,-0.0822766460669868
1580421738.21346,-1.02418554970626,0.0104982070649271,-0.0720225833524069
1580421738.21745,-1.01539635309377,0.0349126420996413,-0.0725108720531011
1580421738.22144,-0.998306248569467,0.0490730144197755,-0.0764171816586554
1580421738.22543,-0.996841382467384,0.0695811398489354,-0.0852063782711525
1580421738.22943,-0.979751277943084,0.0822766460669868,-0.0954604409857325
1580421738.23342,-0.974868390936141,0.0944838635843439,-0.101808194094758
1580421738.23741,-0.946059357595178,0.100343327992675,-0.105226214999618
1580421738.24141,-0.88014038300145,0.0720225833524069,-0.103761348897535
1580421738.2454,-0.643808651865415,0.0339360646982527,-0.080811779964904
1580421738.24939,-1.03883421072709,0.428961623559928,-0.157473105973907
1580421738.25339,-1.20338750286107,0.171633478294041,-0.198977645532921
1580421738.25738,-1.02711528191043,0.0158693827725642,-0.102296482795452
1580421738.26137,-0.97242694743267,0.0690928511482412,-0.0754406042572668
1580421738.26537,-0.976821545738918,0.060303654535744,-0.0861829556725411
1580421738.26936,-0.972915236133364,0.044678416113527,-0.0900892652780954
1580421738.27336,-0.944106202792401,0.0461432822156098,-0.070557717250324
1580421738.27735,-0.909925993743801,0.0495613031204698,-0.0554207675288012
1580421738.28134,-0.873792629892424,0.0500495918211641,-0.0383306630045013
1580421738.28534,-0.840100709544519,0.0505378805218584,-0.0173342488746471
1580421738.28933,-0.81177996490425,0.0534676127260241,-0.0168459601739528
1580421738.29332,-0.795666437781339,0.0544441901274126,-0.0124513618677042
1580421738.29732,-0.796643015182728,0.0617685206378269,-0.0168459601739528
1580421738.30131,-0.809338521400779,0.0734874494544897,-0.0285648889906156
1580421738.3053,-0.831311512932022,0.0886243991760125,-0.0368657969024184
1580421738.30929,-0.85279621576257,0.103273060196841,-0.0607919432364383
1580421738.31328,-0.881116960402839,0.121828030823224,-0.0900892652780954
1580421738.31728,-0.906996261539636,0.136964980544747,-0.125246051728084
1580421738.32127,-0.930922407873656,0.147707331960021,-0.161867704280155
1580421738.32526,-0.940688181887541,0.147219043259327,-0.196047913328755
1580421738.32926,-0.947035934996567,0.136476691844052,-0.218020904859998
1580421738.33325,-0.951430533302815,0.114991989013504,-0.218509193560692
1580421738.33725,-0.959731441214618,0.0935072861829553,-0.205325398641946
1580421738.34124,-0.980239566643778,0.0788586251621268,-0.173586633096818
1580421738.34523,-1.01344319829099,0.0695811398489354,-0.117433432516975
1580421738.34923,-1.04567025253681,0.0617685206378269,-0.0471198596169984
1580421738.35322,-1.08326848249027,0.0534676127260241,0.0363775082017241
1580421738.35721,-1.11061264972915,0.044678416113527,0.115480277714198
1580421738.36121,-1.13795681696803,0.0222171358815899,0.182375829709315
1580421738.3652,-1.16285954070344,-0.0046387426565957,0.239017318989852
1580421738.36919,-1.18873884184024,-0.0231937132829785,0.293705653467612
1580421738.37319,-1.21120012207217,-0.0329594872968642,0.331792172121766
1580421738.37718,-1.23610284580758,-0.0290531776913099,0.364995803768977
1580421738.38117,-1.26100556954299,-0.0222171358815899,0.374761577782863
1580421738.38519,-1.28151369497215,-0.0246585793850613,0.366948958571754
1580421738.38919,-1.29665064469368,-0.0461432822156098,0.340093080033569
1580421738.39318,-1.31227588311589,-0.0822766460669868,0.301029983978026
1580421738.39717,-1.3205767910277,-0.123292896925307,0.25708400091554
1580421738.40117,-1.33962005035477,-0.147219043259327,0.233646143282215
1580421738.40516,-1.35573357747768,-0.149172198062104,0.225345235370412
1580421738.40915,-1.36794079499504,-0.132082093537804,0.206790264744029
1580421738.41315,-1.37282368200198,-0.10424963759823,0.193606469825284
1580421738.41714,-1.37477683680476,-0.0798352025635154,0.172121766994735
1580421738.42113,-1.37477683680476,-0.0617685206378269,0.149660486762798
1580421738.42513,-1.37380025940337,-0.0495613031204698,0.126710917830167
1580421738.42912,-1.37477683680476,-0.034424353398947,0.105714503700312
1580421738.43312,-1.3801480125124,-0.0187991149767299,0.0832532234683754
1580421738.43711,-1.39186694132906,-0.000244144350347142,0.0778820477607383
1580421738.4411,-1.40260929274434,0.0114747844663157,0.0910658426794839
1580421738.44509,-1.41823453116655,0.0212405584802013,0.111573968108644
1580421738.44909,-1.42995345998322,0.0212405584802013,0.134035248340581
1580421738.45308,-1.44069581139849,0.0109864957656214,0.167727168688486
1580421738.45708,-1.43581292439155,-0.00659189745937283,0.198489356832226
1580421738.46107,-1.43532463569085,-0.0256351567864499,0.229739833676661
1580421738.46506,-1.43532463569085,-0.0451667048142212,0.271244373235675
1580421738.46905,-1.44411383230335,-0.0510261692225527,0.313725490196077
1580421738.47304,-1.4651102464332,-0.0402838178072784,0.341069657434957
1580421738.47704,-1.49245441367208,-0.0178225375753414,0.362554360265506
1580421738.48103,-1.52175173571374,0.0173342488746471,0.399664301518271
1580421738.48502,-1.56032654306859,0.0607919432364383,0.471442740520331
1580421738.48902,-1.58962386511025,0.100343327992675,0.548592355230031
1580421738.49301,-1.60622568093385,0.128175783932249,0.61451132982376
1580421738.497,-1.60964370183871,0.141847867551689,0.650644693675137
1580421738.501,-1.59255359731441,0.134035248340581,0.656504158083468
1580421738.50499,-1.55544365606165,0.10424963759823,0.640878919661251
1580421738.50899,-1.4997787441825,0.048096437018387,0.606210421911957
1580421738.51298,-1.42946517128252,-0.0158693827725642,0.540779736018923
1580421738.51697,-1.35378042267491,-0.0881361104753182,0.462653543907834
1580421738.52097,-1.28297856107424,-0.181399252307926,0.393316548409246
1580421738.52496,-1.22926680399786,-0.285404745555811,0.364507515068283
1580421738.52895,-1.18971541924163,-0.385503929198139,0.353765163653009
1580421738.53295,-1.16432440680552,-0.470954451819638,0.313237201495383
1580421738.53694,-1.15651178759441,-0.521736476691844,0.252689402609292
1580421738.54093,-1.17262531471733,-0.527107652399481,0.193118181124589
1580421738.54492,-1.2087586785687,-0.498786907759213,0.0910658426794839
1580421738.54891,-1.27174792095827,-0.449958037689784,-0.0231937132829785
1580421738.55291,-1.34450293736172,-0.383062485694667,-0.176028076600289
1580421738.5569,-1.42214084077211,-0.297123674372473,-0.330327306019685
1580421738.5609,-1.48366521705959,-0.202883955138475,-0.449958037689784
1580421738.56489,-1.51882200350957,-0.100343327992675,-0.546639200427252
1580421738.56888,-1.54811932555123,0.0139162279697871,-0.624277103837644
1580421738.57288,-1.55983825436789,0.138918135347524,-0.682383459220263
1580421738.57687,-1.55690852216373,0.276127260242617,-0.74927901121538
1580421738.58086,-1.55837338826581,0.423102159151597,-0.830334935530633
1580421738.58486,-1.55300221255817,0.551033798733503,-0.903578240634776
1580421738.58885,-1.53640039673457,0.640390630960557,-0.946059357595178
1580421738.59284,-1.50319676508736,0.700450141145954,-0.953383688105593
1580421738.59684,-1.46657511253529,0.734630350194553,-0.927504386968796
1580421738.60083,-1.44753185320821,0.729259174486916,-0.871351186388953
1580421738.60482,-1.44509040970474,0.676035706111239,-0.81177996490425
1580421738.60882,-1.46950484473945,0.561287861448083,-0.747325856412603
1580421738.61281,-1.53640039673457,0.413336385137711,-0.671152819104295
1580421738.6168,-1.6364995803769,0.24682993820096,-0.574959945067521
1580421738.6208,-1.73073929961089,0.0734874494544897,-0.474372472724498
1580421738.62482,-1.79519340810254,-0.0915541313801782,-0.392828259708553
1580421738.62881,-1.81765468833448,-0.218997482261386,-0.315678644998856
1580421738.6328,-1.8157015335317,-0.293217364766919,-0.244388494697489
1580421738.6368,-1.79665827420462,-0.324956130312048,-0.187747005416952
1580421738.64079,-1.76833752956436,-0.327397573815519,-0.149660486762798
1580421738.64478,-1.71999694819562,-0.327885862516213,-0.142336156252384
1580421738.64878,-1.66286717021439,-0.327397573815519,-0.140871290150301
1580421738.65277,-1.59304188601511,-0.323979552910659,-0.159426260776684
1580421738.65676,-1.53444724193179,-0.309330891889831,-0.173098344396124
1580421738.66076,-1.48464179446098,-0.281010147249562,-0.189700160219729
1580421738.66475,-1.44655527580682,-0.246341649500266,-0.209719996948195
1580421738.66875,-1.42409399557488,-0.217044327458609,-0.228763256275272
1580421738.67274,-1.40993362325475,-0.192629892423895,-0.251224536507211
1580421738.67673,-1.39284351873045,-0.187747005416952,-0.274174105439842
1580421738.68073,-1.36842908369574,-0.183352407110704,-0.300541695277333
1580421738.68472,-1.34206149385824,-0.191653315022506,-0.31958495460441
1580421738.68871,-1.30202182040131,-0.211184863050278,-0.331792172121768
1580421738.69271,-1.2600289921416,-0.229739833676661,-0.335210193026628
1580421738.6967,-1.21705958648051,-0.245365072098878,-0.333745326924545
1580421738.70069,-1.16188296330205,-0.24682993820096,-0.327397573815519
1580421738.70468,-1.10280003051804,-0.241947051194018,-0.322514686808576
1580421738.70867,-1.05104142824445,-0.223880369268329,-0.313237201495385
1580421738.71267,-1.00611886778058,-0.198001068131532,-0.302006561379416
1580421738.71666,-0.964126039520867,-0.160891126878766,-0.296147096971085
1580421738.72065,-0.923598077363241,-0.119874876020447,-0.289799343862059
1580421738.72465,-0.882093537804227,-0.0754406042572668,-0.281498435950256
1580421738.72864,-0.843518730449379,-0.0373540856031127,-0.282963302052339
1580421738.73264,-0.803479056992447,0.00415045395590141,-0.283451590753033
1580421738.73663,-0.772228580148013,0.0427252613107498,-0.278080415045396
1580421738.74062,-0.731700617990386,0.0734874494544897,-0.279545281147479
1580421738.74462,-0.70142671854734,0.10083161669337,-0.278080415045396
1580421738.74861,-0.667246509498741,0.126222629129472,-0.278080415045396
1580421738.7526,-0.634531166552224,0.143801022354467,-0.285404745555811
1580421738.7566,-0.605233844510566,0.153078507667658,-0.300053406576639
1580421738.76059,-0.56568245975433,0.159914549477378,-0.320561532005799
1580421738.76458,-0.525154497596704,0.159914549477378,-0.348393987945373
1580421738.76858,-0.485603112840467,0.160891126878766,-0.380621042191196
1580421738.77257,-0.43579766536965,0.160891126878766,-0.416754406042573
1580421738.77656,-0.386480506599527,0.156496528572518,-0.454840924696727
1580421738.78056,-0.340581368734265,0.148683909361409,-0.510505836575875
1580421738.78455,-0.289311055161365,0.146242465857938,-0.567635614557107
1580421738.78854,-0.239017318989852,0.136476691844052,-0.624765392538338
1580421738.79253,-0.195071335927366,0.127687495231555,-0.68433661402304
1580421738.79653,-0.155519951171129,0.118410009918364,-0.72535286488136
1580421738.80052,-0.126222629129472,0.118410009918364,-0.77418173495079
1580421738.80451,-0.099855039291981,0.112062256809338,-0.816662851911193
1580421738.80851,-0.0847180895704582,0.113038834210727,-0.858655680170902
1580421738.8125,-0.0656748302433812,0.120363164721141,-0.913344014648661
1580421738.81649,-0.0583504997329669,0.129640650034332,-0.972915236133364
1580421738.82049,-0.0520027466239412,0.136476691844052,-1.02467383840696
1580421738.82448,-0.0432135500114441,0.134035248340581,-1.06959639887083
1580421738.82847,-0.0266117341878385,0.12133974212253,-1.08180361638819
1580421738.83247,-0.0075684748607614,0.0915541313801782,-1.03932249942779
1580421738.83646,0.0046387426565957,0.044678416113527,-0.930434119172961
1580421738.84045,0.0104982070649271,-0.000244144350347142,-0.751720454718853
1580421738.84445,-0.0178225375753414,-0.0217288471808956,-0.533455405508507
1580421738.84844,-0.0861829556725411,-0.00122072175173571,-0.292240787365531
1580421738.85243,-0.185305561913481,0.0314946211947813,-0.0578622110322726
1580421738.85643,-0.323491264209965,0.0490730144197755,0.149660486762798
1580421738.86042,-0.485114824139773,0.0520027466239412,0.33228046082246
1580421738.86444,-0.665293354695963,0.0456549935149155,0.506111238269629
1580421738.86843,-0.837659266041047,0.031006332494087,0.676523994811934
1580421738.87243,-0.984634164950027,-0.00122072175173571,0.844007019150073
1580421738.87642,-1.09987029831388,-0.0646982528419926,0.978774700541695
1580421738.88041,-1.17653162432288,-0.170168612191958,1.0808270389868
1580421738.88441,-1.23610284580758,-0.315678644998856,1.14381628137636
1580421738.8884,-1.28981460288396,-0.47339589532311,1.16823071641108
1580421738.8924,-1.34206149385824,-0.635507743953612,1.14576943617914
1580421738.89639,-1.40895704585336,-0.788830395971619,1.1233081559472
1580421738.90038,-1.47878233005264,-0.909925993743801,1.15211718928817
1580421738.90438,-1.48513008316167,-0.975356679636835,1.27565423056382
1580421738.90837,-1.52028686961166,-0.933363851377127,1.51149767299916
1580421738.91236,-1.62966353856718,-0.793224994277868,1.72243839169909
1580421738.91636,-1.72634470130465,-0.626230258640421,1.80105287251087
1580421738.92035,-1.74831769283589,-0.43237964446479,1.7390402075227
1580421738.92434,-1.67507438773175,-0.218997482261386,1.53200579842832
1580421738.92834,-1.51784542610819,-0.0139162279697871,1.22682536049439
1580421738.93233,-1.31911192492561,0.137453269245441,0.864515144579233
1580421738.93632,-1.11696040283818,0.187747005416952,0.481696803234911
1580421738.94032,-0.932875562676433,0.116456855115587,0.159426260776684
1580421738.9443,-0.803479056992447,-0.0187991149767299,-0.0666514076447697
1580421738.9483,-0.7390249485008,-0.157473105973907,-0.145265888456549
1580421738.95229,-0.736583504997329,-0.259525444419014,-0.0783703364614325
1580421738.95629,-0.762462806134128,-0.317631799801633,0.0720225833524069
1580421738.96028,-0.843030441748684,-0.323979552910659,0.249271381704432
1580421738.96427,-0.902601663233387,-0.274662394140536,0.405523765926603
1580421738.96827,-0.93824673838407,-0.205813687342641,0.524177920195317
1580421738.97226,-0.946547646295873,-0.134035248340581,0.626230258640422
1580421738.97625,-0.947524223697261,-0.067139696345464,0.739513237201496
1580421738.98025,-0.944594491493095,-0.00659189745937283,0.820569161516747
1580421738.98424,-0.922621499961853,0.0432135500114441,0.80836194399939
1580421738.98823,-0.87672236209659,0.0778820477607383,0.700450141145954
1580421738.99223,-0.841565575646602,0.140871290150301,0.551033798733503
1580421738.99622,-0.899183642328527,0.262943465323872,0.362066071564811
1580421739.00021,-1.02809185931182,0.422125581750208,0.102784771496147
1580421739.00421,-1.09987029831388,0.542244602121006,-0.159914549477378
1580421739.0082,-1.09254596780346,0.568123903257803,-0.343022812237736
1580421739.01219,-1.09694056610971,0.525154497596706,-0.421637293049516
1580421739.01619,-1.13942168307011,0.473395895323108,-0.43579766536965
1580421739.02018,-1.19850461585412,0.413824673838405,-0.349858854047456
1580421739.02417,-1.2776073853666,0.383062485694666,-0.185305561913481
1580421739.02816,-1.35378042267491,0.37329671168078,-0.0148928053711757
1580421739.03216,-1.4138399328603,0.300541695277332,0.105226214999618
1580421739.03615,-1.42800030518044,0.117433432516975,0.131593804837109
1580421739.04014,-1.43825436789502,-0.136964980544747,0.11792172121767
1580421739.04414,-1.46803997863737,-0.35034714274815,0.0993667505912867
1580421739.04813,-1.49245441367208,-0.437750820172427,0.127687495231555
1580421739.05212,-1.55397878995956,-0.380621042191196,0.286381322957197
1580421739.05612,-1.67360952162966,-0.207278553444723,0.500740062561992
1580421739.06011,-1.73318074311437,-0.0231937132829785,0.564217593652248
1580421739.06411,-1.66530861371786,0.0432135500114441,0.385992217898831
1580421739.0681,-1.49343099107347,-0.0402838178072784,0.060303654535744
1580421739.07209,-1.25807583733883,-0.193606469825284,-0.221438925764858
1580421739.07608,-1.01734950789654,-0.331792172121768,-0.390875104905776
1580421739.08008,-0.819104295414665,-0.400152590218967,-0.450446326390479
1580421739.08407,-0.670664530403601,-0.401129167620356,-0.45972381170367
1580421739.08807,-0.56910048065919,-0.363530937666896,-0.443121995880064
1580421739.09206,-0.509040970473793,-0.32300297550927,-0.427985046158541
1580421739.09605,-0.484626535439078,-0.274174105439842,-0.388433661402305
1580421739.10005,-0.484138246738384,-0.204837109941252,-0.365484092469673
1580421739.10406,-0.503181506065461,-0.102296482795452,-0.404547188525216
1580421739.10806,-0.526131074998093,0.0236820019836728,-0.512458991378653
1580421739.11205,-0.55201037613489,0.152101930266269,-0.656504158083466
1580421739.11604,-0.585214007782101,0.263431754024566,-0.77418173495079
1580421739.12004,-0.647714961470969,0.353276874952314,-0.808850232700085
1580421739.12403,-0.756115053025102,0.446540016784922,-0.759044785229268
1580421739.12803,-0.905043106736859,0.571541924162663,-0.662363622491798
1580421739.13202,-1.08278019378958,0.759044785229268,-0.563241016250858
1580421739.13601,-1.25856412603952,1.00953688868544,-0.485603112840467
1580421739.14001,-1.37819485770962,1.23268482490272,-0.457282368200199
1580421739.144,-1.41530479896239,1.27077134355688,-0.454840924696727
1580421739.14799,-1.37868314641032,1.07106126497291,-0.441168841077287
1580421739.15199,-1.33815518425269,0.754650186923019,-0.380621042191196
1580421739.15598,-1.31422903791867,0.492927443350879,-0.308354314488442
1580421739.15997,-1.30983443961242,0.347905699244677,-0.267826352330816
1580421739.16397,-1.30836957351034,0.28101014724956,-0.237552452887769
1580421739.16796,-1.28688487067979,0.239017318989852,-0.217044327458609
1580421739.17195,-1.23756771190967,0.202883955138475,-0.205813687342641
1580421739.17595,-1.17116044861524,0.190188448920424,-0.202395666437781
1580421739.17994,-1.10182345311665,0.196047913328755,-0.177004654001678
1580421739.18393,-1.03932249942779,0.200442511635003,-0.150637064164187
1580421739.18792,-0.981216144045167,0.184328984512092,-0.128664072632944
1580421739.19192,-0.929945830472267,0.140871290150301,-0.128664072632944
1580421739.19591,-0.88697642481117,0.0764171816586554,-0.135988403143358
1580421739.1999,-0.848401617456322,0.00268558785381856,-0.145754177157244
1580421739.2039,-0.826428625925079,-0.0715342946517126,-0.155031662470435
1580421739.20789,-0.822522316319525,-0.142336156252384,-0.159914549477378
1580421739.21188,-0.834241245136187,-0.205325398641946,-0.150637064164187
1580421739.21588,-0.86305027847715,-0.253177691309988,-0.135011825741969
1580421739.21987,-0.89039444571603,-0.283939879453728,-0.11792172121767
1580421739.22386,-0.925062943465324,-0.302006561379416,-0.0900892652780954
1580421739.22786,-0.953871976806287,-0.296635385671779,-0.0729991607537954
1580421739.23185,-0.983169298847944,-0.264408331425956,-0.0568856336308841
1580421739.23584,-1.00465400167849,-0.215091172655832,-0.0461432822156098
1580421739.23984,-1.00807202258335,-0.159914549477378,-0.0500495918211641
1580421739.24383,-1.0207675288014,-0.0959487296864268,-0.0544441901274126
1580421739.24782,-0.992446784161135,-0.0422369726100555,-0.060303654535744
1580421739.25182,-0.93824673838407,-0.00903334096284425,-0.0612802319371326
1580421739.25581,-0.963637750820173,0.0754406042572668,-0.0783703364614325
1580421739.25981,-0.779064621957733,0.213626306553749,-0.0559090562294955
1580421739.26382,-1.19362172884718,0.310795757991912,-0.169192034790569
1580421739.26782,-1.04615854123751,0.0734874494544897,-0.0979018844892039
1580421739.27181,-0.952895399404898,0.114991989013504,-0.0813000686655982
1580421739.2758,-0.923598077363241,0.112550545510032,-0.10083161669337
1580421739.2798,-0.937758449683376,0.0788586251621268,-0.114015411612115
1580421739.28379,-0.929945830472267,0.0607919432364383,-0.104737926298924
1580421739.28778,-0.901136797131304,0.0373540856031127,-0.0930189974822611
1580421739.29178,-0.899671931029221,0.0339360646982527,-0.0920424200808725
1580421739.29577,-0.874769207293813,0.00903334096284425,-0.0778820477607383
1580421739.29977,-0.86305027847715,0.00952162966353853,-0.0813000686655982
1580421739.30376,-0.84937819485771,0.0163576714732585,-0.0847180895704582
1580421739.30775,-0.845471885252156,0.0271000228885327,-0.0866712443732354
1580421739.31175,-0.85279621576257,0.0373540856031127,-0.0905775539787896
1580421739.31574,-0.862561989776456,0.0544441901274126,-0.0827649347676811
1580421739.31973,-0.883070115205616,0.0690928511482412,-0.0871595330739297
1580421739.32373,-0.902601663233387,0.0847180895704582,-0.0915541313801782
1580421739.32772,-0.929945830472267,0.096437018387121,-0.0832532234683754
1580421739.33171,-0.94850080109865,0.114015411612115,-0.0749523155565726
1580421739.33571,-0.963149462119478,0.122804608224612,-0.0676279850461583
1580421739.3397,-0.969497215228504,0.131593804837109,-0.0568856336308841
1580421739.34369,-0.971938658731975,0.138429846646829,-0.0407721065079727
1580421739.34768,-0.97584496833753,0.144777599755855,-0.0290531776913099
1580421739.35168,-0.983657587548638,0.149660486762798,-0.0212405584802013
1580421739.35567,-0.990493629358358,0.156008239871824,-0.0148928053711757
1580421739.35966,-0.998306248569467,0.156496528572518,-0.0134279392690928
1580421739.36366,-0.998794537270161,0.149660486762798,-0.00854505226214997
1580421739.36765,-0.998794537270161,0.139406424048218,-0.0129396505683985
1580421739.37164,-0.997817959868772,0.126222629129472,-0.0129396505683985
1580421739.37564,-0.991958495460441,0.106691081101701,-0.00415045395590141
1580421739.37963,-0.99293507286183,0.0852063782711525,0.0163576714732585
1580421739.38362,-1.00514229037919,0.0700694285496297,0.0388189517051956
1580421739.38762,-1.01588464179446,0.0520027466239412,0.0681162737468526
1580421739.39161,-1.03102159151598,0.0324711985961699,0.105714503700312
1580421739.3956,-1.05104142824445,0.0100099183642328,0.155519951171129
1580421739.3996,-1.06861982146944,-0.00952162966353853,0.204348821240558
1580421739.40359,-1.09156939040207,-0.0280766002899213,0.257572289616235
1580421739.40758,-1.12184328984512,-0.0461432822156098,0.318120088502326
1580421739.41158,-1.15309376668955,-0.0559090562294955,0.362066071564811
1580421739.41557,-1.17750820172427,-0.0607919432364383,0.39038681620508
1580421739.41956,-1.19850461585412,-0.0515144579232469,0.405035477225908
1580421739.42355,-1.21364156557565,-0.0402838178072784,0.388921950102997
1580421739.42755,-1.22340733958953,-0.0349126420996413,0.346440833142594
1580421739.43154,-1.22877851529717,-0.0368657969024184,0.289799343862057
1580421739.43553,-1.23121995880064,-0.0568856336308841,0.224856946669718
1580421739.43953,-1.23024338139925,-0.080811779964904,0.177004654001678
1580421739.44352,-1.23170824750133,-0.096437018387121,0.141359578850995
1580421739.44751,-1.23268482490272,-0.0983901731898982,0.122316319523918
1580421739.45151,-1.2346379797055,-0.0847180895704582,0.115968566414892
1580421739.4555,-1.24440375371939,-0.060303654535744,0.119386587319752
1580421739.45949,-1.25465781643397,-0.0197756923781185,0.134035248340581
1580421739.46349,-1.27028305485618,0.024170290684367,0.159914549477378
1580421739.46748,-1.28346684977493,0.0695811398489354,0.190676737621118
1580421739.47147,-1.29665064469368,0.102296482795452,0.207278553444723
1580421739.47547,-1.31081101701381,0.121828030823224,0.202395666437781
1580421739.47946,-1.32741283283742,0.125246051728084,0.189700160219729
1580421739.48346,-1.34352635996033,0.127199206530861,0.183840695811398
1580421739.48745,-1.3630579079881,0.129640650034332,0.176516365300984
1580421739.49144,-1.38991378652628,0.12475776302739,0.170656900892652
1580421739.49544,-1.41481651026169,0.127199206530861,0.176516365300984
1580421739.49943,-1.43874265659571,0.135011825741969,0.183840695811398
1580421739.50345,-1.46022735942626,0.146730754558632,0.203372243839169
1580421739.50744,-1.49294270237278,0.165285725185015,0.237064164187075
1580421739.51144,-1.52761120012207,0.192141603723201,0.278080415045395
1580421739.51543,-1.55495536736095,0.212161440451666,0.331792172121766
1580421739.51942,-1.57253376058595,0.226810101472495,0.384039063096054
1580421739.52342,-1.58571755550469,0.2434119172961,0.429449912260623
1580421739.52741,-1.59987792782483,0.255619134813458,0.443121995880063
1580421739.5314,-1.60036621652552,0.245365072098878,0.449469748989088
1580421739.5354,-1.58034637979705,0.200930800335698,0.449958037689782
1580421739.53939,-1.53542381933318,0.11792172121767,0.448981460288394
1580421739.54338,-1.47634088654917,0.0212405584802013,0.432379644464788
1580421739.54738,-1.41628137636378,-0.0827649347676811,0.394781414511328
1580421739.55137,-1.35622186617838,-0.177004654001678,0.34253452353704
1580421739.55536,-1.30446326390478,-0.258548867017625,0.296635385671777
1580421739.55936,-1.25954070344091,-0.314702067597468,0.280521858548866
1580421739.56335,-1.225848783093,-0.345952544441902,0.283939879453726
1580421739.56734,-1.21168841077287,-0.35718318455787,0.287357900358586
1580421739.57134,-1.21705958648051,-0.343999389639125,0.291752498664835
1580421739.57533,-1.24196231021591,-0.317143511100939,0.276615548943312
1580421739.57932,-1.27956054016938,-0.273685816739148,0.235599298084992
1580421739.58331,-1.31960021362631,-0.221927214465552,0.159914549477378
1580421739.58731,-1.37526512550546,-0.157473105973907,0.060303654535744
1580421739.5913,-1.42653543907836,-0.0847180895704582,-0.0554207675288012
1580421739.59529,-1.47341115434501,-0.01196307316701,-0.188235294117646
1580421739.59929,-1.51100938429847,0.0383306630045013,-0.320073243305105
1580421739.60328,-1.53786526283665,0.0578622110322726,-0.43237964446479
1580421739.60727,-1.54470130464637,0.0402838178072784,-0.54859235523003
1580421739.61127,-1.52761120012207,0.00610360875867855,-0.69117265583276
1580421739.61526,-1.49880216678111,-0.0256351567864499,-0.837659266041047
1580421739.61925,-1.48757152666514,-0.0187991149767299,-0.954848554207675
1580421739.62325,-1.49294270237278,0.041260395208667,-1.0207675288014
1580421739.62724,-1.5163805600061,0.154055085069047,-1.0295567254139
1580421739.63123,-1.53200579842832,0.285893034256503,-0.98268101014725
1580421739.63523,-1.53249408712901,0.407965209430074,-0.896253910124361
1580421739.63922,-1.52468146791791,0.492439154650185,-0.806897077897307
1580421739.64321,-1.52028686961166,0.531990539406426,-0.71851682307164
1580421739.64721,-1.52663462272068,0.526619363698789,-0.643808651865415
1580421739.6512,-1.55153734645609,0.463630121309222,-0.614999618524452
1580421739.6552,-1.59450675211719,0.353276874952314,-0.581795986877241
1580421739.65919,-1.66335545891508,0.209231708247501,-0.518806744487678
1580421739.66318,-1.72048523689631,0.0524910353246355,-0.428473334859236
1580421739.66717,-1.75368886854353,-0.0915541313801782,-0.336186770428016
1580421739.67116,-1.76540779736019,-0.204837109941252,-0.238529030289158
1580421739.67516,-1.7644312199588,-0.283939879453728,-0.156496528572518
1580421739.67915,-1.75124742504006,-0.337651636530099,-0.0939955748836496
1580421739.68315,-1.71902037079423,-0.369878690775922,-0.0656748302433812
1580421739.68714,-1.6706797894255,-0.377203021286336,-0.0583504997329669
1580421739.69113,-1.61013199053941,-0.375738155184253,-0.063721675440604
1580421739.69512,-1.55642023346303,-0.362066071564813,-0.0905775539787896
1580421739.69912,-1.508567940795,-0.343022812237736,-0.129152361333638
1580421739.70311,-1.4743877317464,-0.317631799801633,-0.170168612191958
1580421739.70711,-1.43874265659571,-0.291752498664836,-0.204837109941252
1580421739.7111,-1.40260929274434,-0.267826352330816,-0.238040741588463
1580421739.71509,-1.3713588158999,-0.245365072098878,-0.265384908827345
1580421739.71909,-1.33278400854505,-0.231692988479438,-0.294682230869002
1580421739.72308,-1.29176775768673,-0.218509193560692,-0.322514686808576
1580421739.72707,-1.24147402151522,-0.215579461356526,-0.343999389639125
1580421739.73107,-1.19069199664301,-0.213626306553749,-0.366460669871062
1580421739.73506,-1.14332799267567,-0.211184863050278,-0.383062485694667
1580421739.73905,-1.09156939040207,-0.205813687342641,-0.378667887388419
1580421739.74307,-1.04469367513542,-0.200442511635003,-0.36401922636759
1580421739.74707,-0.99293507286183,-0.192141603723201,-0.342534523537042
1580421739.75106,-0.934340428778516,-0.175051499198901,-0.315678644998856
1580421739.75505,-0.89381246662089,-0.151125352864881,-0.296635385671779
1580421739.75905,-0.859143968871596,-0.12475776302739,-0.270756084534982
1580421739.76304,-0.827405203326467,-0.0842298008697639,-0.24682993820096
1580421739.76703,-0.791760128175785,-0.0544441901274126,-0.232669565880826
1580421739.77103,-0.758068207827879,-0.0168459601739528,-0.220950637064163
1580421739.77502,-0.726817730983443,0.0153810940718699,-0.208255130846112
1580421739.77901,-0.692149233234149,0.0476081483176927,-0.208743419546806
1580421739.78301,-0.664805065995269,0.0734874494544897,-0.205813687342641
1580421739.787,-0.633066300450141,0.0959487296864268,-0.212161440451666
1580421739.79099,-0.593026626993209,0.120851453421835,-0.223392080567635
1580421739.79499,-0.549568932631418,0.137941557946135,-0.244388494697489
1580421739.79898,-0.505622949568933,0.152101930266269,-0.279545281147479
1580421739.80297,-0.457770656900893,0.156496528572518,-0.322026398107882
1580421739.80697,-0.412848096437019,0.160891126878766,-0.365972381170367
1580421739.81096,-0.366948958571756,0.155519951171129,-0.414801251239796
1580421739.81495,-0.321049820706493,0.149172198062104,-0.471931029221027
1580421739.81895,-0.278568703746091,0.131593804837109,-0.533943694209201
1580421739.82294,-0.242923628595406,0.109620813305867,-0.594979781795987
1580421739.82693,-0.208255130846112,0.080811779964904,-0.654062714579995
1580421739.83092,-0.175539787899595,0.0485847257190812,-0.716075379568169
1580421739.83492,-0.149172198062104,0.0183108262760356,-0.759044785229268
1580421739.83891,-0.125246051728084,-0.0046387426565957,-0.799572747386893
1580421739.8429,-0.103761348897535,-0.0124513618677042,-0.833752956435493
1580421739.8469,-0.0886243991760125,-0.00561532005798426,-0.882581826504921
1580421739.85089,-0.0700694285496297,0.0187991149767299,-0.947524223697261
1580421739.85488,-0.048096437018387,0.0632333867399097,-1.0212558175021
1580421739.85888,-0.0349126420996413,0.123292896925307,-1.09254596780346
1580421739.86287,-0.0187991149767299,0.191165026321812,-1.149187457084
1580421739.86686,0.0100099183642328,0.244876783398183,-1.16920729381247
1580421739.87086,0.0222171358815899,0.272709239337757,-1.12233157854581
1580421739.87485,0.0109864957656214,0.266849774929426,-0.987563897154192
1580421739.87885,-0.00366216525520713,0.232669565880826,-0.767833981841765
1580421739.88284,-0.0197756923781185,0.198489356832226,-0.503669794766155
1580421739.88683,-0.0754406042572668,0.178469520103761,-0.205813687342641
1580421739.89083,-0.182864118410009,0.175539787899595,0.0666514076447697
1580421739.89482,-0.320561532005799,0.177004654001678,0.277103837644006
1580421739.89881,-0.488044556343938,0.160402838178072,0.444098573281451
1580421739.9028,-0.669687953002212,0.118410009918364,0.586678873884185
1580421739.9068,-0.854749370565347,0.0573739223315783,0.716563668268865
1580421739.91079,-1.01441977569238,-0.0339360646982527,0.859143968871596
1580421739.91478,-1.11354238193332,-0.147707331960021,0.973891813534753
1580421739.91877,-1.19459830624857,-0.290775921263448,1.05787747005417
1580421739.92277,-1.24391546501869,-0.457770656900893,1.13307392996109
1580421739.92676,-1.27125963225757,-0.633066300450141,1.22194247348745
1580421739.93076,-1.33327229724575,-0.785412375066759,1.30104524299992
1580421739.93475,-1.45485618371862,-0.862073701075762,1.3288776989395
1580421739.93874,-1.60476081483177,-0.792736705577173,1.33376058594644
1580421739.94274,-1.77712672617685,-0.636972610055695,1.53933012893874
1580421739.94673,-1.87771419851988,-0.517341878385595,1.93630884260319
1580421739.95072,-1.88552681773098,-0.457282368200199,2.18094148165103
1580421739.95472,-1.82107270923934,-0.423102159151599,2.10867475394827
1580421739.95871,-1.68044556343938,-0.378667887388419,1.82986190585184
1580421739.9627,-1.49001297016861,-0.310795757991913,1.4992904554818
1580421739.9667,-1.28346684977493,-0.206301976043335,1.15553521019303
1580421739.97069,-1.08570992599374,-0.129640650034332,0.826916914625773
1580421739.97468,-0.923598077363241,-0.127199206530861,0.562264438849471
1580421739.97868,-0.813733119707027,-0.196047913328755,0.36987869077592
1580421739.9827,-0.762951094834822,-0.276615548943314,0.247318226901655
1580421739.98669,-0.763439383535516,-0.34009308003357,0.186282139314869
1580421739.99068,-0.824963759822996,-0.369878690775922,0.172610055695429
1580421739.99468,-0.950453955901427,-0.355718318455787,0.202395666437781
1580421739.99867,-1.09645227740902,-0.314702067597468,0.285404745555809
1580421740.00266,-1.21510643167773,-0.247318226901655,0.348393987945371
1580421740.00666,-1.26393530174716,-0.196047913328755,0.42456702525368
1580421740.01065,-1.30153353170062,-0.160402838178072,0.444586861982145
1580421740.01464,-1.34987411306935,-0.12475776302739,0.41773098344396
1580421740.01864,-1.36598764019226,-0.0700694285496297,0.43482108796826
1580421740.02263,-1.37282368200198,-0.0231937132829785,0.568612191958497
1580421740.02662,-1.35182726787213,-0.000732433051041426,0.717540245670254
1580421740.03062,-1.32497138933394,0.0388189517051956,0.84596017395285
1580421740.03461,-1.26442359044785,0.0856946669718468,0.852307927061876
1580421740.0386,-1.17701991302357,0.135988403143358,0.772228580148013
1580421740.0426,-1.05592431525139,0.204348821240558,0.495857175555045
1580421740.04659,-0.888929579613947,0.253177691309986,0.0246585793850613
1580421740.05059,-0.819104295414665,0.263431754024566,-0.44605172808423
1580421740.05458,-0.899671931029221,0.289799343862057,-0.796154726482033
1580421740.05857,-1.03981078812848,0.321049820706492,-0.833752956435493
1580421740.06256,-1.11207751583123,0.361577782864117,-0.608651865415426
1580421740.06655,-1.07594415197986,0.422613870450903,-0.35718318455787
1580421740.07055,-1.02174410620279,0.432867933165483,-0.163332570382238
1580421740.07454,-1.02613870450904,0.266361486228732,-0.044678416113527
1580421740.07853,-1.11891355764095,-0.0690928511482412,-0.0153810940718699
1580421740.08253,-1.24538033112077,-0.293217364766919,-0.00122072175173571
1580421740.08652,-1.35963988708324,-0.175539787899595,0.0402838178072784
1580421740.09051,-1.508567940795,0.160891126878766,0.129640650034332
1580421740.09451,-1.67214465552758,0.431891355764094,0.159426260776684
1580421740.0985,-1.69362935835813,0.504158083466852,-0.00805676356145568
1580421740.1025,-1.51931029221027,0.305912870984969,-0.321538109407188
1580421740.10649,-1.23707942320897,-0.0593270771343555,-0.608163576714732
1580421740.11048,-0.940199893186847,-0.359136339360647,-0.747325856412603
1580421740.11448,-0.720469977874417,-0.460700389105059,-0.712169069962615
1580421740.11847,-0.621347371633478,-0.376226443884947,-0.578377965972381
1580421740.12246,-0.577401388570992,-0.211673151750972,-0.468513008316167
1580421740.12646,-0.56226443884947,-0.0734874494544897,-0.407965209430076
1580421740.13045,-0.557381551842527,0.0192874036774242,-0.404058899824522
1580421740.13444,-0.567635614557107,0.0881361104753182,-0.42896162355993
1580421740.13844,-0.591073472190432,0.139894712748912,-0.50757610437171
1580421740.14246,-0.616952773327229,0.176028076600289,-0.605233844510566
1580421740.14645,-0.653086137178606,0.184817273212786,-0.679453727016098
1580421740.15044,-0.70142671854734,0.186770428015564,-0.688242923628595
1580421740.15444,-0.761974517433433,0.200442511635003,-0.634531166552224
1580421740.15843,-0.838635843442436,0.239505607690546,-0.564217593652247
1580421740.16242,-0.936781872281987,0.321049820706492,-0.488532845044633
1580421740.16642,-1.06080720225834,0.461188677805751,-0.434821087968261
1580421740.17041,-1.19118028534371,0.641367208361945,-0.407476920729382
1580421740.1744,-1.29616235599298,0.823498893720913,-0.413824673838407
1580421740.1784,-1.36598764019226,0.932875562676433,-0.440680552376593
1580421740.18239,-1.41139848935683,0.926527809567407,-0.438727397573816
1580421740.18638,-1.44264896620127,0.817639429312582,-0.38110933089189
1580421740.19038,-1.46266880292973,0.677988860914017,-0.293217364766919
1580421740.19437,-1.45143816281376,0.553475242236974,-0.211673151750972
1580421740.19836,-1.40798046845197,0.430914778362705,-0.156496528572518
1580421740.20236,-1.33131914244297,0.302983138780803,-0.129152361333638
1580421740.20635,-1.23903257801175,0.195559624628061,-0.129152361333638
1580421740.21035,-1.14625772487983,0.124269474326695,-0.139894712748912
1580421740.21434,-1.06520180056458,0.0861829556725411,-0.121828030823224
1580421740.21833,-1.00074769207294,0.0666514076447697,-0.11108567940795
1580421740.22232,-0.949965667200733,0.0427252613107498,-0.0993667505912867
1580421740.22631,-0.907972838941024,0.00610360875867855,-0.0988784618905925
1580421740.23031,-0.873792629892424,-0.0549324788281069,-0.107179369802395
1580421740.2343,-0.847913328755627,-0.119874876020447,-0.114015411612115
1580421740.23829,-0.834241245136187,-0.177004654001678,-0.127687495231555
1580421740.24229,-0.838147554741742,-0.222415503166246,-0.137453269245441
1580421740.24628,-0.848401617456322,-0.254154268711376,-0.138918135347524
1580421740.25027,-0.87330434119173,-0.273685816739148,-0.132570382238498
1580421740.25427,-0.896742198825056,-0.279056992446785,-0.120363164721141
1580421740.25826,-0.918715190356298,-0.275150682841231,-0.102784771496147
1580421740.26225,-0.949965667200733,-0.254154268711376,-0.0959487296864268
1580421740.26625,-0.997329671168078,-0.213138017853055,-0.0896009765774011
1580421740.27024,-1.01002517738613,-0.168215457389181,-0.0827649347676811
1580421740.27424,-1.04225223163195,-0.112550545510032,-0.0778820477607383
1580421740.27823,-1.04518196383612,-0.0544441901274126,-0.0720225833524069
1580421740.28222,-1.03150988021668,-0.0187991149767299,-0.0666514076447697
1580421740.28622,-1.0124666208896,0.0520027466239412,-0.0500495918211641
1580421740.29021,-1.01441977569238,0.0954604409857325,-0.0451667048142212
1580421740.2942,-0.80494392309453,0.176028076600289,-0.0183108262760356
1580421740.2982,-1.19020370794232,0.319584954604409,-0.116945143816281
1580421740.30218,-1.10426489662013,0.118410009918364,-0.0549324788281069
1580421740.30618,-0.989028763256275,0.122316319523918,-0.0251468680857556
1580421740.31017,-0.92457465476463,0.117433432516975,-0.0397955291065841
1580421740.31416,-0.918715190356298,0.103273060196841,-0.0534676127260241
1580421740.31816,-0.898695353627833,0.0803234912642097,-0.0534676127260241
1580421740.32215,-0.881116960402839,0.0710460059510183,-0.0485847257190812
1580421740.32615,-0.864026855878539,0.0505378805218584,-0.044678416113527
1580421740.33014,-0.863538567177844,0.0417486839093613,-0.034424353398947
1580421740.33413,-0.868421454184787,0.0290531776913099,-0.0358892195010299
1580421740.33813,-0.877210650797284,0.0187991149767299,-0.0363775082017241
1580421740.34212,-0.89381246662089,0.0168459601739528,-0.0441901274128327
1580421740.34611,-0.905531395437553,0.0183108262760356,-0.0559090562294955
1580421740.35011,-0.908949416342413,0.0231937132829785,-0.0690928511482412
1580421740.3541,-0.909925993743801,0.0319829098954756,-0.0778820477607383
1580421740.35809,-0.90406652933547,0.0485847257190812,-0.0837415121690697
1580421740.36209,-0.899671931029221,0.0700694285496297,-0.0886243991760125
1580421740.36608,-0.89381246662089,0.0954604409857325,-0.077393759060044
1580421740.37007,-0.89723048752575,0.12475776302739,-0.0759288929579611
1580421740.37407,-0.90064850843061,0.156496528572518,-0.0695811398489354
1580421740.37806,-0.904554818036164,0.187747005416952,-0.0729991607537954
1580421740.38208,-0.905531395437553,0.207766842145418,-0.0700694285496297
1580421740.38607,-0.904554818036164,0.218509193560692,-0.0817883573662925
1580421740.39007,-0.898695353627833,0.213626306553749,-0.0993667505912867
1580421740.39406,-0.889417868314641,0.196536202029449,-0.136476691844052
1580421740.39805,-0.878187228198673,0.162844281681544,-0.170168612191958
1580421740.40205,-0.867933165484093,0.122804608224612,-0.196047913328755
1580421740.40604,-0.870374608987564,0.0891126878767068,-0.209231708247501
1580421740.41003,-0.882581826504921,0.0505378805218584,-0.214114595254443
1580421740.41403,-0.898695353627833,0.0163576714732585,-0.204837109941252
1580421740.41802,-0.911390859845884,-0.0139162279697871,-0.176516365300984
1580421740.42201,-0.926527809567407,-0.0388189517051956,-0.127199206530861
1580421740.42601,-0.937270160982681,-0.0646982528419926,-0.0598153658350498
1580421740.43,-0.949965667200733,-0.0798352025635154,0.00610360875867855
1580421740.434,-0.961196307316701,-0.0915541313801782,0.0690928511482412
1580421740.43799,-0.975356679636835,-0.0949721522850382,0.117433432516975
1580421740.44198,-0.995864805065995,-0.0886243991760125,0.144289311055161
1580421740.44598,-1.02272068360418,-0.0754406042572668,0.153078507667658
1580421740.44997,-1.05104142824445,-0.0520027466239412,0.153566796368352
1580421740.45396,-1.07887388418402,-0.0202639810788128,0.159426260776684
1580421740.45796,-1.10475318532082,0.0183108262760356,0.159914549477378
1580421740.46194,-1.12574959945067,0.0656748302433812,0.167727168688486
1580421740.46594,-1.14430457007706,0.110597390707255,0.171633478294041
1580421740.46993,-1.15944151979858,0.148195620660715,0.168703746089875
1580421740.47392,-1.17116044861524,0.176028076600289,0.167238879987792
1580421740.47792,-1.18239108873121,0.183840695811398,0.157961394674601
1580421740.48191,-1.18971541924163,0.174563210498206,0.145754177157244
1580421740.4859,-1.18971541924163,0.157961394674601,0.127199206530861
1580421740.4899,-1.1921568627451,0.144777599755855,0.10766765850309
1580421740.49389,-1.19264515144579,0.142824444953078,0.0813000686655982
1580421740.49789,-1.19313344014649,0.147219043259327,0.0524910353246355
1580421740.50188,-1.20338750286107,0.151125352864881,0.0295414663920042
1580421740.50587,-1.21315327687495,0.146730754558632,0.0144045166704814
1580421740.50987,-1.21998931868467,0.126710917830167,0.0114747844663157
1580421740.51386,-1.225848783093,0.096437018387121,0.0168459601739528
1580421740.51785,-1.2346379797055,0.0681162737468526,0.031006332494087
1580421740.52185,-1.24586861982147,0.0461432822156098,0.0607919432364383
1580421740.52584,-1.25661097123674,0.0261234454871442,0.096437018387121
1580421740.52983,-1.2688181887541,0.0075684748607614,0.137941557946135
1580421740.53383,-1.27956054016938,-0.00903334096284425,0.166750591287098
1580421740.53782,-1.28249027237354,-0.0334477759975584,0.196047913328755
1580421740.54184,-1.28151369497215,-0.0573739223315783,0.226321812771801
1580421740.54583,-1.28151369497215,-0.0729991607537954,0.260990310521095
1580421740.54983,-1.28542000457771,-0.0778820477607383,0.29126420996414
1580421740.55382,-1.3112993057145,-0.0695811398489354,0.319096665903714
1580421740.55781,-1.35719844357977,-0.0393072404058898,0.335210193026626
1580421740.56181,-1.40456244754711,0.0046387426565957,0.34937056534676
1580421740.5658,-1.4572976272221,0.044678416113527,0.368413824673837
1580421740.56979,-1.50417334248875,0.0759288929579611,0.364507515068283
1580421740.57379,-1.52809948882277,0.0930189974822611,0.363530937666894
1580421740.57778,-1.53200579842832,0.10424963759823,0.34937056534676
1580421740.58177,-1.52224002441443,0.11108567940795,0.3288624399176
1580421740.58577,-1.50954451819638,0.104737926298924,0.319096665903714
1580421740.58976,-1.49636072327764,0.0632333867399097,0.304448004882886
1580421740.59376,-1.47878233005264,-0.0144045166704814,0.260990310521095
1580421740.59775,-1.44460212100404,-0.11792172121767,0.208743419546806
1580421740.60174,-1.40163271534295,-0.218020904859998,0.165285725185015
1580421740.60573,-1.36061646448463,-0.307866025787748,0.132082093537804
1580421740.60973,-1.33571374074922,-0.37085526817731,0.11450370031281
1580421740.61372,-1.30934615091173,-0.416266117341879,0.130128938735027
1580421740.61772,-1.28981460288396,-0.446540016784924,0.167727168688486
1580421740.62173,-1.28004882887007,-0.468024719615473,0.237552452887769
1580421740.62573,-1.27028305485618,-0.480720225833524,0.281986724650949
1580421740.62972,-1.27370107576104,-0.489509422446021,0.242435339894712
1580421740.63371,-1.28297856107424,-0.485603112840467,0.116456855115587
1580421740.63771,-1.29323262378882,-0.45972381170367,-0.0515144579232469
1580421740.6417,-1.31081101701381,-0.412848096437019,-0.187747005416952
1580421740.64569,-1.33913176165408,-0.331303883421073,-0.263431754024568
1580421740.64969,-1.36940566109712,-0.23315785458152,-0.323979552910659
1580421740.65368,-1.396749828336,-0.126710917830167,-0.395269703212024
1580421740.65768,-1.4314183260853,-0.0144045166704814,-0.477790493629358
1580421740.66167,-1.46413366903182,0.0988784618905925,-0.56226443884947
1580421740.66566,-1.49733730067903,0.218020904859998,-0.620370794232089
1580421740.66966,-1.51149767299916,0.3288624399176,-0.670176241702906
1580421740.67365,-1.51882200350957,0.428961623559928,-0.699473563744563
1580421740.67764,-1.51442740520333,0.508064393072406,-0.731700617990386
1580421740.68164,-1.51784542610819,0.565194171053637,-0.735118638895246
1580421740.68563,-1.50417334248875,0.59058518348974,-0.71509880216678
1580421740.68962,-1.48854810406653,0.595468070496683,-0.686289768825818
1580421740.69362,-1.45973907072557,0.58374914168002,-0.667246509498741
1580421740.69761,-1.41969939726864,0.567635614557108,-0.649668116273746
1580421740.7016,-1.38112458991379,0.541268024719617,-0.659433890287632
1580421740.70559,-1.34694438086519,0.491950865949491,-0.670176241702906
1580421740.70959,-1.33522545204852,0.427496757457845,-0.682383459220263
1580421740.71358,-1.34840924696727,0.354741741054397,-0.68091859311818
1580421740.71757,-1.39137865262837,0.289311055161363,-0.659922178988326
1580421740.72157,-1.45485618371862,0.239017318989852,-0.620859082932784
1580421740.72556,-1.50563820859083,0.196047913328755,-0.580819409475852
1580421740.72955,-1.53933012893873,0.166262302586404,-0.540779736018921
1580421740.73355,-1.54714274814984,0.142336156252384,-0.509529259174487
1580421740.73754,-1.53835355153735,0.12475776302739,-0.49390402075227
1580421740.74153,-1.5168688487068,0.109620813305867,-0.472419317921721
1580421740.74553,-1.48513008316167,0.0896009765774011,-0.46997787441825
1580421740.74952,-1.44460212100404,0.0734874494544897,-0.45972381170367
1580421740.75351,-1.41286335545892,0.0559090562294955,-0.444586861982147
1580421740.75751,-1.38258945601587,0.0402838178072784,-0.421149004348822
1580421740.7615,-1.36159304188602,0.0324711985961699,-0.38794537270161
1580421740.76549,-1.34108491645686,0.0236820019836728,-0.359624628061342
1580421740.76949,-1.32497138933394,0.01196307316701,-0.318120088502328
1580421740.77348,-1.31618219272145,-0.0104982070649271,-0.288334477759976
1580421740.77747,-1.29762722209506,-0.0397955291065841,-0.272220950637065
1580421740.78146,-1.28053711757076,-0.0695811398489354,-0.263431754024568
1580421740.78546,-1.2522163729305,-0.0979018844892039,-0.260990310521096
1580421740.78945,-1.22194247348745,-0.129640650034332,-0.259037155718319
1580421740.79344,-1.18873884184024,-0.157473105973907,-0.257572289616236
1580421740.79744,-1.149187457084,-0.181399252307926,-0.258060578316931
1580421740.80143,-1.11696040283818,-0.198977645532921,-0.250247959105822
1580421740.80542,-1.07447928587777,-0.215579461356526,-0.235599298084992
1580421740.80942,-1.03688105592432,-0.228274967574578,-0.214602883955138
1580421740.81341,-1.00709544518196,-0.241458762493323,-0.204348821240558
1580421740.8174,-0.975356679636835,-0.246341649500266,-0.195071335927366
1580421740.8214,-0.942641336690318,-0.252689402609294,-0.191653315022506
1580421740.82539,-0.913832303349356,-0.251224536507211,-0.189211871519035
1580421740.82939,-0.879652094300756,-0.249759670405126,-0.192141603723201
1580421740.83338,-0.861097123674373,-0.241947051194018,-0.198489356832226
1580421740.83737,-0.843030441748684,-0.226810101472495,-0.205813687342641
1580421740.84137,-0.829358358129245,-0.209719996948195,-0.220950637064163
1580421740.84536,-0.821057450217442,-0.190676737621118,-0.23999389639124
1580421740.84935,-0.81177996490425,-0.167727168688486,-0.259525444419014
1580421740.85335,-0.79810788128481,-0.154055085069047,-0.284916456855116
1580421740.85734,-0.781506065461205,-0.140383001449607,-0.296635385671779
1580421740.86136,-0.769787136644542,-0.129152361333638,-0.317631799801633
1580421740.86535,-0.748302433813992,-0.120363164721141,-0.327885862516213
1580421740.86934,-0.72535286488136,-0.112062256809338,-0.341557946135653
1580421740.87334,-0.695567254139009,-0.108155947203784,-0.355718318455787
1580421740.87733,-0.661875333791103,-0.101808194094758,-0.358159761959259
1580421740.88133,-0.631601434348058,-0.100343327992675,-0.373785000381476
1580421740.88532,-0.597909514000152,-0.102296482795452,-0.378179598687725
1580421740.88931,-0.566170748455024,-0.0988784618905925,-0.39136339360647
1580421740.89331,-0.530525673304341,-0.0988784618905925,-0.407965209430076
1580421740.8973,-0.496345464255741,-0.0979018844892039,-0.42212558175021
1580421740.90129,-0.460212100404364,-0.0974135957885096,-0.431403067063401
1580421740.90529,-0.426031891355764,-0.10424963759823,-0.447028305485619
1580421740.90928,-0.388921950102999,-0.109132524605172,-0.468513008316167
1580421740.91327,-0.355230029755093,-0.120851453421835,-0.490974288548104
1580421740.91727,-0.328374151216908,-0.129640650034332,-0.511482413977264
1580421740.92126,-0.302494850080111,-0.141359578850995,-0.526131074998093
1580421740.92525,-0.279545281147479,-0.147707331960021,-0.537361715114061
1580421740.92925,-0.258060578316931,-0.154055085069047,-0.546639200427252
1580421740.93324,-0.23657587548638,-0.157473105973907,-0.550545510032807
1580421740.93723,-0.216556038757915,-0.152101930266269,-0.558358129243915
1580421740.94122,-0.195071335927366,-0.141359578850995,-0.574959945067521
1580421740.94522,-0.172121766994735,-0.122804608224612,-0.586678873884184
1580421740.94921,-0.146242465857938,-0.107179369802395,-0.608163576714732
1580421740.9532,-0.113527122911421,-0.0847180895704582,-0.619882505531395
1580421740.9572,-0.0832532234683754,-0.0607919432364383,-0.625741969939726
1580421740.96119,-0.0583504997329669,-0.041260395208667,-0.617441062027924
1580421740.96518,-0.0505378805218584,-0.0339360646982527,-0.610116731517509
1580421740.96918,-0.0593270771343555,-0.024170290684367,-0.624277103837644
1580421740.97317,-0.099855039291981,0.00610360875867855,-0.627695124742504
1580421740.97716,-0.182375829709315,0.0656748302433812,-0.614023041123064
1580421740.98116,-0.297611963073168,0.144777599755855,-0.579842832074464
1580421740.98515,-0.441657129777981,0.234622720683603,-0.494392309452964
1580421740.98915,-0.604257267109178,0.319096665903714,-0.33325703822385
1580421740.99314,-0.771740291447319,0.390875104905774,-0.12475776302739
1580421740.99713,-0.93141069657435,0.429938200961317,0.121828030823224
1580421741.00112,-1.07545586327916,0.424078736552985,0.3630426489662
1580421741.00512,-1.20631723506523,0.373785000381474,0.588143739986268
1580421741.00911,-1.32692454413672,0.27075608453498,0.789318684672313
1580421741.01311,-1.45583276112001,0.121828030823224,0.952407110704204
1580421741.0171,-1.59450675211719,-0.080811779964904,1.09352254520485
1580421741.02109,-1.73073929961089,-0.304936293583582,1.19264515144579
1580421741.02508,-1.8498817425803,-0.501228351262684,1.27809567406729
1580421741.02907,-1.90310521095598,-0.561776150148775,1.46071564812695
1580421741.03307,-1.8669718471046,-0.444098573281453,1.83132677195392
1580421741.03706,-1.90652323186084,-0.261966887922485,2.19021896696422
1580421741.04105,-1.95779354543374,-0.0617685206378269,2.32693980315862
1580421741.04505,-1.93044937819486,0.0983901731898982,2.20535591668574
1580421741.04904,-1.7473411154345,0.192629892423895,1.87869077592126
1580421741.05304,-1.45046158541238,0.222415503166246,1.4655985351339
1580421741.05703,-1.15846494239719,0.224856946669718,1.0471351186389
1580421741.06102,-0.919203479056993,0.194094758525978,0.703868162050814
1580421741.06502,-0.751720454718853,0.117433432516975,0.463141832608528
1580421741.06901,-0.641855497062638,0.00561532005798426,0.333745326924543
1580421741.073,-0.592538338292515,-0.116945143816281,0.275150682841229
1580421741.077,-0.607186999313344,-0.226810101472495,0.28101014724956
1580421741.08099,-0.674082551308461,-0.300053406576639,0.345464255741206
1580421741.08498,-0.780041199359122,-0.339604791332876,0.417242694743265
1580421741.08898,-0.912855725947967,-0.328862439917602,0.512947280079349
1580421741.09297,-1.06910811017014,-0.284428168154422,0.596444647898071
1580421741.09696,-1.24879835202563,-0.213626306553749,0.613534752422371
1580421741.10098,-1.41237506675822,-0.142824444953078,0.554940108339057
1580421741.10498,-1.53493553063249,-0.0754406042572668,0.443121995880063
1580421741.10897,-1.6023193713283,-0.0500495918211641,0.33911650263218
1580421741.11296,-1.57253376058595,-0.0788586251621268,0.282475013351643
1580421741.11696,-1.47634088654917,-0.134523537041275,0.33569848172732
1580421741.12095,-1.40163271534295,-0.168703746089875,0.456794079499502
1580421741.12494,-1.33424887464714,-0.169680323491264,0.561776150148777
1580421741.12894,-1.26735332265202,-0.183352407110704,0.626718547341117
1580421741.13293,-1.19459830624857,-0.243900205996795,0.596932936598765
1580421741.13692,-1.11989013504234,-0.311284046692608,0.418707560845348
1580421741.14092,-1.072526131075,-0.334721904325933,0.128175783932249
1580421741.14491,-0.978286411841001,-0.318120088502328,-0.183352407110704
1580421741.1489,-0.885511558709087,-0.295170519569696,-0.335210193026628
1580421741.1529,-0.884534981307699,-0.209719996948195,-0.268314641031511
1580421741.15689,-0.961684596017395,-0.0485847257190812,-0.0749523155565726
1580421741.16088,-1.07740901808194,0.153078507667658,0.102784771496147
1580421741.16488,-1.22975509269856,0.342046234836346,0.211184863050278
1580421741.16887,-1.40798046845197,0.45532921339742,0.224368657969023
1580421741.17286,-1.57155718318456,0.483649958037688,0.171633478294041
1580421741.17686,-1.66286717021439,0.446051728084228,0.0944838635843439
1580421741.18085,-1.63454642557412,0.39380483710994,0.0363775082017241
1580421741.18484,-1.53054093232624,0.349858854047454,0.0124513618677042
1580421741.18883,-1.39430838483253,0.294682230869,-0.0476081483176927
1580421741.19283,-1.24489204242008,0.206790264744029,-0.162355992980849
1580421741.19682,-1.07594415197986,0.104737926298924,-0.347905699244679
1580421741.20081,-0.912367437247273,0.0178225375753414,-0.53492027161059
1580421741.20481,-0.786877241168842,-0.00708018616006711,-0.649668116273746
1580421741.2088,-0.730235751888303,0.0373540856031127,-0.686778057526512
1580421741.2128,-0.731700617990386,0.126710917830167,-0.670664530403601
1580421741.21679,-0.760021362630656,0.213138017853055,-0.650156404974441
1580421741.22078,-0.785412375066759,0.240970473792629,-0.653574425879301
1580421741.22477,-0.793713282978562,0.187258716716258,-0.653086137178606
1580421741.22877,-0.799084458686199,0.0720225833524069,-0.634042877851529
1580421741.23276,-0.801037613488976,-0.0729991607537954,-0.609140154116121
1580421741.23676,-0.802990768291753,-0.214602883955138,-0.580331120775158
1580421741.24075,-0.815686274509805,-0.318120088502328,-0.531013962005035
1580421741.24474,-0.83912413214313,-0.37085526817731,-0.451911192492561
1580421741.24874,-0.884534981307699,-0.36060120546273,-0.366948958571756
1580421741.25273,-0.957289997711147,-0.295170519569696,-0.277103837644008
1580421741.25672,-1.03639276722362,-0.176516365300984,-0.207278553444723
1580421741.26074,-1.12965590905623,-0.024170290684367,-0.166262302586404
1580421741.26473,-1.21705958648051,0.138918135347524,-0.154543373769741
1580421741.26873,-1.2771190966659,0.284916456855115,-0.167727168688486
1580421741.27272,-1.3034866865034,0.373785000381474,-0.189700160219729
1580421741.27672,-1.30104524299992,0.413824673838405,-0.206301976043335
1580421741.28071,-1.27418936446174,0.412359807736323,-0.217044327458609
1580421741.2847,-1.23756771190967,0.3972228580148,-0.215091172655832
1580421741.2887,-1.21217669947356,0.39038681620508,-0.198489356832226
1580421741.29269,-1.1916685740444,0.385015640497443,-0.177981231403066
1580421741.29668,-1.16285954070344,0.370366979476614,-0.158937972075989
