Timestamp_seconds,Gyro_X_s,Gyro_Y_s,Gyro_Z_s
1580422356.51543,-1.25123979552905,0.335698481727377,1.43434805828952
1580422356.51943,-1.43434805828952,-0.274662394140478,1.37331197070262
1580422356.52342,-1.49538414587619,-0.823987182421661,1.37331197070262
1580422356.52741,-1.61745632104976,-1.49538414587619,1.25123979552905
1580422356.53141,-1.37331197070262,-1.9226367589838,0.946059357595232
1580422356.5354,-1.31227588311594,-2.47196154726475,1.0681315327688
1580422356.53939,-0.946059357595232,-3.02128633554594,1.0681315327688
1580422356.54339,-0.640878919661191,-3.44853894865332,0.946059357595232
1580422356.54738,-0.335698481727377,-3.69268329900046,0.823987182421661
1580422356.55137,-0.0305180437933359,-4.30304417486832,0.640878919661191
1580422356.55537,0.274662394140478,-4.66926070038903,0.579842832074519
1580422356.55936,0.579842832074519,-5.09651331349664,0.51880674448762
1580422356.56335,0.946059357595232,-5.34065766384379,0.274662394140478
1580422356.56734,1.25123979552905,-5.46272983901736,0.152590218966907
1580422356.57134,1.55642023346309,-5.52376592660403,0.091554131380235
1580422356.57533,1.80056458381023,-5.40169375143046,-0.091554131380235
1580422356.57932,2.22781719691761,-5.21858548867021,-0.152590218966907
1580422356.58332,2.53299763485165,-4.91340505073617,-0.335698481727377
1580422356.58731,2.83817807278547,-4.48615243762879,-0.152590218966907
1580422356.5913,3.08232242313261,-4.11993591210808,-0.091554131380235
1580422356.5953,3.08232242313261,-3.69268329900046,-0.0305180437933359
1580422356.59929,3.26543068589308,-3.14335851071951,0.0305180437933359
1580422356.60328,3.38750286106665,-2.96025024795904,0.274662394140478
1580422356.60728,3.44853894865332,-2.65506981002522,0.396734569314049
1580422356.61127,3.57061112382689,-2.28885328450451,0.396734569314049
1580422356.61526,3.63164721141379,-1.8616006713969,0.51880674448762
1580422356.61926,3.75371938658736,-1.61745632104976,0.579842832074519
1580422356.62325,3.93682764934761,-1.25123979552905,0.51880674448762
1580422356.62725,3.93682764934761,-1.0070954451819,0.51880674448762
1580422356.63124,3.93682764934761,-0.70191500724809,0.640878919661191
1580422356.63523,4.24200808728165,-0.335698481727377,0.640878919661191
1580422356.63925,4.36408026245522,-0.152590218966907,0.579842832074519
1580422356.64324,4.60822461280236,0.152590218966907,0.762951094834762
1580422356.64724,4.97444113832307,0.335698481727377,0.946059357595232
1580422356.65123,5.03547722590974,0.640878919661191,1.0681315327688
1580422356.65523,5.15754940108332,0.823987182421661,1.31227588311594
1580422356.65922,5.34065766384379,0.946059357595232,1.43434805828952
1580422356.66321,5.34065766384379,1.0070954451819,1.61745632104976
1580422356.66721,5.40169375143046,0.946059357595232,1.61745632104976
1580422356.6712,5.40169375143046,0.885023270008332,1.67849240863666
1580422356.67519,5.27962157625689,0.762951094834762,1.80056458381023
1580422356.67919,5.15754940108332,0.640878919661191,1.9226367589838
1580422356.68318,4.97444113832307,0.51880674448762,1.8616006713969
1580422356.68717,4.54718852521546,0.51880674448762,1.9226367589838
1580422356.69117,4.18097199969475,0.396734569314049,1.73952849622333
1580422356.69516,3.81475547417404,0.396734569314049,1.67849240863666
1580422356.69915,3.32646677347975,0.274662394140478,1.67849240863666
1580422356.70315,3.08232242313261,0.213626306553806,1.73952849622333
1580422356.70714,2.89921416037237,-0.0305180437933359,1.61745632104976
1580422356.71113,2.7771419851988,-0.091554131380235,1.49538414587619
1580422356.71513,2.7771419851988,-0.213626306553806,1.49538414587619
1580422356.71912,2.89921416037237,-0.579842832074519,1.49538414587619
1580422356.72311,2.89921416037237,-0.579842832074519,1.37331197070262
1580422356.7271,2.65506981002522,-0.640878919661191,1.31227588311594
1580422356.7311,2.7161058976119,-0.885023270008332,1.49538414587619
1580422356.73509,2.59403372243833,-1.0681315327688,1.43434805828952
1580422356.73908,2.41092545967808,-1.25123979552905,1.31227588311594
1580422356.74308,2.41092545967808,-1.61745632104976,1.25123979552905
1580422356.74707,2.34988937209118,-1.8616006713969,1.31227588311594
1580422356.75106,2.28885328450451,-1.8616006713969,1.31227588311594
1580422356.75506,2.10574502174404,-2.04470893415737,1.25123979552905
1580422356.75905,1.8616006713969,-2.22781719691761,1.19020370794237
1580422356.76304,1.73952849622333,-2.41092545967808,1.19020370794237
1580422356.76704,1.49538414587619,-2.53299763485165,1.0681315327688
1580422356.77103,1.31227588311594,-2.59403372243833,1.0681315327688
1580422356.77502,1.19020370794237,-2.65506981002522,1.0070954451819
1580422356.77902,1.0681315327688,-2.83817807278547,0.946059357595232
1580422356.78301,1.19020370794237,-2.83817807278547,0.946059357595232
1580422356.78701,1.19020370794237,-2.89921416037237,0.946059357595232
1580422356.791,1.0681315327688,-2.83817807278547,0.885023270008332
1580422356.79499,0.946059357595232,-2.96025024795904,0.885023270008332
1580422356.79901,0.762951094834762,-2.89921416037237,0.885023270008332
1580422356.803,0.579842832074519,-2.89921416037237,0.823987182421661
1580422356.807,0.274662394140478,-2.83817807278547,0.946059357595232
1580422356.81099,0.091554131380235,-2.7771419851988,0.885023270008332
1580422356.81499,-0.152590218966907,-2.7771419851988,0.762951094834762
1580422356.81898,-0.51880674448762,-2.83817807278547,0.579842832074519
1580422356.82297,-0.823987182421661,-2.7161058976119,0.457770656900948
1580422356.82696,-1.0681315327688,-2.7161058976119,0.335698481727377
1580422356.83096,-1.37331197070262,-2.7161058976119,0.274662394140478
1580422356.83495,-1.61745632104976,-2.7771419851988,0.091554131380235
1580422356.83895,-1.9226367589838,-2.83817807278547,-0.091554131380235
1580422356.84294,-2.10574502174404,-2.83817807278547,0.0305180437933359
1580422356.84693,-2.34988937209118,-2.7161058976119,-0.091554131380235
1580422356.85093,-2.53299763485165,-2.65506981002522,-0.213626306553806
1580422356.85492,-2.65506981002522,-2.65506981002522,-0.335698481727377
1580422356.85891,-2.7771419851988,-2.7161058976119,-0.457770656900948
1580422356.86291,-2.59403372243833,-2.59403372243833,-0.579842832074519
1580422356.8669,-2.7161058976119,-2.41092545967808,-0.579842832074519
1580422356.87089,-2.59403372243833,-2.41092545967808,-0.579842832074519
1580422356.87489,-2.53299763485165,-2.28885328450451,-0.640878919661191
1580422356.87888,-2.59403372243833,-2.22781719691761,-0.640878919661191
1580422356.88287,-2.41092545967808,-1.98367284657047,-0.70191500724809
1580422356.88686,-2.04470893415737,-1.73952849622333,-0.823987182421661
1580422356.89086,-2.04470893415737,-1.43434805828952,-0.885023270008332
1580422356.89485,-1.80056458381023,-1.31227588311594,-0.823987182421661
1580422356.89884,-1.55642023346309,-1.12916762035547,-0.762951094834762
1580422356.90284,-1.43434805828952,-0.946059357595232,-0.762951094834762
1580422356.90683,-1.25123979552905,-0.823987182421661,-0.640878919661191
1580422356.91082,-1.12916762035547,-0.762951094834762,-0.457770656900948
1580422356.91482,-1.31227588311594,-0.640878919661191,-0.51880674448762
1580422356.91881,-1.31227588311594,-0.640878919661191,-0.335698481727377
1580422356.9228,-1.43434805828952,-0.70191500724809,-0.335698481727377
1580422356.9268,-1.55642023346309,-0.640878919661191,-0.335698481727377
1580422356.93079,-1.61745632104976,-0.640878919661191,-0.274662394140478
1580422356.93478,-1.67849240863666,-0.70191500724809,-0.152590218966907
1580422356.93878,-1.80056458381023,-0.640878919661191,-0.091554131380235
1580422356.94277,-1.73952849622333,-0.51880674448762,-0.091554131380235
1580422356.94676,-1.8616006713969,-0.640878919661191,-0.091554131380235
1580422356.95076,-1.73952849622333,-0.579842832074519,-0.152590218966907
1580422356.95475,-2.04470893415737,-0.457770656900948,-0.152590218966907
1580422356.95874,-1.98367284657047,-0.274662394140478,-0.213626306553806
1580422356.96273,-2.04470893415737,-0.213626306553806,-0.457770656900948
1580422356.96673,-2.28885328450451,-0.152590218966907,-0.457770656900948
1580422356.97072,-2.47196154726475,-0.0305180437933359,-0.457770656900948
1580422356.97471,-2.83817807278547,0.0305180437933359,-0.396734569314049
1580422356.97871,-3.20439459830618,0.0305180437933359,-0.51880674448762
1580422356.9827,-3.75371938658736,0.091554131380235,-0.70191500724809
1580422356.98669,-3.99786373693451,0.152590218966907,-0.823987182421661
1580422356.99069,-4.36408026245522,0.091554131380235,-0.885023270008332
1580422356.99468,-4.7913328755626,0.213626306553806,-1.0070954451819
1580422356.99867,-5.40169375143046,0.213626306553806,-1.25123979552905
1580422357.00267,-6.13412680247188,0.335698481727377,-1.43434805828952
1580422357.00666,-6.68345159075307,0.213626306553806,-1.49538414587619
1580422357.01066,-7.29381246662092,0.274662394140478,-1.73952849622333
1580422357.01465,-7.7821011673152,0.274662394140478,-1.9226367589838
1580422357.01864,-8.33142595559616,0.091554131380235,-1.98367284657047
1580422357.02264,-8.75867856870377,0.0305180437933359,-2.10574502174404
1580422357.02663,-9.24696726939806,-0.091554131380235,-2.28885328450451
1580422357.03062,-9.4300755321583,-0.152590218966907,-2.34988937209118
1580422357.03462,-9.55214770733187,-0.335698481727377,-2.34988937209118
1580422357.03864,-9.91836423285258,-0.457770656900948,-2.34988937209118
1580422357.04263,-9.97940032043948,-0.640878919661191,-2.34988937209118
1580422357.04662,-9.97940032043948,-0.823987182421661,-2.28885328450451
1580422357.05061,-9.97940032043948,-0.946059357595232,-2.28885328450451
1580422357.05461,-9.73525597009234,-1.0681315327688,-2.28885328450451
1580422357.0586,-9.55214770733187,-1.0681315327688,-2.28885328450451
1580422357.0626,-9.12489509422448,-1.25123979552905,-2.22781719691761
1580422357.06659,-8.81971465629044,-1.31227588311594,-2.10574502174404
1580422357.07058,-8.5755703059433,-1.37331197070262,-2.04470893415737
1580422357.07458,-8.33142595559616,-1.43434805828952,-1.8616006713969
1580422357.07857,-7.90417334248878,-1.43434805828952,-1.80056458381023
1580422357.08256,-7.59899290455473,-1.61745632104976,-1.67849240863666
1580422357.08656,-7.41588464179449,-1.67849240863666,-1.43434805828952
1580422357.09055,-7.23277637903402,-1.73952849622333,-1.25123979552905
1580422357.09454,-7.11070420386045,-1.8616006713969,-1.12916762035547
1580422357.09854,-6.74448767833974,-1.80056458381023,-1.0681315327688
1580422357.10253,-6.56137941557949,-1.8616006713969,-0.823987182421661
1580422357.10652,-6.19516289005878,-1.8616006713969,-0.762951094834762
1580422357.11052,-5.76791027695117,-1.8616006713969,-0.640878919661191
1580422357.11451,-5.40169375143046,-1.9226367589838,-0.396734569314049
1580422357.1185,-5.09651331349664,-1.8616006713969,-0.457770656900948
1580422357.12249,-4.54718852521546,-1.80056458381023,-0.335698481727377
1580422357.12649,-4.30304417486832,-1.67849240863666,-0.335698481727377
1580422357.13048,-3.81475547417404,-1.61745632104976,-0.274662394140478
1580422357.13447,-3.44853894865332,-1.43434805828952,-0.335698481727377
1580422357.13847,-2.7771419851988,-1.37331197070262,-0.335698481727377
1580422357.14246,-2.22781719691761,-1.19020370794237,-0.457770656900948
1580422357.14645,-1.61745632104976,-1.0681315327688,-0.396734569314049
1580422357.15045,-0.823987182421661,-0.762951094834762,-0.457770656900948
1580422357.15444,-0.213626306553806,-0.640878919661191,-0.335698481727377
1580422357.15843,0.579842832074519,-0.51880674448762,-0.213626306553806
1580422357.16243,1.37331197070262,-0.213626306553806,0.0305180437933359
1580422357.16642,2.16678110933094,-0.152590218966907,0.091554131380235
1580422357.17041,3.08232242313261,-0.091554131380235,0.152590218966907
1580422357.17441,3.69268329900046,-0.152590218966907,0.152590218966907
1580422357.1784,4.36408026245522,-0.091554131380235,0.274662394140478
1580422357.1824,4.97444113832307,-0.091554131380235,0.396734569314049
1580422357.18639,5.6458381017776,-0.213626306553806,0.335698481727377
1580422357.19038,6.43930724040592,-0.274662394140478,0.396734569314049
1580422357.19438,7.17174029144735,-0.335698481727377,0.457770656900948
1580422357.19839,7.72106507972831,-0.396734569314049,0.335698481727377
1580422357.20239,8.33142595559616,-0.396734569314049,0.457770656900948
1580422357.20638,8.88075074387734,-0.579842832074519,0.396734569314049
1580422357.21037,9.18593118181116,-0.762951094834762,0.396734569314049
1580422357.21437,9.55214770733187,-0.823987182421661,0.335698481727377
1580422357.21836,9.67421988250544,-0.823987182421661,0.274662394140478
1580422357.22235,9.55214770733187,-0.885023270008332,0.213626306553806
1580422357.22635,9.4300755321583,-1.0681315327688,0.091554131380235
1580422357.23034,9.24696726939806,-1.31227588311594,0.152590218966907
1580422357.23434,9.18593118181116,-1.43434805828952,0.0305180437933359
1580422357.23833,9.00282291905091,-1.49538414587619,0.0305180437933359
1580422357.24232,9.00282291905091,-1.49538414587619,-0.0305180437933359
1580422357.24632,8.88075074387734,-1.31227588311594,-0.213626306553806
1580422357.25031,8.6366063935302,-1.49538414587619,-0.274662394140478
1580422357.2543,8.39246204318306,-1.25123979552905,-0.335698481727377
1580422357.2583,8.14831769283592,-1.19020370794237,-0.396734569314049
1580422357.26229,7.90417334248878,-1.0070954451819,-0.396734569314049
1580422357.26628,7.47692072938116,-0.885023270008332,-0.457770656900948
1580422357.27028,7.17174029144735,-0.823987182421661,-0.51880674448762
1580422357.27427,6.86655985351331,-0.885023270008332,-0.457770656900948
1580422357.27826,6.37827115281902,-0.823987182421661,-0.396734569314049
1580422357.28225,6.07309071488521,-0.762951094834762,-0.457770656900948
1580422357.28625,5.7068741893645,-0.823987182421661,-0.335698481727377
1580422357.29024,5.34065766384379,-0.762951094834762,-0.335698481727377
1580422357.29423,4.7913328755626,-0.823987182421661,-0.274662394140478
1580422357.29823,4.48615243762879,-0.762951094834762,-0.213626306553806
1580422357.30222,4.11993591210808,-0.762951094834762,-0.152590218966907
1580422357.30621,3.81475547417404,-0.823987182421661,0.091554131380235
1580422357.31021,3.57061112382689,-0.762951094834762,0.091554131380235
1580422357.3142,3.26543068589308,-0.823987182421661,0.091554131380235
1580422357.31819,3.14335851071951,-0.823987182421661,0.152590218966907
1580422357.32219,2.83817807278547,-0.946059357595232,0.213626306553806
1580422357.32618,2.34988937209118,-0.946059357595232,0.091554131380235
1580422357.33017,2.04470893415737,-0.823987182421661,-0.0305180437933359
1580422357.33417,1.55642023346309,-0.823987182421661,-0.0305180437933359
1580422357.33816,0.946059357595232,-1.0070954451819,-0.335698481727377
1580422357.34215,0.396734569314049,-1.12916762035547,-0.213626306553806
1580422357.34615,-0.152590218966907,-1.25123979552905,-0.335698481727377
1580422357.35014,-0.640878919661191,-1.31227588311594,-0.457770656900948
1580422357.35414,-0.946059357595232,-1.37331197070262,-0.457770656900948
1580422357.35815,-1.19020370794237,-1.37331197070262,-0.457770656900948
1580422357.36215,-1.31227588311594,-1.31227588311594,-0.51880674448762
1580422357.36614,-1.43434805828952,-1.31227588311594,-0.579842832074519
1580422357.37013,-1.31227588311594,-1.25123979552905,-0.640878919661191
1580422357.37413,-1.19020370794237,-1.31227588311594,-0.640878919661191
1580422357.37812,-1.12916762035547,-1.12916762035547,-0.51880674448762
1580422357.38211,-1.25123979552905,-0.946059357595232,-0.579842832074519
1580422357.38611,-1.31227588311594,-0.885023270008332,-0.51880674448762
1580422357.3901,-1.37331197070262,-0.762951094834762,-0.579842832074519
1580422357.3941,-1.49538414587619,-0.640878919661191,-0.579842832074519
1580422357.39809,-1.61745632104976,-0.640878919661191,-0.457770656900948
1580422357.40208,-1.73952849622333,-0.51880674448762,-0.457770656900948
1580422357.40608,-1.61745632104976,-0.396734569314049,-0.335698481727377
1580422357.41007,-1.55642023346309,-0.396734569314049,-0.335698481727377
1580422357.41406,-1.61745632104976,-0.335698481727377,-0.579842832074519
1580422357.41806,-1.37331197070262,-0.457770656900948,-0.457770656900948
1580422357.42205,-1.0681315327688,-0.51880674448762,-0.396734569314049
1580422357.42604,-0.885023270008332,-0.70191500724809,-0.274662394140478
1580422357.43004,-0.51880674448762,-0.762951094834762,-0.213626306553806
1580422357.43403,-0.335698481727377,-0.946059357595232,-0.213626306553806
1580422357.43802,-0.0305180437933359,-1.19020370794237,-0.091554131380235
1580422357.44201,0.396734569314049,-1.19020370794237,0.091554131380235
1580422357.446,0.396734569314049,-1.43434805828952,0.152590218966907
1580422357.45,0.70191500724809,-1.73952849622333,0.335698481727377
1580422357.45399,1.0070954451819,-2.10574502174404,0.457770656900948
1580422357.45799,1.37331197070262,-2.47196154726475,0.579842832074519
1580422357.46198,1.67849240863666,-2.7771419851988,0.51880674448762
1580422357.46597,2.04470893415737,-3.08232242313261,0.51880674448762
1580422357.46997,2.22781719691761,-3.38750286106665,0.457770656900948
1580422357.47396,2.53299763485165,-3.69268329900046,0.335698481727377
1580422357.47795,2.7161058976119,-4.05889982452118,0.274662394140478
1580422357.48195,2.83817807278547,-4.24200808728165,0.152590218966907
1580422357.48594,3.08232242313261,-4.48615243762879,0.091554131380235
1580422357.48993,3.20439459830618,-4.73029678797593,0.091554131380235
1580422357.49393,3.38750286106665,-4.73029678797593,-0.0305180437933359
1580422357.49792,3.63164721141379,-4.73029678797593,-0.274662394140478
1580422357.50191,3.93682764934761,-4.66926070038903,-0.51880674448762
1580422357.50591,3.99786373693451,-4.48615243762879,-0.640878919661191
1580422357.5099,3.99786373693451,-4.36408026245522,-0.823987182421661
1580422357.5139,3.81475547417404,-4.24200808728165,-1.0681315327688
1580422357.51788,3.69268329900046,-4.24200808728165,-1.25123979552905
1580422357.52188,3.50957503624022,-4.24200808728165,-1.43434805828952
1580422357.52587,3.26543068589308,-3.99786373693451,-1.61745632104976
1580422357.52986,2.83817807278547,-3.99786373693451,-1.73952849622333
1580422357.53386,2.47196154726475,-3.81475547417404,-1.73952849622333
1580422357.53785,2.16678110933094,-3.57061112382689,-1.80056458381023
1580422357.54184,1.9226367589838,-3.50957503624022,-1.67849240863666
1580422357.54584,1.80056458381023,-3.32646677347975,-1.55642023346309
1580422357.54983,1.55642023346309,-3.26543068589308,-1.61745632104976
1580422357.55382,1.37331197070262,-3.02128633554594,-1.73952849622333
1580422357.55782,1.0681315327688,-2.7771419851988,-1.80056458381023
1580422357.56181,0.823987182421661,-2.41092545967808,-1.8616006713969
1580422357.5658,0.274662394140478,-2.10574502174404,-2.04470893415737
1580422357.5698,-0.274662394140478,-1.73952849622333,-2.22781719691761
1580422357.57379,-0.70191500724809,-1.49538414587619,-2.28885328450451
1580422357.57779,-1.19020370794237,-1.0681315327688,-2.28885328450451
1580422357.58178,-1.55642023346309,-0.579842832074519,-2.47196154726475
1580422357.58577,-2.04470893415737,-0.274662394140478,-2.47196154726475
1580422357.58977,-2.65506981002522,0.091554131380235,-2.47196154726475
1580422357.59376,-3.08232242313261,0.274662394140478,-2.41092545967808
1580422357.59778,-3.38750286106665,0.274662394140478,-2.41092545967808
1580422357.60177,-3.57061112382689,0.213626306553806,-2.28885328450451
1580422357.60576,-3.57061112382689,0.335698481727377,-2.47196154726475
1580422357.60976,-3.50957503624022,0.762951094834762,-2.59403372243833
1580422357.61375,-3.20439459830618,1.25123979552905,-2.59403372243833
1580422357.61775,-2.83817807278547,1.98367284657047,-2.7161058976119
1580422357.62174,-2.41092545967808,2.7161058976119,-2.7771419851988
1580422357.62573,-2.04470893415737,3.38750286106665,-2.65506981002522
1580422357.62973,-1.73952849622333,3.87579156176093,-2.34988937209118
1580422357.63372,-1.31227588311594,4.36408026245522,-2.04470893415737
1580422357.63771,-0.70191500724809,4.66926070038903,-1.98367284657047
1580422357.64171,0.0305180437933359,4.8523689631495,-1.73952849622333
1580422357.6457,1.0070954451819,4.91340505073617,-1.61745632104976
1580422357.64969,2.16678110933094,4.91340505073617,-1.43434805828952
1580422357.65369,3.63164721141379,4.60822461280236,-1.55642023346309
1580422357.65768,5.40169375143046,4.36408026245522,-1.49538414587619
1580422357.66167,7.35484855420759,3.99786373693451,-1.67849240863666
1580422357.66567,10.0404364080262,3.69268329900046,-1.37331197070262
1580422357.66966,12.9091325246052,3.38750286106665,-1.0681315327688
1580422357.67366,16.2050812542916,3.20439459830618,-0.579842832074519
1580422357.67764,19.9893186846723,3.26543068589308,0.274662394140478
1580422357.68164,23.9566643778132,3.75371938658736,1.37331197070262
1580422357.68563,28.1681544213016,4.36408026245522,2.59403372243833
1580422357.68962,32.4406805523765,5.21858548867021,3.81475547417404
1580422357.69362,36.5911345082779,6.56137941557949,4.97444113832307
1580422357.69761,40.4364080262453,7.59899290455473,6.01205462729831
1580422357.7016,43.7323567559317,8.81971465629044,7.11070420386045
1580422357.7056,46.5400167849239,10.1625085831997,7.90417334248878
1580422357.70959,48.7983520256348,11.1390859845883,8.5755703059433
1580422357.71358,50.3852903028915,11.9935912108033,9.18593118181116
1580422357.71758,51.0566872663462,12.8480964370183,9.79629205767901
1580422357.72157,50.9956511787591,13.6415655756466,10.2845807583733
1580422357.72556,50.3242542153048,14.3129625391011,11.0170138094147
1580422357.72956,49.4087129015029,14.8622873273823,11.6273746852826
1580422357.73355,48.6152437628748,15.3505760280766,12.2377355611504
1580422357.73755,47.638666361486,16.083009079118,12.4818799114976
1580422357.74154,46.6620889600974,16.3881895170518,12.8480964370183
1580422357.74553,45.5024032959486,16.5712977798123,13.0922407873654
1580422357.74953,43.8544289311053,16.7544060425726,13.2753490501259
1580422357.75352,41.8402380407415,17.1206225680933,13.214312962539
1580422357.75754,39.2156862745096,17.7309834439611,12.9091325246052
1580422357.76153,36.3469901579308,18.1582360570687,12.664988174258
1580422357.76552,33.173113603418,18.7075608453497,12.2377355611504
1580422357.76952,29.8771648737315,19.4399938963911,11.810482948043
1580422357.77351,26.7643244068054,20.355535210193,11.3832303349354
1580422357.7775,23.8345922026397,21.4541847867551,11.0780498970016
1580422357.7815,20.8438239108873,22.7969787136644,10.7118333714809
1580422357.78549,18.0361638818952,24.1397726405737,10.2845807583733
1580422357.78949,15.1674677653161,25.482566567483,9.97940032043948
1580422357.79348,12.359807736324,26.7032883192187,9.85732814526591
1580422357.79747,9.91836423285258,27.7409018081939,9.61318379491877
1580422357.80147,7.53795681696806,28.4122987716487,9.4911116197452
1580422357.80546,5.46272983901736,28.900587472343,9.36903944457163
1580422357.80945,3.87579156176093,29.0836957351032,9.4300755321583
1580422357.81345,2.7771419851988,29.0836957351032,9.61318379491877
1580422357.81744,1.98367284657047,29.0226596475165,9.61318379491877
1580422357.82143,1.73952849622333,28.6564431219958,9.73525597009234
1580422357.82543,1.98367284657047,28.1681544213016,9.85732814526591
1580422357.82942,2.47196154726475,27.8629739833675,10.2235446707866
1580422357.83341,3.26543068589308,27.4357213702601,10.4676890211338
1580422357.8374,3.99786373693451,26.5812161440451,10.5287251087204
1580422357.84139,4.73029678797593,25.7877470054168,10.650797283894
1580422357.84539,5.27962157625689,24.9332417792018,10.4676890211338
1580422357.84938,5.76791027695117,24.0177004654001,9.97940032043948
1580422357.85338,5.82894636453807,22.6749065384909,10.2235446707866
1580422357.85737,5.21858548867021,22.1255817502097,10.4066529335469
1580422357.86136,4.48615243762879,21.4541847867551,10.3456168459602
1580422357.86536,3.63164721141379,20.5386434729533,9.91836423285258
1580422357.86935,3.02128633554594,18.7075608453497,9.4911116197452
1580422357.87334,2.16678110933094,17.1816586556802,9.67421988250544
1580422357.87734,1.49538414587619,16.2661173418783,9.24696726939806
1580422357.88133,0.946059357595232,15.5336842908368,8.88075074387734
1580422357.88532,0.457770656900948,14.2519264515145,9.00282291905091
1580422357.88932,0.152590218966907,13.5805294880597,9.12489509422448
1580422357.89331,0.091554131380235,12.4818799114976,8.81971465629044
1580422357.89731,-0.091554131380235,11.505302510109,8.75867856870377
1580422357.9013,-0.152590218966907,10.5897611963073,8.45349813076973
1580422357.90529,-0.335698481727377,9.97940032043948,8.14831769283592
1580422357.90928,-0.335698481727377,9.4911116197452,8.02624551766235
1580422357.91328,-0.396734569314049,9.06385900663759,7.90417334248878
1580422357.91727,-0.51880674448762,8.6366063935302,7.7821011673152
1580422357.92126,-0.335698481727377,8.51453421835663,7.66002899214163
1580422357.92525,-0.152590218966907,8.33142595559616,7.59899290455473
1580422357.92925,0.335698481727377,8.20935378042259,7.53795681696806
1580422357.93324,0.70191500724809,8.27038986800949,7.72106507972831
1580422357.93723,1.12916762035547,8.6366063935302,7.59899290455473
1580422357.94123,2.04470893415737,9.06385900663759,7.84313725490188
1580422357.94522,2.7161058976119,9.30800335698473,8.39246204318306
1580422357.94921,3.87579156176093,10.0404364080262,8.69764248111687
1580422357.95321,5.27962157625689,10.650797283894,8.88075074387734
1580422357.9572,6.92759594110021,11.1390859845883,9.24696726939806
1580422357.96119,8.81971465629044,11.7494468604561,9.36903944457163
1580422357.96519,10.8949416342411,12.2377355611504,9.73525597009234
1580422357.96918,12.9701686121919,12.7260242618447,10.2235446707866
1580422357.97318,15.5336842908368,12.9701686121919,10.5897611963073
1580422357.97717,18.2192721446554,13.3363851377126,10.955977721828
1580422357.98116,21.210040436408,13.519493400473,11.2611581597619
1580422357.98516,24.4449530785075,13.8246738384069,11.4442664225223
1580422357.98915,27.6188296330204,13.8246738384069,11.6273746852826
1580422357.99314,30.7316700999465,13.7636377508202,11.2001220721752
1580422357.99716,33.6614023041122,13.519493400473,11.810482948043
1580422358.00115,36.1028458075837,14.0077821011673,12.1156633859769
1580422358.00515,38.239108873121,14.0077821011673,11.9935912108033
1580422358.00914,40.0701915007246,13.6415655756466,11.8715190356297
1580422358.01314,41.4740215152208,13.1532768749523,11.6273746852826
1580422358.01713,42.2674906538489,12.8480964370183,11.2001220721752
1580422358.02112,42.3285267414358,12.664988174258,10.7118333714809
1580422358.02512,41.7181658655679,12.4208438239109,10.0404364080262
1580422358.02911,41.1078049897001,11.810482948043,9.18593118181116
1580422358.0331,40.4974441138322,11.0780498970016,8.14831769283592
1580422358.0371,39.948119325551,10.1625085831997,7.23277637903402
1580422358.04109,39.3987945372701,8.94178683146401,6.13412680247188
1580422358.04508,39.093614099336,7.59899290455473,5.40169375143046
1580422358.04908,38.6053253986418,6.01205462729831,4.48615243762879
1580422358.05307,37.8728923476003,4.05889982452118,3.81475547417404
1580422358.05706,37.0183871213853,2.10574502174404,3.08232242313261
1580422358.06106,35.7366292820629,0.091554131380235,2.16678110933094
1580422358.06505,33.6614023041122,-2.16678110933094,1.55642023346309
1580422358.06904,30.9758144502937,-4.24200808728165,0.885023270008332
1580422358.07304,27.8019378957808,-6.25619897764545,-0.091554131380235
1580422358.07703,24.2008087281604,-8.20935378042259,-0.762951094834762
1580422358.08102,20.2944991226061,-10.4676890211338,-1.49538414587619
1580422358.08501,16.2661173418783,-12.4208438239109,-2.28885328450451
1580422358.08901,12.0546272983902,-13.9467460135804,-2.96025024795904
1580422358.093,8.02624551766235,-14.8012512397954,-3.75371938658736
1580422358.09699,3.69268329900046,-15.3505760280766,-4.48615243762879
1580422358.10099,-0.70191500724809,-15.228503852903,-4.91340505073617
1580422358.10498,-5.34065766384379,-14.6791790646218,-4.97444113832307
1580422358.10897,-10.2235446707866,-14.3129625391011,-4.73029678797593
1580422358.11297,-14.8622873273823,-14.1908903639276,-4.11993591210808
1580422358.11696,-19.0737773708704,-14.2519264515145,-3.50957503624022
1580422358.12095,-22.4917982757304,-14.373998626688,-2.53299763485165
1580422358.12495,-25.2384222171358,-15.1674677653161,-1.19020370794237
1580422358.12894,-27.1305409323261,-16.0219729915311,0.640878919661191
1580422358.13294,-28.2291905088882,-16.8154421301595,2.96025024795904
1580422358.13693,-28.9616235599296,-17.9751277943083,5.15754940108332
1580422358.14092,-29.6330205233844,-19.4399938963911,7.23277637903402
1580422358.14492,-30.3044174868389,-20.7827878233004,8.5755703059433
1580422358.14891,-30.9147783627068,-21.759365224689,9.55214770733187
1580422358.1529,-30.7316700999465,-22.7359426260775,10.2235446707866
1580422358.15692,-29.8161287861446,-23.8956282902266,10.8949416342411
1580422358.16091,-28.4733348592354,-25.4215304798961,11.7494468604561
1580422358.16491,-26.8253604943923,-26.8863965819789,12.7870603494316
1580422358.1689,-25.482566567483,-28.4122987716487,13.8857099259938
1580422358.17289,-24.6890974288547,-29.2057679102768,14.8622873273823
1580422358.17689,-25.1163500419623,-29.8161287861446,16.1440451667047
1580422358.18088,-26.6422522316318,-30.609597924773,17.1206225680933
1580422358.18488,-28.5343709468223,-32.1355001144427,17.6699473563745
1580422358.18887,-30.5485618371861,-34.6990157930877,16.937514305333
1580422358.19286,-31.8303196765089,-38.4832532234684,14.8622873273823
1580422358.19686,-32.0134279392691,-43.3661402304112,11.6273746852826
1580422358.20085,-30.4264896620125,-49.164568551156,8.08728160524902
1580422358.20484,-27.5577935454337,-54.5357442587931,4.66926070038903
1580422358.20884,-24.1397726405737,-59.0524147402152,1.80056458381023
1580422358.21283,-20.9658960860609,-63.3249408712902,-0.335698481727377
1580422358.21682,-18.0361638818952,-67.7805752651254,-2.34988937209118
1580422358.22082,-15.5336842908368,-72.480354009308,-4.66926070038903
1580422358.22481,-13.3974212252995,-78.0956740672923,-7.23277637903402
1580422358.2288,-11.6273746852826,-84.8096437018387,-9.79629205767901
1580422358.2328,-9.18593118181116,-92.4391546501868,-12.4818799114976
1580422358.23679,-5.6458381017776,-101.106279087511,-14.8622873273823
1580422358.24078,-1.12916762035547,-110.200656137942,-16.9985503929197
1580422358.24477,4.05889982452118,-119.233997100786,-18.5854886701761
1580422358.24877,8.69764248111687,-128.023193713283,-19.9893186846723
1580422358.25276,12.6039520866711,-136.018921187152,-22.2476539253832
1580422358.25675,15.8999008163576,-142.305638208591,-25.2384222171358
1580422358.26075,18.7685969329366,-147.06645304036,-28.6564431219958
1580422358.26474,21.6983291371023,-150.30136568246,-32.0134279392691
1580422358.26873,24.2008087281604,-151.338979171435,-35.2483405813689
1580422358.27273,26.5812161440451,-149.263752193484,-38.1780727855346
1580422358.27672,30.1823453116654,-145.17433432517,-40.9857328145267
1580422358.28071,34.5159075303272,-139.803158617533,-43.8544289311055
1580422358.28471,38.7273975738153,-135.10337987335,-47.1503776607919
1580422358.2887,42.511635004196,-130.342565041581,-50.0801098649576
1580422358.2927,47.8217746242465,-124.483100633249,-52.2774090180819
1580422358.29669,57.2823682001981,-116.609445334554,-53.1929503318838
1580422358.30068,71.4427405203328,-106.721599145495,-52.2774090180819
1580422358.30467,87.5562676432442,-95.1857785915925,-49.7138933394369
1580422358.30867,103.608758678569,-82.0019836728466,-46.1127641718167
1580422358.31266,119.111924925612,-69.1233691920347,-41.4129854276341
1580422358.31668,133.516441596094,-59.1134508278019,-35.3093766689556
1580422358.32067,146.517128252079,-53.1929503318838,-27.4967574578468
1580422358.32467,156.160830090791,-50.2021820401312,-18.1582360570687
1580422358.32866,160.494392309453,-48.8593881132219,-7.29381246662092
1580422358.33265,158.113984893568,-47.6386663614862,3.75371938658736
1580422358.33665,149.019607843137,-45.6244754711224,14.2519264515145
1580422358.34064,134.859235523003,-44.1596093690396,23.468375677119
1580422358.34464,116.975661860075,-42.9999237048905,30.7316700999465
1580422358.34863,97.5051499198903,-41.2909132524605,36.1638818951703
1580422358.35262,78.8891432059208,-38.1780727855346,39.2156862745096
1580422358.35662,62.2873273823147,-34.3938353551539,39.4598306248567
1580422358.36061,48.5542076752877,-30.3654535744258,37.6897840848401
1580422358.3646,38.7273975738153,-27.0695048447394,34.8210879682611
1580422358.3686,32.8679331654839,-24.9942778667887,31.7692835889218
1580422358.37259,30.5485618371861,-25.2384222171358,29.2668039978637
1580422358.37658,30.2433813992523,-26.8863965819789,27.9240100709544
1580422358.38058,30.1823453116654,-29.755092698558,27.8019378957808
1580422358.38457,28.4733348592354,-32.623788815137,28.2902265964751
1580422358.38856,23.8956282902266,-34.332799267567,29.5719844357975
1580422358.39256,16.3271534294652,-34.8210879682613,30.4264896620125
1580422358.39654,6.74448767833974,-34.8821240558482,31.0368505378804
1580422358.40054,-4.42511635004189,-35.0652323186084,31.0368505378804
1580422358.40453,-15.6557564660104,-35.6755931944763,30.1213092240787
1580422358.40853,-27.2526131074997,-36.4690623331046,28.8395513847561
1580422358.41252,-39.6429388876174,-37.1404592965591,27.6188296330204
1580422358.41651,-53.3760585946441,-37.6287479972534,26.7032883192187
1580422358.42051,-67.7195391775388,-38.1170366979477,26.0318913557639
1580422358.4245,-80.1098649576561,-39.0325780117496,25.482566567483
1580422358.42849,-88.5328450446325,-40.2532997634853,25.2384222171358
1580422358.43249,-91.8287937743189,-40.0091554131382,25.2994583047225
1580422358.43648,-90.1197833218889,-36.7742427710384,25.9708552681773
1580422358.44047,-85.4810406652932,-31.8303196765089,27.0695048447394
1580422358.44447,-80.8422980086975,-28.1071183337147,29.6940566109711
1580422358.44846,-79.6215762569618,-26.2149996185244,33.7834744792858
1580422358.45245,-84.3213550011444,-25.0553139543754,39.3377584496832
1580422358.45645,-93.3546959639887,-23.1631952391851,45.6855115587089
1580422358.46044,-102.204928664073,-20.6607156481268,51.911192492561
1580422358.46443,-106.538490882735,-18.0361638818952,57.7096208133057
1580422358.46843,-104.402227817197,-15.7167925535973,62.8976882581828
1580422358.47242,-96.5896086060884,-12.8480964370183,67.719539177539
1580422358.47641,-85.5420767528801,-8.6366063935302,71.9920653086137
1580422358.4804,-73.2127870603495,-2.83817807278547,75.3490501258871
1580422358.4844,-59.7848477912567,3.93682764934761,78.0956740672923
1580422358.48839,-44.8310063324941,10.955977721828,80.2929732204166
1580422358.49238,-28.7174792095825,17.2426947432668,82.0019836728466
1580422358.49638,-13.1532768749523,22.5528343633173,83.2227054245823
1580422358.50037,0.152590218966907,26.9474326695658,84.1382467383842
1580422358.50436,10.4676890211338,30.3044174868389,84.5654993514918
1580422358.50836,17.8530556191347,32.6848249027237,84.6265354390785
1580422358.51235,23.0411230640116,34.5159075303272,83.6499580376899
1580422358.51635,26.6422522316318,36.8352788586251,81.8188754100865
1580422358.52034,28.3512626840618,39.7650110627908,79.0112153810942
1580422358.52433,27.6188296330204,42.3895628290225,75.1049057755399
1580422358.52832,24.8722056916151,43.4271763179979,70.4661631189442
1580422358.53232,21.759365224689,42.9388876173036,65.4001678492409
1580422358.53631,19.1348134584573,41.2298771648736,60.2121004043638
1580422358.54031,16.9985503929197,38.5442893110551,55.1461051346605
1580422358.5443,13.8246738384069,35.2483405813687,50.6904707408253
1580422358.54829,8.75867856870377,31.9523918516823,46.9062333104446
1580422358.55229,1.49538414587619,30.0602731364918,43.0609597924772
1580422358.55633,-6.37827115281902,29.5109483482108,38.7273975738153
1580422358.56033,-13.214312962539,29.3888761730373,34.2107270923932
1580422358.56432,-18.5854886701761,30.1823453116654,29.755092698558
1580422358.56832,-21.0269321736475,30.7316700999465,25.2384222171358
1580422358.57231,-20.5386434729533,31.7692835889218,21.0269321736475
1580422358.5763,-16.937514305333,32.9289692530708,17.3647669184404
1580422358.5803,-11.0170138094147,34.2717631799801,14.5571068894483
1580422358.58429,-4.42511635004189,35.4924849317158,12.4818799114976
1580422358.58828,-0.457770656900948,36.0418097199968,11.3832303349354
1580422358.59228,-1.43434805828952,36.2859540703439,11.2001220721752
1580422358.59627,-6.31723506523235,35.7366292820629,11.810482948043
1580422358.60026,-12.664988174258,34.3938353551537,12.8480964370183
1580422358.60426,-17.9751277943083,32.6237888151368,14.1298542763409
1580422358.60825,-21.5762569619287,31.8303196765087,15.4726482032502
1580422358.61224,-23.9566643778132,31.7692835889218,16.7544060425726
1580422358.61624,-25.3604943923094,31.4030670634011,18.2192721446554
1580422358.62023,-26.8863965819789,30.5485618371861,19.7451743343252
1580422358.62422,-29.0226596475165,29.755092698558,21.6372930495154
1580422358.62822,-30.9758144502937,29.755092698558,23.9566643778132
1580422358.63221,-31.9523918516825,29.6330205233844,26.4591439688716
1580422358.6362,-31.0978866254673,29.2057679102768,29.0836957351032
1580422358.64019,-28.5343709468223,28.900587472343,31.3420309758144
1580422358.64419,-25.5436026550697,29.6940566109711,32.8068970778972
1580422358.64818,-22.0035095750361,31.7082475013351,33.6003662165253
1580422358.65217,-17.3037308308537,34.6379797055008,33.7224383916989
1580422358.65617,-11.0780498970016,37.384603646906,33.2951857785915
1580422358.66016,-3.63164721141379,39.6429388876172,32.6237888151368
1580422358.66415,4.36408026245522,41.5960936903944,31.7692835889218
1580422358.66815,12.6039520866711,43.4882124055846,30.6706340123596
1580422358.67214,20.8438239108873,45.1361867704279,29.5109483482108
1580422358.67613,28.7174792095825,47.2114137483786,28.2291905088882
1580422358.68013,35.6145571068894,49.7749294270234,26.7032883192187
1580422358.68412,41.3519493400472,52.6436255436024,25.3604943923094
1580422358.68811,45.6244754711222,55.5123216601814,24.2008087281604
1580422358.69211,48.4321355001143,57.8927290760662,23.1021591515982
1580422358.6961,49.4087129015029,59.4796673533224,22.2476539253832
1580422358.7001,48.6152437628748,60.5172808422976,21.3931486991683
1580422358.70409,45.8686198214693,61.066605630579,20.2944991226061
1580422358.70808,41.7181658655679,61.1276417181657,19.1348134584573
1580422358.71208,37.0794232089722,61.1276417181657,18.2803082322423
1580422358.71609,32.5017166399632,61.5548943312733,17.486839093614
1580422358.72009,29.0226596475165,62.1652552071409,16.937514305333
1580422358.72408,26.3981078812847,63.6911573968109,16.5712977798123
1580422358.72808,24.1397726405737,66.0715648126957,16.083009079118
1580422358.73207,20.5386434729533,68.5130083161671,15.4726482032502
1580422358.73606,14.8012512397954,70.4051270313576,14.7402151522087
1580422358.74006,6.56137941557949,71.2596322575723,14.0077821011673
1580422358.74405,-3.44853894865332,71.0154879072252,13.214312962539
1580422358.74804,-13.5805294880597,69.6116578927295,12.2377355611504
1580422358.75204,-23.1021591515982,66.8650339513238,11.3221942473488
1580422358.75603,-31.5251392385749,62.6535439078357,10.2235446707866
1580422358.76002,-39.0936140993363,57.7096208133057,9.24696726939806
1580422358.76402,-45.9906919966431,52.4605172808419,8.39246204318306
1580422358.76801,-52.0943007553217,47.94384679942,7.29381246662092
1580422358.772,-56.9771877622645,44.4037537193865,6.01205462729831
1580422358.776,-60.2731364919509,41.5960936903944,4.18097199969475
1580422358.77999,-62.0431830319676,39.3377584496832,1.80056458381023
1580422358.78398,-62.2873273823147,37.5066758220796,-0.823987182421661
1580422358.78798,-61.3717860685131,36.2859540703439,-3.38750286106665
1580422358.79197,-59.6017395284962,35.8587014572365,-6.13412680247188
1580422358.79596,-56.8551155870909,35.7976653696496,-8.75867856870377
1580422358.79995,-53.7422751201648,35.9197375448232,-10.955977721828
1580422358.80395,-50.6294346532388,35.4314488441289,-12.7260242618447
1580422358.80794,-47.8828107118334,34.4548714427403,-13.8246738384069
1580422358.81193,-46.1127641718167,33.6003662165253,-14.2519264515145
1580422358.81593,-45.3192950331884,32.6237888151368,-14.1908903639276
1580422358.81992,-45.1361867704281,31.5251392385746,-13.214312962539
1580422358.82391,-45.441367208362,29.9992370489051,-11.5663385976959
1580422358.82791,-45.9906919966431,28.1681544213016,-9.73525597009234
1580422358.8319,-46.5400167849241,26.1539635309375,-7.96520943007545
1580422358.83589,-47.0893415732053,24.3839169909209,-5.95101853971164
1580422358.83989,-48.0048828870069,22.613870450904,-4.30304417486832
1580422358.84388,-49.6528572518503,21.0269321736475,-2.96025024795904
1580422358.84787,-51.2397955291067,19.501029983978,-1.8616006713969
1580422358.85187,-52.2774090180819,18.0361638818952,-1.12916762035547
1580422358.85586,-51.9722285801481,16.937514305333,-0.885023270008332
1580422358.85985,-49.8359655146105,15.9609369039445,-0.823987182421661
1580422358.86385,-45.9906919966431,14.923323414969,-0.579842832074519
1580422358.86784,-40.9246967269398,13.7636377508202,-0.335698481727377
1580422358.87184,-34.8821240558482,12.5429159990845,0.091554131380235
1580422358.87582,-28.046082246128,11.7494468604561,0.396734569314049
1580422358.87982,-20.1113908598459,11.7494468604561,0.396734569314049
1580422358.88381,-11.2001220721752,12.0546272983902,0.091554131380235
1580422358.8878,-2.28885328450451,12.5429159990845,0.0305180437933359
1580422358.8918,5.7068741893645,12.9091325246052,0.213626306553806
1580422358.89579,12.9091325246052,13.4584573128861,0.274662394140478
1580422358.89979,19.8672465094987,14.0077821011673,0.579842832074519
1580422358.90378,26.2149996185244,14.0077821011673,0.762951094834762
1580422358.90777,31.8303196765087,13.4584573128861,1.25123979552905
1580422358.91176,36.1028458075837,12.9091325246052,1.80056458381023
1580422358.91576,38.7273975738153,12.7260242618447,2.28885328450451
1580422358.91975,40.0091554131379,12.664988174258,2.41092545967808
1580422358.92375,40.4974441138322,12.4818799114976,2.59403372243833
1580422358.92774,40.8636606393529,12.359807736324,2.47196154726475
1580422358.93173,41.4740215152208,12.4818799114976,1.98367284657047
1580422358.93573,42.7557793545432,12.5429159990845,1.19020370794237
1580422358.93972,44.1596093690393,12.4208438239109,0.335698481727377
1580422358.94371,44.7699702449072,12.5429159990845,-0.457770656900948
1580422358.94771,43.9154650186922,12.7260242618447,-1.43434805828952
1580422358.9517,41.3519493400472,12.9701686121919,-2.59403372243833
1580422358.95572,38.0560006103608,12.8480964370183,-4.24200808728165
1580422358.95971,35.1873044937818,13.1532768749523,-6.13412680247188
1580422358.96371,34.2107270923932,13.9467460135804,-8.14831769283592
1580422358.9677,36.1028458075837,15.1064316777295,-9.97940032043948
1580422358.97169,39.2767223620965,16.1440451667047,-11.4442664225223
1580422358.97569,42.511635004196,16.8154421301595,-12.8480964370183
1580422358.97968,44.220645456626,17.5478751812009,-14.2519264515145
1580422358.98367,43.7933928435186,18.7685969329366,-15.5947203784237
1580422358.98767,41.7792019531546,19.9893186846723,-17.0595864805066
1580422358.99166,38.7273975738153,20.5386434729533,-18.341344319829
1580422358.99565,35.0652323186082,20.5996795605402,-19.2568856336309
1580422358.99965,30.9758144502937,19.9282825970854,-20.050354772259
1580422359.00364,26.4591439688716,18.8906691081102,-20.904859998474
1580422359.00763,22.4307621881437,17.7309834439611,-21.210040436408
1580422359.01163,18.4023804074159,16.8154421301595,-21.8204013122759
1580422359.01562,15.2895399404897,15.6557564660104,-22.4917982757304
1580422359.01961,12.9091325246052,14.6181429770352,-23.3463035019454
1580422359.02361,10.955977721828,13.4584573128861,-24.4449530785075
1580422359.0276,9.24696726939806,11.6273746852826,-25.7877470054168
1580422359.03159,7.59899290455473,9.55214770733187,-26.8863965819789
1580422359.03558,5.15754940108332,7.66002899214163,-27.8629739833675
1580422359.03958,2.53299763485165,5.6458381017776,-28.5343709468223
1580422359.04357,-0.274662394140478,2.7161058976119,-28.6564431219958
1580422359.04756,-3.69268329900046,-1.12916762035547,-29.1447318226901
1580422359.05156,-7.66002899214163,-5.15754940108332,-29.5719844357975
1580422359.05555,-11.5663385976959,-9.30800335698473,-33.3562218661784
1580422359.05954,-14.6791790646218,-14.8012512397954,-33.1731136034182
1580422359.06354,-17.8530556191347,-16.7544060425726,-32.3796444647899
1580422359.06753,-21.8204013122759,-21.2710765239947,-30.3654535744258
1580422359.07152,-25.2994583047225,-28.4122987716487,-31.4030670634013
1580422359.07552,-28.1681544213016,-35.6145571068896,-29.5109483482108
1580422359.07951,-31.4030670634013,-39.9481193255513,-27.0084687571525
1580422359.0835,-35.3093766689556,-46.601052872511,-24.3839169909209
1580422359.0875,-38.8494697489891,-53.3150225070574,-22.2476539253832
1580422359.09149,-41.5960936903946,-60.9445334554055,-20.1113908598459
1580422359.09549,-43.732356755932,-67.5364309147783,-17.7309834439611
1580422359.09948,-45.0751506828412,-74.9217975127794,-14.8012512397954
1580422359.10347,-45.441367208362,-84.5044632639047,-11.7494468604561
1580422359.10747,-46.0517280842298,-94.2702372777906,-8.20935378042259
1580422359.11146,-49.7138933394369,-103.303578240635,-4.7913328755626
1580422359.11548,-56.7330434119174,-110.261692225528,-2.83817807278547
1580422359.11947,-64.0573739223316,-113.862821393149,-3.75371938658736
1580422359.12346,-67.5364309147783,-113.496604867628,-8.51453421835663
1580422359.12746,-61.2497138933395,-110.749980926223,-15.2895399404897
1580422359.13145,-42.6947432669567,-107.454032196536,-22.5528343633173
1580422359.13545,-12.664988174258,-102.571145189593,-29.5109483482108
1580422359.13944,24.322880903334,-91.5846494239718,-34.5159075303275
1580422359.14343,62.7756160830095,-77.0580605783168,-36.5300984206913
1580422359.14743,98.2986190585184,-62.8366521705959,-35.9807736324103
1580422359.15142,127.412832837415,-50.7515068284124,-33.2341496910049
1580422359.15541,148.348210879682,-41.5960936903946,-29.4499122606239
1580422359.15941,162.081330586709,-36.4080262455177,-24.8111696040282
1580422359.1634,170.138094148165,-35.1262684061953,-19.195849546044
1580422359.16739,174.41062027924,-37.6897840848403,-12.1156633859769
1580422359.17139,176.058594644083,-43.0609597924774,-2.41092545967808
1580422359.17538,176.546883344778,-49.164568551156,4.11993591210808
1580422359.17937,173.739223315785,-55.0850690470741,8.75867856870377
1580422359.18337,165.499351491569,-61.2497138933395,14.3129625391011
1580422359.18736,151.216906996262,-68.5740444037538,19.6231021591516
1580422359.19135,129.732204165713,-80.0488288700694,24.4449530785075
1580422359.19534,100.495918211643,-93.4157320515753,28.3512626840618
1580422359.19934,66.4988174258033,-109.712367437247,30.5485618371861
1580422359.20333,32.9900053406575,-130.220492866407,30.7927061875332
1580422359.20732,4.36408026245522,-155.367360952163,29.2668039978637
1580422359.21132,-17.792019531548,-185.275043869688,25.7877470054168
1580422359.21531,-33.1731136034182,-214.206149385824,20.050354772259
1580422359.2193,-39.7039749752041,-231.174181734951,12.359807736324
1580422359.2233,-36.7742427710384,-229.648279545281,4.36408026245522
1580422359.22729,-30.4875257495994,-213.778896772717,-2.04470893415737
1580422359.23128,-24.9332417792018,-195.773250934615,-6.19516289005878
1580422359.23528,-21.1490043488211,-179.171435111009,-9.73525597009234
1580422359.23927,-19.3179217212175,-167.147325856413,-12.4818799114976
1580422359.24326,-20.6607156481268,-160.433356221866,-13.9467460135804
1580422359.24726,-24.0787365529868,-160.7385366598,-16.3271534294652
1580422359.25125,-26.7032883192187,-169.28358892195,-20.6607156481268
1580422359.25524,-32.8679331654841,-178.255893797208,-27.4967574578468
1580422359.25924,-45.3192950331884,-182.711528191043,-35.8587014572367
1580422359.26323,-56.6720073243305,-185.641260395209,-43.4271763179981
1580422359.26723,-56.3668268863967,-183.688105592432,-48.8593881132219
1580422359.27122,-39.9481193255513,-173.800259403372,-52.0332646677348
1580422359.27524,-7.23277637903402,-162.203402761883,-53.437094682231
1580422359.27923,37.384603646906,-152.742809185931,-52.8267338063631
1580422359.28322,87.1290150301365,-143.343251697566,-50.2021820401312
1580422359.28722,137.727931639582,-133.272297245747,-46.0517280842298
1580422359.29121,189.364461738003,-122.95719844358,-41.474021515221
1580422359.2952,241.06202792401,-111.909666590372,-37.0183871213856
1580422359.2992,289.768825818265,-100.312809948882,-32.8068970778975
1580422359.30319,329.686427100023,-87.8004119935911,-27.8019378957808
1580422359.30719,355.626764324407,-73.5790035858702,-21.759365224689
1580422359.31118,364.660105287251,-58.5641260395209,-14.7402151522087
1580422359.31517,356.664377813382,-43.9154650186924,-6.25619897764545
1580422359.31917,332.982375829709,-29.0226596475165,4.48615243762879
1580422359.32316,297.764553292134,-15.9609369039445,17.2426947432668
1580422359.32715,257.846952010376,-6.56137941557949,30.7927061875332
1580422359.33115,220.004577706569,-1.98367284657047,42.3285267414358
1580422359.33514,187.89959563592,-1.80056458381023,51.6670481422138
1580422359.33913,160.982681010147,-4.66926070038903,58.9303425650414
1580422359.34313,138.155184252689,-9.79629205767901,65.6443121995881
1580422359.34712,115.999084458686,-15.4726482032502,72.6634622720685
1580422359.35111,92.7443350881208,-19.9893186846723,78.9501792935075
1580422359.3551,67.2922865644314,-22.5528343633173,83.2227054245823
1580422359.3591,39.6429388876172,-22.7359426260775,84.6875715266651
1580422359.36309,10.2845807583733,-20.904859998474,83.4668497749294
1580422359.36708,-20.1724269474325,-17.4258030060273,80.1709010452432
1580422359.37108,-50.9346150911726,-13.3974212252995,75.715266651408
1580422359.37507,-82.0630197604332,-9.55214770733187,71.137560082399
1580422359.37906,-113.191424429694,-6.25619897764545,66.9260700389109
1580422359.38306,-143.282215609979,-2.96025024795904,63.6911573968109
1580422359.38705,-170.80949111162,0.70191500724809,61.3107499809262
1580422359.39104,-194.613565270466,5.09651331349664,59.7238117036695
1580422359.39504,-214.145113298237,9.91836423285258,58.6861982146943
1580422359.39903,-230.136568245975,15.3505760280766,57.8927290760662
1580422359.40302,-243.381399252308,20.5386434729533,57.2823682001981
1580422359.40702,-254.123750667582,25.2384222171358,56.7330434119172
1580422359.41101,-261.631189440757,29.5719844357975,56.1837186236362
1580422359.415,-265.354390783551,33.6003662165253,55.6954299229419
1580422359.419,-264.255741206989,37.4456397344929,56.0006103608757
1580422359.42299,-258.15213244831,40.5584802014189,56.8551155870905
1580422359.42699,-246.433203631647,43.5492484931715,58.2589456015867
1580422359.43098,-228.305485618372,46.4179446097503,60.1510643167771
1580422359.43497,-203.707942320897,49.4087129015029,61.9821469443805
1580422359.43896,-174.349584191653,53.4370946822305,64.0573739223319
1580422359.44295,-142.427710383764,58.0148012512395,66.2546730754561
1580422359.44695,-110.383764400702,62.2262912947276,68.4519722285804
1580422359.45094,-80.0488288700694,66.010528725109,70.3440909437709
1580422359.45493,-51.8501564049745,68.9402609292747,71.8699931334404
1580422359.45893,-25.6656748302432,70.7103074692914,73.3348592355233
1580422359.46292,-2.96025024795904,71.6868848706799,74.6776531624323
1580422359.46691,15.2895399404897,73.4569314106966,75.4711223010609
1580422359.47091,28.3512626840618,76.3866636148623,75.5321583886475
1580422359.4749,36.4080262455175,80.2929732204166,74.7386892500194
1580422359.47889,39.4598306248567,84.6265354390785,73.0907148851761
1580422359.48289,36.3469901579308,87.9224841687651,70.5271992065309
1580422359.48688,25.5436026550697,88.1666285191122,66.8650339513238
1580422359.49088,7.29381246662092,84.443427176318,62.4704356450748
1580422359.49487,-16.632333867399,77.1190966659037,58.0758373388262
1580422359.49886,-43.1219958800641,66.3157091630428,53.4370946822305
1580422359.50286,-68.6350804913404,53.1319142442967,49.2866407263291
1580422359.50685,-90.1808194094758,38.9105058365758,45.2582589456015
1580422359.51084,-105.989166094453,24.8111696040282,40.802624551766
1580422359.51486,-115.388723582818,12.0546272983902,35.9807736324101
1580422359.51885,-117.769130998703,1.55642023346309,30.9147783627068
1580422359.52285,-112.581063553826,-6.19516289005878,25.9708552681773
1580422359.52684,-100.679026474403,-10.1625085831997,21.5152208743418
1580422359.53084,-82.8564888990616,-10.4066529335469,17.3037308308537
1580422359.53483,-60.212100404364,-7.23277637903402,13.3974212252995
1580422359.53882,-34.332799267567,-1.73952849622333,9.97940032043948
1580422359.54282,-6.80552376592664,4.42511635004189,7.23277637903402
1580422359.54681,21.3321126115816,9.97940032043948,5.6458381017776
1580422359.5508,49.5918211642634,14.7402151522087,5.46272983901736
1580422359.5548,76.5087357900361,17.9140917067216,6.80552376592664
1580422359.55879,100.068665598535,19.8062104219118,9.4300755321583
1580422359.56278,119.661249713894,19.5620660715647,12.9091325246052
1580422359.56678,134.187838559548,17.2426947432668,16.937514305333
1580422359.57077,143.221179522393,13.3363851377126,20.5386434729533
1580422359.57476,146.578164339666,8.94178683146401,23.2242313267718
1580422359.57876,145.113298237583,4.48615243762879,25.1773861295489
1580422359.58275,139.375906004425,0.640878919661191,25.9098191805904
1580422359.58675,130.159456778821,-2.16678110933094,26.1539635309375
1580422359.59074,117.83016708629,-3.81475547417404,26.1539635309375
1580422359.59473,101.411459525445,-3.08232242313261,26.9474326695658
1580422359.59872,82.9175249866485,-0.213626306553806,28.5954070344089
1580422359.60271,63.9353017471581,4.18097199969475,31.464103150988
1580422359.60671,46.6620889600974,8.6366063935302,35.7366292820629
1580422359.6107,32.8068970778972,13.4584573128861,40.9246967269396
1580422359.61469,24.0787365529868,19.501029983978,46.4179446097503
1580422359.61869,21.759365224689,26.7032883192187,51.8501564049743
1580422359.62268,25.9098191805904,34.5159075303272,56.9161516746776
1580422359.62667,33.9055466544594,41.0467689021132,61.1886778057524
1580422359.63067,42.9999237048903,43.7933928435186,64.85084306096
1580422359.63466,50.9956511787591,43.3051041428243,68.0247196154728
1580422359.63865,56.3668268863962,41.7792019531546,70.6492713817047
1580422359.64265,56.7940794995038,40.9246967269396,72.5413900968952
1580422359.64664,48.7373159380481,41.9012741283282,72.3582818341347
1580422359.65064,29.9992370489051,43.6102845807582,69.3675135423823
1580422359.65463,1.25123979552905,43.5492484931715,63.14183260853
1580422359.65862,-32.928969253071,39.8260471503775,53.3150225070572
1580422359.66262,-65.5832761120012,32.8068970778972,40.7415884641794
1580422359.66661,-89.0211337453268,23.6514839398794,26.2760357061111
1580422359.6706,-99.3972686350805,14.2519264515145,11.9325551232166
1580422359.67462,-98.2986190585184,8.27038986800949,-1.25123979552905
1580422359.67861,-88.7769893949796,7.59899290455473,-11.8715190356297
1580422359.68261,-73.8231479362173,11.5663385976959,-19.7451743343252
1580422359.6866,-56.1837186236362,18.5854886701761,-24.8722056916151
1580422359.69059,-38.3611810482948,27.0695048447394,-27.8019378957808
1580422359.69459,-21.6372930495154,35.9197375448232,-28.8395513847561
1580422359.69858,-8.39246204318306,43.0609597924772,-27.9240100709544
1580422359.70258,-0.640878919661191,47.5165941863124,-25.4215304798961
1580422359.70657,-0.579842832074519,48.1879911497672,-22.0035095750361
1580422359.71056,-7.17174029144735,45.6855115587089,-18.7075608453497
1580422359.71456,-17.8530556191347,42.511635004196,-16.7544060425726
1580422359.71855,-28.5343709468223,40.4974441138322,-16.4492256046387
1580422359.72254,-34.2107270923934,41.0467689021132,-17.4258030060273
1580422359.72654,-28.1681544213016,45.929655909056,-19.0127412832837
1580422359.73053,-5.6458381017776,56.5499351491567,-19.8672465094987
1580422359.73452,29.0836957351032,72.297245746548,-18.5854886701761
1580422359.73852,63.0807965209433,86.8238345922027,-14.068818188754
1580422359.74251,81.3916227969789,92.9884794384679,-7.11070420386045
1580422359.7465,74.7386892500194,89.1432059205008,-0.0305180437933359
1580422359.7505,47.5776302738993,81.5136949721523,4.7913328755626
1580422359.75449,14.3129625391011,76.7528801403832,7.35484855420759
1580422359.75848,-10.2235446707866,75.6542305638209,9.67421988250544
1580422359.76247,-19.8062104219118,75.715266651408,12.664988174258
1580422359.76647,-19.8062104219118,75.1659418631266,15.777828641184
1580422359.77046,-19.6841382467383,74.1283283741514,18.0361638818952
1580422359.77445,-23.8956282902266,72.7244983596552,19.0127412832837
1580422359.77845,-31.8913557640956,70.6492713817047,19.5620660715647
1580422359.78244,-41.168841077287,67.3533226520181,20.355535210193
1580422359.78643,-50.873579003586,63.5690852216376,21.6983291371023
1580422359.79043,-61.3717860685131,60.3341725795376,23.5294117647059
1580422359.79442,-71.5648126955061,58.0148012512395,25.0553139543754
1580422359.79841,-80.0488288700694,57.2213321126114,26.1539635309375
1580422359.80241,-85.2368963149461,58.3199816891733,26.7643244068054
1580422359.8064,-86.0914015411611,60.7003891050581,26.6422522316318
1580422359.8104,-82.6123445487144,64.301518272679,26.1539635309375
1580422359.81439,-75.1049057755397,68.5740444037538,25.2384222171358
1580422359.81838,-64.6677347981995,73.0296787975894,23.773556115053
1580422359.82237,-52.8877698939498,76.9970244907304,21.8204013122759
1580422359.82637,-41.0467689021134,80.2319371328299,19.8062104219118
1580422359.83036,-30.8537422751201,82.8564888990618,17.8530556191347
1580422359.83435,-22.5528343633173,84.7486076142523,16.1440451667047
1580422359.83834,-14.8622873273823,86.3965819790951,14.923323414969
1580422359.84234,-7.17174029144735,87.861448081178,14.373998626688
1580422359.84633,1.37331197070262,88.7159533073932,14.3129625391011
1580422359.85032,10.2845807583733,89.0821698329137,14.7402151522087
1580422359.85432,17.6699473563745,89.5094224460213,15.6557564660104
1580422359.85831,21.759365224689,89.8146028839551,16.632333867399
1580422359.8623,22.7359426260775,90.3028915846494,17.3647669184404
1580422359.8663,21.6372930495154,91.0353246356908,17.9140917067216
1580422359.87029,20.2334630350194,91.5236133363851,18.0361638818952
1580422359.87428,20.1113908598459,92.3170824750136,17.6089112687876
1580422359.87828,21.5762569619287,92.9274433508813,16.9985503929197
1580422359.88227,24.2618448157473,93.5378042267494,15.9609369039445
1580422359.88627,27.0084687571525,94.3312733653775,14.8012512397954
1580422359.89026,28.9616235599296,94.9416342412451,13.3363851377126
1580422359.89425,29.6330205233844,94.9416342412451,11.810482948043
1580422359.89825,28.8395513847561,94.4533455405508,10.2845807583733
1580422359.90224,27.0084687571525,94.0871290150303,9.12489509422448
1580422359.90623,24.8111696040282,93.2326237888151,8.33142595559616
1580422359.91023,22.613870450904,91.889829861906,7.7821011673152
1580422359.91424,20.1113908598459,90.4249637598232,7.41588464179449
1580422359.91824,16.8764782177461,89.0821698329137,7.04966811627378
1580422359.92223,12.4818799114976,87.8004119935913,6.43930724040592
1580422359.92623,7.7821011673152,86.2134737163351,5.21858548867021
1580422359.93022,3.63164721141379,84.5654993514918,3.93682764934761
1580422359.93421,0.091554131380235,83.4058136873427,1.9226367589838
1580422359.93821,-3.50957503624022,82.185091935607,-0.335698481727377
1580422359.9422,-7.41588464179449,80.2319371328299,-2.10574502174404
1580422359.94619,-11.6273746852826,77.9125658045323,-3.99786373693451
1580422359.95019,-17.0595864805066,75.3490501258871,-5.82894636453807
1580422359.95418,-22.7969787136644,72.6634622720685,-6.98863202868688
1580422359.95817,-27.8019378957808,70.5271992065309,-7.84313725490188
1580422359.96217,-30.3044174868389,68.6961165789276,-8.02624551766235
1580422359.96616,-30.1213092240787,67.9636835278861,-7.66002899214163
1580422359.97015,-28.1681544213016,69.062333104448,-6.92759594110021
1580422359.97415,-26.5812161440451,71.3817044327461,-6.37827115281902
1580422359.97814,-25.1773861295489,74.189364461738,-8.51453421835663
1580422359.98213,-23.2242313267718,76.6918440527966,-13.3974212252995
1580422359.98613,-23.2852674143587,80.7202258335242,-5.09651331349664
1580422359.99012,-25.8487830930037,84.3823910887313,-1.0681315327688
1580422359.99411,-30.3654535744258,83.3447775997561,10.4066529335469
1580422359.9981,-33.5393301289389,82.185091935607,15.777828641184
1580422360.0021,-34.332799267567,79.4995040817885,19.0737773708704
1580422360.00609,-32.7458609903106,79.6826123445489,21.2710765239947
1580422360.01008,-29.1447318226901,80.1098649576566,22.7969787136644
1580422360.01408,-24.0787365529868,79.7436484321356,23.468375677119
1580422360.01807,-18.2803082322423,79.316395819028,23.773556115053
1580422360.02206,-11.7494468604561,80.3540093080037,23.2852674143587
1580422360.02606,-4.48615243762879,81.3916227969789,22.2476539253832
1580422360.03005,3.57061112382689,82.4902723735408,20.8438239108873
1580422360.03404,11.8715190356297,83.1616693369956,19.0127412832837
1580422360.03804,20.2944991226061,83.4058136873427,17.0595864805066
1580422360.04203,28.3512626840618,82.6733806363013,14.8012512397954
1580422360.04603,36.0418097199968,81.025406271458,12.7870603494316
1580422360.05002,42.7557793545432,78.7060349431604,10.5287251087204
1580422360.05401,48.6152437628748,75.898374914168,8.6366063935302
1580422360.05801,53.0098420691234,73.1517509727628,6.74448767833974
1580422360.062,55.8785381857019,70.8323796444652,4.91340505073617
1580422360.06599,56.7940794995038,69.0012970168614,3.38750286106665
1580422360.06999,56.0006103608757,67.2922865644314,1.98367284657047
1580422360.074,53.9864194705119,65.5832761120014,0.823987182421661
1580422360.078,50.5073624780648,63.752193484398,-0.274662394140478
1580422360.08199,45.6855115587089,61.5548943312733,-0.762951094834762
1580422360.08598,40.0701915007246,59.0524147402148,-1.31227588311594
1580422360.08998,34.2107270923932,56.3668268863962,-1.0681315327688
1580422360.09397,27.4967574578468,53.07087815671,-0.335698481727377
1580422360.09797,19.9893186846723,49.7138933394367,0.762951094834762
1580422360.10196,12.2987716487373,46.2348363469901,1.9226367589838
1580422360.10595,5.7068741893645,42.9388876173036,2.89921416037237
1580422360.10995,0.762951094834762,39.7650110627908,3.20439459830618
1580422360.11394,-2.41092545967808,37.1404592965589,3.08232242313261
1580422360.11793,-4.48615243762879,35.1262684061951,2.59403372243833
1580422360.12193,-5.95101853971164,33.173113603418,1.80056458381023
1580422360.12592,-7.11070420386045,31.2809948882275,0.762951094834762
1580422360.12991,-7.66002899214163,29.4499122606239,-0.152590218966907
1580422360.13391,-7.47692072938116,27.6798657206073,-0.823987182421661
1580422360.1379,-5.88998245212474,26.3981078812847,-1.43434805828952
1580422360.14189,-3.69268329900046,25.6046387426566,-1.55642023346309
1580422360.14589,-1.0070954451819,25.482566567483,-1.67849240863666
1580422360.14988,1.73952849622333,25.5436026550697,-1.49538414587619
1580422360.15387,4.11993591210808,25.6656748302432,-1.49538414587619
1580422360.15786,5.82894636453807,25.8487830930037,-1.55642023346309
1580422360.16186,6.92759594110021,26.2760357061111,-1.67849240863666
1580422360.16585,7.96520943007545,26.9474326695658,-2.04470893415737
1580422360.16984,9.4300755321583,27.8019378957808,-2.47196154726475
1580422360.17384,11.505302510109,29.0226596475165,-2.83817807278547
1580422360.17783,13.5805294880597,29.8161287861446,-3.26543068589308
1580422360.18182,15.6557564660104,30.3044174868389,-3.69268329900046
1580422360.18582,16.9985503929197,30.7316700999465,-3.93682764934761
1580422360.18981,18.0361638818952,30.609597924773,-4.05889982452118
1580422360.1938,18.8906691081102,29.755092698558,-4.30304417486832
1580422360.1978,19.6841382467383,28.046082246128,-4.42511635004189
1580422360.20179,21.1490043488211,25.9708552681773,-4.7913328755626
1580422360.20579,22.9800869764247,23.6514839398794,-5.15754940108332
1580422360.20978,25.1773861295489,20.8438239108873,-5.58480201419093
1580422360.21377,27.1305409323261,18.1582360570687,-6.07309071488521
1580422360.21776,28.6564431219958,15.777828641184,-6.74448767833974
1580422360.22176,29.5109483482108,13.519493400473,-7.53795681696806
1580422360.22575,29.2668039978637,11.2001220721752,-8.5755703059433
1580422360.22975,27.8019378957808,8.6366063935302,-9.91836423285258
1580422360.23373,25.5436026550697,6.80552376592664,-11.4442664225223
1580422360.23773,23.1631952391851,5.7068741893645,-12.7870603494316
1580422360.24172,21.3931486991683,5.21858548867021,-13.8246738384069
1580422360.24571,20.4776073853666,5.58480201419093,-14.4960708018616
1580422360.24971,19.7451743343252,6.56137941557949,-14.5571068894483
1580422360.2537,19.195849546044,7.47692072938116,-14.6181429770352
1580422360.25769,18.9517051956968,7.72106507972831,-14.4350347142747
1580422360.26169,18.2192721446554,7.41588464179449,-14.4960708018616
1580422360.26568,16.632333867399,7.35484855420759,-14.7402151522087
1580422360.26968,13.9467460135804,6.31723506523235,-15.1674677653161
1580422360.27367,9.91836423285258,4.7913328755626,-15.7167925535973
1580422360.27766,4.7913328755626,3.38750286106665,-16.0219729915311
1580422360.28166,-0.823987182421661,1.9226367589838,-16.2050812542916
1580422360.28565,-6.62241550316617,0.152590218966907,-16.5712977798123
1580422360.28964,-11.9935912108033,-1.25123979552905,-16.8764782177461
1580422360.29364,-16.083009079118,-1.31227588311594,-17.2426947432668
1580422360.29763,-18.7075608453497,-0.70191500724809,-17.2426947432668
1580422360.30162,-20.050354772259,-1.12916762035547,-16.8764782177461
1580422360.30562,-21.4541847867551,-3.26543068589308,-16.3271534294652
1580422360.30961,-23.5294117647059,-7.7821011673152,-15.4726482032502
1580422360.31363,-26.2760357061111,-14.1908903639276,-14.2519264515145
1580422360.31762,-29.3888761730373,-22.2476539253832,-12.7260242618447
1580422360.32162,-32.4406805523768,-31.0978866254673,-11.0170138094147
1580422360.32561,-35.3704127565425,-39.8870832379646,-9.12489509422448
1580422360.3296,-37.5677119096667,-48.310063324941,-7.23277637903402
1580422360.3336,-39.2156862745098,-55.8175020981155,-5.6458381017776
1580422360.33759,-40.0091554131382,-62.1652552071412,-4.42511635004189
1580422360.34158,-39.9481193255513,-67.4753948271916,-3.69268329900046
1580422360.34558,-38.6663614862289,-71.7479209582666,-3.38750286106665
1580422360.34957,-36.1638818951706,-75.4711223010604,-3.50957503624022
1580422360.35356,-32.5017166399634,-78.9501792935073,-3.93682764934761
1580422360.35756,-28.1071183337147,-82.6123445487144,-4.54718852521546
1580422360.36155,-23.4073395895323,-86.6407263294423,-5.52376592660403
1580422360.36554,-19.0127412832837,-91.2184328984511,-7.04966811627378
1580422360.36954,-15.6557564660104,-96.8947890440224,-9.30800335698473
1580422360.37353,-13.8246738384069,-103.669794766156,-12.359807736324
1580422360.37752,-14.068818188754,-111.665522240025,-16.6933699549859
1580422360.38152,-16.0219729915311,-121.553368429084,-22.2476539253832
1580422360.38551,-19.2568856336309,-133.21126115816,-29.3278400854504
1580422360.3895,-22.7969787136644,-146.089875638972,-38.056000610361
1580422360.39349,-25.6046387426566,-159.517814908065,-48.3710994125277
1580422360.39749,-26.8253604943923,-173.128862439918,-60.0900282291905
1580422360.40148,-25.1773861295489,-185.641260395209,-72.6024261844816
1580422360.40547,-19.6841382467383,-197.177080949111,-84.9927519645989
1580422360.40947,-9.36903944457163,-207.186999313344,-96.3454642557413
1580422360.41346,5.34065766384379,-215.671015487907,-105.561913481346
1580422360.41745,23.2852674143587,-222.934309910735,-112.153810940719
1580422360.42145,43.3051041428243,-229.770351720455,-115.9380483711
1580422360.42544,63.4470130464638,-234.04287785153,-117.097734035248
1580422360.42944,83.9551384756237,-232.883192187381,-115.999084458686
1580422360.43343,106.233310444801,-226.352330815595,-112.581063553826
1580422360.43742,132.478828107118,-216.647592889296,-106.355382619974
1580422360.44141,162.996871900511,-206.88181887541,-97.4441138323034
1580422360.44541,194.369420920119,-198.33676661326,-86.4576180666818
1580422360.4494,222.446021210041,-190.829327840085,-74.0062561989776
1580422360.4534,242.526894026093,-184.66468299382,-61.3107499809262
1580422360.45739,250.400549324788,-180.086976424811,-48.4321355001146
1580422360.46138,244.663157091631,-176.974135957885,-35.187304493782
1580422360.46538,229.404135194934,-174.288548104067,-21.2710765239947
1580422360.46937,208.896009765774,-170.62638284886,-7.47692072938116
1580422360.47339,186.251621271076,-163.485160601206,5.34065766384379
1580422360.47738,162.996871900511,-153.90249485008,16.5102616922254
1580422360.48137,140.169375143053,-144.380865186542,25.0553139543754
1580422360.48537,118.745708400092,-136.446173800259,30.609597924773
1580422360.48936,97.9934386205846,-129.7932402533,33.8445105668725
1580422360.49336,78.2177462424661,-125.215533684291,35.3093766689553
1580422360.49735,59.1744869153886,-123.018234531167,34.882124055848
1580422360.50134,41.3519493400472,-121.980621042191,32.5627527275501
1580422360.50534,24.4449530785075,-121.065079728389,29.0836957351032
1580422360.50933,8.88075074387734,-120.271610589761,24.628061341268
1580422360.51332,-5.21858548867021,-119.172961013199,19.7451743343252
1580422360.51732,-17.8530556191347,-118.01327534905,14.5571068894483
1580422360.52131,-28.5954070344089,-116.670481422141,9.36903944457163
1580422360.5253,-37.4456397344932,-115.388723582818,4.42511635004189
1580422360.5293,-44.7699702449074,-114.473182269017,0.213626306553806
1580422360.53329,-50.7515068284124,-114.168001831083,-3.44853894865332
1580422360.53728,-55.6954299229419,-114.77836270695,-6.31723506523235
1580422360.54128,-59.357595178149,-116.243228809033,-9.00282291905091
1580422360.54527,-61.5548943312733,-118.440527962158,-11.6273746852826
1580422360.54926,-62.4704356450752,-120.759899290455,-13.8246738384069
1580422360.55325,-62.6535439078355,-122.346837567712,-16.1440451667047
1580422360.55725,-62.1042191195545,-122.652018005646,-18.341344319829
1580422360.56124,-61.6159304188602,-121.919584954604,-20.2334630350194
1580422360.56523,-61.3717860685131,-120.210574502174,-22.3697261005568
1580422360.56923,-61.4938582436866,-117.952239261463,-24.6890974288547
1580422360.57322,-61.8600747692074,-115.327687495232,-27.3136491950866
1580422360.57721,-62.2873273823147,-112.88624399176,-29.9992370489051
1580422360.58121,-62.775616083009,-110.99412527657,-32.5627527275503
1580422360.5852,-63.2639047837033,-109.407186999313,-35.0652323186084
1580422360.58919,-63.3249408712902,-107.637140459297,-37.3846036469063
1580422360.59319,-62.7145799954224,-105.745021744106,-38.9715419241627
1580422360.59718,-60.8834973678188,-103.120469977875,-39.7039749752041
1580422360.60117,-58.0758373388267,-100.068665598535,-40.0701915007248
1580422360.60517,-54.4136720836195,-96.5285725185017,-39.5819028000305
1580422360.60916,-50.6294346532388,-92.5001907377737,-38.4832532234684
1580422360.61315,-47.0283054856184,-88.4107728694589,-36.896314946212
1580422360.61715,-44.0985732814527,-84.1992828259708,-34.637979705501
1580422360.62114,-42.328526741436,-79.7436484321354,-32.074464026856
1580422360.62514,-42.1454184786755,-75.3490501258868,-28.900587472343
1580422360.62913,-43.1219958800641,-70.466163118944,-25.1163500419623
1580422360.63315,-45.5634393835355,-65.1560234988938,-21.0269321736475
1580422360.63714,-49.0424963759824,-59.0524147402152,-16.3271534294652
1580422360.64113,-53.437094682231,-51.9722285801481,-11.6273746852826
1580422360.64513,-59.1134508278019,-44.037537193866,-6.62241550316617
1580422360.64912,-65.7663843747616,-35.5535210193027,-1.61745632104976
1580422360.65312,-72.9686427100023,-26.6422522316318,3.38750286106665
1580422360.65711,-80.5371175707637,-17.5478751812009,8.20935378042259
1580422360.6611,-87.5562676432439,-8.51453421835663,12.8480964370183
1580422360.6651,-94.453345540551,0.51880674448762,17.0595864805066
1580422360.66909,-101.289387350271,9.4911116197452,20.4165712977797
1580422360.67308,-108.613717860685,17.792019531548,23.1021591515982
1580422360.67708,-118.440527962158,24.8722056916151,26.4591439688716
1580422360.68107,-131.258106355383,30.4875257495994,29.0836957351032
1580422360.68506,-148.226138704509,33.9665827420461,28.900587472343
1580422360.68906,-169.893949797818,35.6145571068894,26.7643244068054
1580422360.69305,-194.674601358053,34.7600518806744,23.773556115053
1580422360.69704,-218.600747692073,31.8913557640954,21.5762569619287
1580422360.70104,-236.789501792935,28.5954070344089,20.355535210193
1580422360.70503,-244.235904478523,26.2149996185244,19.7451743343252
1580422360.70902,-237.705043106737,25.2384222171358,18.2803082322423
1580422360.71301,-214.328221560998,25.8487830930037,16.632333867399
1580422360.71701,-174.959945067521,28.4122987716487,15.4116121156633
1580422360.721,-123.3234149691,32.4406805523765,15.1064316777295
1580422360.72499,-65.0339513237202,37.4456397344929,15.9609369039445
1580422360.72899,-5.88998245212474,42.0843823910886,18.2803082322423
1580422360.73298,49.8970016021972,45.4413672083617,21.5762569619287
1580422360.73697,100.617990386816,46.784161135271,25.5436026550697
1580422360.74097,145.418478675517,46.2958724345767,29.5719844357975
1580422360.74496,182.711528191043,43.3051041428243,33.6614023041122
1580422360.74895,210.849164568551,38.5442893110551,37.5066758220796
1580422360.75295,226.962691691463,34.0886549172196,40.1312275883115
1580422360.75694,228.732738231479,32.8068970778972,41.4129854276339
1580422360.76093,215.915159838255,36.2249179827572,41.2298771648736
1580422360.76493,191.439688715954,44.7089341573203,40.0091554131379
1580422360.76892,160.189211871519,56.9771877622643,38.7273975738153
1580422360.77291,126.253147173266,69.9168383306633,38.0560006103608
1580422360.77691,91.7677576867322,80.2319371328299,37.9949645227739
1580422360.7809,58.0148012512395,85.0537880521861,38.8494697489889
1580422360.7849,26.337071793698,83.894102388037,40.1922636758982
1580422360.78889,-0.396734569314049,77.3022049286642,41.4129854276339
1580422360.79288,-19.501029983978,67.9636835278861,42.511635004196
1580422360.79687,-31.2809948882277,58.6861982146943,43.4882124055846
1580422360.80086,-37.6287479972534,51.36186770428,44.0375371938658
1580422360.80486,-40.0701915007248,46.7231250476843,44.220645456626
1580422360.80885,-39.3377584496834,44.5258258945601,43.6713206683451
1580422360.81284,-36.2249179827575,44.1596093690393,42.6947432669565
1580422360.81684,-31.0368505378804,44.5868619821467,41.1078049897001
1580422360.82083,-24.7501335164416,45.1361867704279,39.1546501869229
1580422360.82482,-18.4023804074159,45.1972228580146,37.5677119096665
1580422360.82882,-12.4208438239109,44.2816815442129,36.3469901579308
1580422360.83281,-6.92759594110021,42.6947432669565,35.6145571068894
1580422360.8368,-0.885023270008332,40.3143358510717,35.0041962310215
1580422360.8408,6.13412680247188,36.2859540703439,34.2107270923932
1580422360.84479,14.2519264515145,31.5251392385746,32.8068970778972
1580422360.84879,23.2242313267718,26.1539635309375,30.609597924773
1580422360.85278,32.7458609903103,19.195849546044,26.9474326695658
1580422360.85677,41.5960936903944,10.8339055466545,22.4307621881437
1580422360.86077,48.9204242008086,0.457770656900948,17.7309834439611
1580422360.86476,54.4136720836191,-12.7870603494316,13.3363851377126
1580422360.86875,56.0616464484624,-27.9850461585411,9.30800335698473
1580422360.87277,55.0850690470738,-45.746547646296,5.34065766384379
1580422360.87677,52.6436255436024,-66.0105287251088,0.335698481727377
1580422360.88076,48.9814602883953,-86.5796902418554,-5.6458381017776
1580422360.88475,45.3803311207751,-103.486686503395,-12.6039520866711
1580422360.88875,44.2816815442129,-114.717326619364,-19.8062104219118
1580422360.89274,45.6244754711222,-119.90539406424,-26.8863965819789
1580422360.89673,46.8451972228579,-119.356069275959,-32.9900053406577
1580422360.90073,44.2816815442129,-110.872053101396,-36.8352788586253
1580422360.90472,35.7366292820629,-91.279468986038,-37.4456397344932
1580422360.90871,23.2852674143587,-61.6769665064469,-34.637979705501
1580422360.91271,12.6039520866711,-28.046082246128,-28.7174792095825
1580422360.9167,8.6366063935302,3.57061112382689,-20.1724269474325
1580422360.92069,11.4442664225223,28.4122987716487,-9.18593118181116
1580422360.92469,18.646524757763,43.4882124055846,3.14335851071951
1580422360.92868,26.6422522316318,49.7138933394367,15.4726482032502
1580422360.93267,32.7458609903103,51.0566872663462,25.3604943923094
1580422360.93667,36.7742427710382,50.6904707408253,31.0368505378804
1580422360.94066,38.7273975738153,50.7515068284119,32.1355001144425
1580422360.94465,38.7273975738153,50.9346150911724,29.9382009613182
1580422360.94865,34.882124055848,50.6904707408253,26.337071793698
1580422360.95264,24.8722056916151,49.4087129015029,24.2618448157473
1580422360.95663,7.04966811627378,46.7231250476843,25.9708552681773
1580422360.96062,-16.7544060425726,43.2440680552374,32.6237888151368
1580422360.96462,-40.619516289006,40.9246967269396,43.4882124055846
1580422360.96861,-58.4420538643474,40.1312275883115,55.2681773098343
1580422360.9726,-68.6350804913404,37.0794232089722,65.2170595864809
1580422360.9766,-72.175173571374,27.8629739833675,70.6492713817047
1580422360.98059,-73.5790035858702,13.4584573128861,70.4661631189442
1580422360.98458,-77.7904936293583,0.152590218966907,64.5456626230261
1580422360.98858,-87.9224841687646,-7.35484855420759,53.8643472953381
1580422360.99257,-101.838712138552,-9.00282291905091,40.2532997634851
1580422360.99656,-114.106965743496,-6.13412680247188,25.9098191805904
1580422361.00056,-121.858548867018,0.0305180437933359,11.9325551232166
1580422361.00455,-124.483100633249,7.53795681696806,-0.091554131380235
1580422361.00855,-123.384451056687,13.8246738384069,-9.61318379491877
1580422361.01254,-118.928816662852,18.9517051956968,-16.2661173418783
1580422361.01653,-110.322728313115,23.1021591515982,-19.9893186846723
1580422361.02053,-96.8947890440224,26.5812161440451,-21.0879682612344
1580422361.02452,-79.1943236438544,29.5719844357975,-19.8062104219118
1580422361.02851,-58.8693064774548,32.1355001144425,-16.2661173418783
1580422361.03253,-38.4222171358817,34.3938353551537,-10.5897611963073
1580422361.03653,-19.1348134584573,36.0418097199968,-3.14335851071951
1580422361.04052,-2.34988937209118,37.6897840848401,5.34065766384379
1580422361.04451,10.955977721828,40.1312275883115,13.5805294880597
1580422361.0485,20.355535210193,44.0375371938658,20.5386434729533
1580422361.0525,26.5812161440451,49.5918211642634,25.7267109178301
1580422361.05649,32.5017166399632,57.0992599374376,28.4122987716487
1580422361.06049,41.3519493400472,65.9494926375223,29.3888761730373
1580422361.06448,55.7564660105286,75.9594110017551,29.8771648737315
1580422361.06847,76.0814831769285,86.2745098039218,30.6706340123596
1580422361.07247,100.007629510948,96.0402838178074,32.7458609903103
1580422361.07646,123.628595407034,104.34119172961,36.0418097199968
1580422361.08045,143.282215609979,109.956511787595,39.8870832379644
1580422361.08445,155.550469214923,113.374532692455,43.7933928435186
1580422361.08844,157.991912718395,114.534218356604,46.8451972228579
1580422361.09243,151.155870908675,112.947280079347,48.0659189745934
1580422361.09643,136.446173800259,108.918898298619,47.3945220111389
1580422361.10042,116.12115663386,102.754253452354,44.8920424200808
1580422361.10441,92.439154650187,95.7351033798736,41.3519493400472
1580422361.10841,67.9026474402995,88.9600976577403,37.1404592965589
1580422361.11243,44.9530785076674,83.1006332494089,32.2575722896161
1580422361.11642,25.482566567483,78.2787823300528,27.5577935454337
1580422361.12041,10.5897611963073,74.2504005493251,22.919050888838
1580422361.12441,-0.0305180437933359,70.9544518196385,18.7685969329366
1580422361.1284,-8.20935378042259,68.0857557030595,15.1064316777295
1580422361.13239,-15.228503852903,65.7053482871752,11.9325551232166
1580422361.13639,-22.0035095750361,63.5080491340509,9.18593118181116
1580422361.14038,-28.6564431219958,60.8834973678186,7.11070420386045
1580422361.14437,-34.9431601434349,58.197909514,5.7068741893645
1580422361.14837,-41.5960936903946,55.6343938353548,4.48615243762879
1580422361.15236,-47.6386663614862,53.7422751201648,3.63164721141379
1580422361.15635,-52.4605172808424,52.7656977187762,2.83817807278547
1580422361.16035,-54.5357442587931,52.6436255436024,1.98367284657047
1580422361.16434,-53.6202029449912,53.3150225070572,1.25123979552905
1580422361.16834,-49.6528572518503,54.7188525215533,1.0681315327688
1580422361.17233,-43.7933928435189,55.8175020981153,1.25123979552905
1580422361.17632,-37.6897840848403,56.7330434119172,2.22781719691761
1580422361.18032,-32.9900053406577,57.4044403753719,3.57061112382689
1580422361.18431,-29.6940566109711,57.9537651636529,5.34065766384379
1580422361.1883,-27.9850461585411,58.6861982146943,7.29381246662092
1580422361.19229,-26.8863965819789,59.4796673533224,9.18593118181116
1580422361.19628,-24.9332417792018,60.8224612802319,10.7728694590676
1580422361.20028,-21.6983291371023,62.4704356450748,12.4208438239109
1580422361.20427,-16.937514305333,64.6677347981995,13.7636377508202
1580422361.20826,-11.2001220721752,66.9871061264976,14.8012512397954
1580422361.21226,-5.40169375143046,69.7337300679028,15.2895399404897
1580422361.21625,0.457770656900948,72.9076066224156,15.4726482032502
1580422361.22024,6.19516289005878,76.3866636148623,15.7167925535973
1580422361.22424,11.0780498970016,80.1098649576566,16.2050812542916
1580422361.22823,15.228503852903,83.3447775997561,16.5712977798123
1580422361.23223,18.4634164950025,85.7862211032275,17.3037308308537
1580422361.23622,20.8438239108873,87.0069428549632,17.6699473563745
1580422361.24021,21.8814373998625,87.0069428549632,17.0595864805066
1580422361.24421,21.5152208743418,86.0303654535746,16.9985503929197
1580422361.2482,19.6231021591516,85.0537880521861,17.4258030060273
1580422361.25219,16.7544060425726,83.7109941252766,17.1206225680933
1580422361.25619,13.5805294880597,82.0630197604337,16.6933699549859
1580422361.26018,11.9325551232166,80.4150453955904,15.4726482032502
1580422361.26417,11.3221942473488,79.133287556268,15.8388647287709
1580422361.26817,11.9935912108033,78.1567101548794,15.228503852903
1580422361.27219,14.4960708018616,76.7528801403832,13.3974212252995
1580422361.27618,19.195849546044,76.5697718776228,6.92759594110021
1580422361.28017,27.9240100709544,76.1425192645152,-15.9609369039445
1580422361.28417,34.6379797055008,77.3022049286642,-2.04470893415737
1580422361.28816,35.3704127565422,87.0069428549632,7.72106507972831
1580422361.29215,36.8352788586251,82.551308461128,9.30800335698473
1580422361.29615,39.3987945372701,78.8281071183337,9.73525597009234
1580422361.30014,42.9999237048903,80.0488288700694,9.4911116197452
1580422361.30413,46.784161135271,81.5747310597394,8.94178683146401
1580422361.30813,50.8125429159991,82.4292362859542,8.27038986800949
1580422361.31212,54.1084916456853,82.7954528114751,7.96520943007545
1580422361.31611,56.4278629739833,83.1616693369956,7.90417334248878
1580422361.32011,58.0148012512395,83.1616693369956,8.20935378042259
1580422361.3241,59.1134508278019,83.1006332494089,9.30800335698473
1580422361.32809,58.197909514,82.8564888990618,10.8339055466545
1580422361.33209,54.9629968719005,82.0019836728466,12.7870603494316
1580422361.33608,48.4321355001143,81.2085145342185,14.6791790646218
1580422361.34008,39.3987945372701,80.5981536583508,16.5102616922254
1580422361.34407,29.0836957351032,79.9267566948961,17.9140917067216
1580422361.34806,18.9517051956968,79.0722514686809,18.5854886701761
1580422361.35205,9.85732814526591,77.9736018921189,18.9517051956968
1580422361.35604,1.49538414587619,76.0814831769285,18.9517051956968
1580422361.36004,-6.5003433279926,74.3724727244985,18.5244525825894
1580422361.36403,-13.8246738384069,73.2127870603495,17.792019531548
1580422361.36802,-19.9893186846723,72.6634622720685,16.6933699549859
1580422361.37202,-24.3839169909209,72.5413900968952,15.5336842908368
1580422361.37601,-27.0084687571525,72.7855344472423,14.4960708018616
1580422361.38,-28.4122987716487,72.9076066224156,13.5805294880597
1580422361.384,-29.6940566109711,72.5413900968952,12.9701686121919
1580422361.38799,-30.5485618371861,72.297245746548,12.664988174258
1580422361.39199,-31.1589227130539,72.6024261844818,12.7870603494316
1580422361.39598,-30.9147783627068,73.1517509727628,12.9091325246052
1580422361.39997,-29.755092698558,73.7010757610437,13.3974212252995
1580422361.40397,-27.1305409323261,74.0672922865647,13.7026016632333
1580422361.40796,-23.5294117647059,74.4335088120852,14.1908903639276
1580422361.41195,-19.2568856336309,74.3724727244985,14.6791790646218
1580422361.41595,-14.8012512397954,74.3114366369118,14.923323414969
1580422361.41994,-9.91836423285258,74.2504005493251,15.0453955901426
1580422361.42393,-4.60822461280236,74.1283283741514,14.8012512397954
1580422361.42793,0.640878919661191,73.7621118486309,14.2519264515145
1580422361.43194,5.88998245212474,73.0296787975894,13.214312962539
1580422361.43594,10.5897611963073,72.1141374837875,12.1766994735638
1580422361.43993,14.7402151522087,70.771343556878,10.5897611963073
1580422361.44393,18.0971999694818,69.1844052796218,9.12489509422448
1580422361.44792,20.9658960860609,67.2312504768447,7.41588464179449
1580422361.45191,24.0787365529868,64.9118791485466,6.01205462729831
1580422361.45591,26.8863965819789,62.1042191195543,4.7913328755626
1580422361.4599,29.1447318226901,58.9303425650414,3.57061112382689
1580422361.46389,30.609597924773,55.3902494850076,2.7161058976119
1580422361.46789,31.0368505378804,52.0332646677348,1.80056458381023
1580422361.47188,30.3654535744258,49.042496375982,0.885023270008332
1580422361.47587,28.9616235599296,46.6620889600974,0.091554131380235
1580422361.47987,26.5812161440451,45.0141145952543,-0.640878919661191
1580422361.48386,24.3839169909209,43.7933928435186,-1.12916762035547
1580422361.48785,23.0411230640116,42.6947432669565,-1.55642023346309
1580422361.49185,22.7359426260775,41.657129777981,-2.04470893415737
1580422361.49584,22.4917982757304,40.9246967269396,-2.28885328450451
1580422361.49984,22.0035095750361,40.5584802014189,-2.65506981002522
1580422361.50383,20.7217517357137,40.1312275883115,-3.02128633554594
1580422361.50782,19.0127412832837,39.3377584496832,-3.26543068589308
1580422361.51181,17.3037308308537,38.239108873121,-3.32646677347975
1580422361.5158,16.083009079118,36.7742427710382,-3.50957503624022
1580422361.5198,15.7167925535973,34.882124055848,-3.75371938658736
1580422361.52379,15.777828641184,33.0510414282444,-3.87579156176093
1580422361.52778,16.0219729915311,31.5861753261615,-4.11993591210808
1580422361.53178,16.1440451667047,30.2433813992523,-4.60822461280236
1580422361.53577,16.6933699549859,28.7174792095825,-4.91340505073617
1580422361.53976,17.8530556191347,27.1305409323261,-5.09651331349664
1580422361.54376,18.7685969329366,25.2384222171358,-5.27962157625689
1580422361.54775,19.6231021591516,23.1021591515982,-5.27962157625689
1580422361.55174,19.9893186846723,20.904859998474,-5.03547722590974
1580422361.55574,19.6841382467383,18.341344319829,-4.73029678797593
1580422361.55973,18.7075608453497,16.3881895170518,-4.24200808728165
1580422361.56373,17.3037308308537,14.9843595025559,-3.57061112382689
1580422361.56772,15.4726482032502,13.6415655756466,-2.7771419851988
1580422361.57171,13.7636377508202,12.2987716487373,-1.9226367589838
1580422361.57571,12.1766994735638,10.8339055466545,-1.19020370794237
1580422361.5797,11.3832303349354,9.61318379491877,-0.579842832074519
1580422361.58369,11.505302510109,8.39246204318306,-0.274662394140478
1580422361.58769,12.1156633859769,7.47692072938116,-0.152590218966907
1580422361.5917,12.7260242618447,7.23277637903402,-0.51880674448762
1580422361.5957,12.9091325246052,6.98863202868688,-1.0070954451819
1580422361.59969,12.4818799114976,6.56137941557949,-1.73952849622333
1580422361.60368,12.2377355611504,6.37827115281902,-2.59403372243833
1580422361.60768,12.2987716487373,6.19516289005878,-3.57061112382689
1580422361.61167,12.9701686121919,6.25619897764545,-4.30304417486832
1580422361.61567,14.373998626688,6.5003433279926,-4.7913328755626
1580422361.61966,16.1440451667047,6.86655985351331,-5.27962157625689
1580422361.62365,17.9751277943083,7.04966811627378,-5.52376592660403
1580422361.62765,19.1348134584573,6.68345159075307,-5.88998245212474
1580422361.63164,19.501029983978,5.76791027695117,-6.43930724040592
1580422361.63563,18.9517051956968,4.73029678797593,-7.17174029144735
1580422361.63963,17.9140917067216,3.57061112382689,-8.08728160524902
1580422361.64362,16.9985503929197,2.16678110933094,-9.18593118181116
1580422361.64761,16.6933699549859,0.51880674448762,-10.2845807583733
1580422361.65161,16.8764782177461,-0.885023270008332,-11.4442664225223
1580422361.6556,17.9140917067216,-2.04470893415737,-12.5429159990845
1580422361.6596,19.3179217212175,-2.89921416037237,-13.5805294880597
1580422361.66359,20.904859998474,-3.69268329900046,-14.5571068894483
1580422361.66758,22.6749065384909,-4.73029678797593,-15.1064316777295
1580422361.67157,24.628061341268,-6.13412680247188,-15.5336842908368
1580422361.67556,26.2760357061111,-7.7821011673152,-15.6557564660104
1580422361.67956,27.6188296330204,-10.1625085831997,-15.777828641184
1580422361.68355,27.9850461585411,-13.3363851377126,-15.3505760280766
1580422361.68754,26.5812161440451,-17.2426947432668,-14.9843595025559
1580422361.69154,23.6514839398794,-21.6372930495154,-14.2519264515145
1580422361.69553,19.9282825970854,-26.7643244068054,-13.519493400473
1580422361.69952,16.4492256046387,-33.0510414282446,-12.6039520866711
1580422361.70352,13.4584573128861,-39.6429388876174,-11.6273746852826
1580422361.70751,10.8949416342411,-46.3569085221638,-10.8949416342411
1580422361.7115,8.39246204318306,-52.9488059815367,-10.2235446707866
1580422361.7155,6.13412680247188,-59.2965590905624,-9.79629205767901
1580422361.71949,3.99786373693451,-64.6677347981995,-9.4911116197452
1580422361.72348,2.22781719691761,-68.8181887541009,-9.61318379491877
1580422361.72748,0.640878919661191,-72.0531013962004,-9.97940032043948
1580422361.73147,-0.823987182421661,-75.1049057755397,-10.3456168459602
1580422361.73547,-2.53299763485165,-78.2177462424659,-10.8339055466545
1580422361.73946,-4.54718852521546,-81.4526588845654,-11.7494468604561
1580422361.74345,-7.53795681696806,-84.7486076142518,-12.9091325246052
1580422361.74745,-11.0780498970016,-88.3497367818723,-14.4960708018616
1580422361.75143,-14.5571068894483,-92.133974212253,-16.5712977798123
1580422361.75543,-17.6089112687876,-96.8337529564355,-19.1348134584573
1580422361.75942,-19.3789578088044,-101.655603875792,-22.1255817502097
1580422361.76341,-19.9282825970854,-107.087815671016,-25.482566567483
1580422361.76741,-19.195849546044,-112.642099641413,-29.0836957351032
1580422361.7714,-17.6699473563745,-118.01327534905,-32.928969253071
1580422361.77539,-15.5947203784237,-123.384451056687,-36.896314946212
1580422361.77939,-12.9091325246052,-128.877698939498,-41.0467689021134
1580422361.78338,-9.12489509422448,-134.370946822309,-45.2582589456017
1580422361.78738,-4.60822461280236,-139.253833829252,-49.3476768139162
1580422361.79137,-0.579842832074519,-144.380865186542,-53.2539864194705
1580422361.79536,2.28885328450451,-149.874113069352,-56.9161516746776
1580422361.79936,3.87579156176093,-156.527046616312,-60.0289921416038
1580422361.80335,5.58480201419093,-163.79034103914,-62.2262912947281
1580422361.80734,9.06385900663759,-170.62638284886,-63.5690852216374
1580422361.81134,15.228503852903,-176.668955519951,-63.8132295719845
1580422361.81533,24.9332417792018,-181.368734264134,-63.3249408712902
1580422361.81932,37.3235675593194,-184.359502555886,-61.8600747692074
1580422361.82332,50.5073624780648,-184.969863431754,-59.9069199664302
1580422361.82731,63.0807965209433,-184.542610818647,-57.4654764629588
1580422361.83133,74.4335088120852,-183.077744716564,-54.5967803463798
1580422361.83532,84.0161745632108,-179.72075989929,-50.9956511787595
1580422361.83932,92.1950102998399,-175.631342030976,-46.5400167849241
1580422361.84331,98.725871671626,-171.480888075075,-41.7792019531548
1580422361.8473,104.036011291676,-169.10048065919,-36.7132066834517
1580422361.8513,108.247501335165,-168.612191958495,-31.5861753261618
1580422361.85529,110.200656137942,-168.490119783322,-26.9474326695658
1580422361.85928,109.407186999314,-167.513542381933,-22.919050888838
1580422361.86328,105.317769130999,-165.438315403983,-19.5620660715647
1580422361.86727,98.4817273212789,-162.44754711223,-16.632333867399
1580422361.87126,90.0587472343022,-159.212634470131,-14.068818188754
1580422361.87526,81.025406271458,-156.649118791486,-11.9935912108033
1580422361.87925,72.4193179217214,-154.329747463187,-10.4676890211338
1580422361.88324,64.9118791485466,-151.522087434195,-10.0404364080262
1580422361.88724,59.1744869153886,-147.676813916228,-10.3456168459602
1580422361.89123,55.5733577477681,-142.854962996872,-11.3221942473488
1580422361.89522,53.9253833829248,-137.911039902342,-12.5429159990845
1580422361.89922,52.2774090180819,-133.699549858854,-13.3974212252995
1580422361.90321,48.6762798504615,-130.403601129168,-13.519493400473
1580422361.90721,42.0233463035017,-128.206301976043,-13.0922407873654
1580422361.91119,32.5017166399632,-126.37521934844,-12.1766994735638
1580422361.91519,22.4307621881437,-124.910353246357,-10.7118333714809
1580422361.91918,13.7026016632333,-123.567559319448,-8.45349813076973
1580422361.92317,7.53795681696806,-122.102693217365,-6.07309071488521
1580422361.92717,4.60822461280236,-120.454718852522,-3.81475547417404
1580422361.93116,3.32646677347975,-119.111924925612,-1.80056458381023
1580422361.93515,2.65506981002522,-118.257419699397,-0.091554131380235
1580422361.93915,1.55642023346309,-117.952239261463,0.762951094834762
1580422361.94314,-0.091554131380235,-118.257419699397,1.0070954451819
1580422361.94713,-2.34988937209118,-118.867780575265,0.51880674448762
1580422361.95113,-4.18097199969475,-119.661249713893,-0.762951094834762
1580422361.95512,-5.21858548867021,-120.088502327001,-2.65506981002522
1580422361.95912,-5.40169375143046,-120.210574502174,-5.03547722590974
1580422361.96311,-4.91340505073617,-119.844357976654,-7.7821011673152
1580422361.9671,-3.81475547417404,-118.684672312505,-10.8949416342411
1580422361.9711,-2.41092545967808,-116.853589684901,-13.7636377508202
1580422361.97509,-0.70191500724809,-114.473182269017,-16.3271534294652
1580422361.97908,1.31227588311594,-111.848630502785,-18.5244525825894
1580422361.98308,3.08232242313261,-109.040970473793,-20.2944991226061
1580422361.98707,5.03547722590974,-106.294346532387,-21.5152208743418
1580422361.99109,6.74448767833974,-103.547722590982,-22.1255817502097
1580422361.99508,7.66002899214163,-101.228351262684,-21.9424734874494
1580422361.99908,7.90417334248878,-99.1531242847334,-21.1490043488211
1580422362.00307,6.62241550316617,-97.3830777447167,-20.1113908598459
1580422362.00706,3.57061112382689,-95.5519951171132,-18.8906691081102
1580422362.01106,-1.31227588311594,-93.4157320515753,-17.3647669184404
1580422362.01505,-8.27038986800949,-91.279468986038,-15.5947203784237
1580422362.01904,-17.1206225680933,-88.6549172198061,-13.7636377508202
1580422362.02304,-27.1305409323261,-85.7251850156404,-11.9325551232166
1580422362.02703,-38.4832532234684,-82.6733806363011,-9.85732814526591
1580422362.03102,-50.3242542153048,-79.4995040817882,-7.47692072938116
1580422362.03502,-62.4704356450752,-76.0814831769283,-5.03547722590974
1580422362.03901,-74.5555809872587,-72.5413900968947,-2.96025024795904
1580422362.043,-86.2745098039215,-68.6350804913404,-1.0070954451819
1580422362.047,-97.3220416571298,-64.0573739223316,0.457770656900948
1580422362.05099,-107.454032196536,-58.8082703898681,1.73952849622333
1580422362.05499,-116.12115663386,-52.8267338063631,2.7771419851988
1580422362.05898,-123.628595407034,-46.0517280842298,3.75371938658736
1580422362.06297,-129.97634851606,-38.9715419241627,4.60822461280236
1580422362.06696,-135.957885099565,-31.8913557640956,5.52376592660403
1580422362.07095,-142.427710383764,-24.5670252536811,6.62241550316617
1580422362.07495,-149.568932631418,-17.1816586556802,7.84313725490188
1580422362.07894,-157.015335317006,-10.0404364080262,9.06385900663759
1580422362.08293,-163.363088426032,-3.38750286106665,10.650797283894
1580422362.08693,-167.57457846952,2.65506981002522,12.664988174258
1580422362.09092,-168.368047608148,7.72106507972831,15.2895399404897
1580422362.09491,-165.194171053636,11.8715190356297,18.4023804074159
1580422362.09891,-158.541237506676,15.5336842908368,21.8814373998625
1580422362.1029,-149.324788281071,18.5854886701761,25.7877470054168
1580422362.10689,-138.094148165103,21.1490043488211,29.9382009613182
1580422362.11089,-125.703822384985,23.8956282902266,33.3562218661782
1580422362.11488,-112.275883115892,26.8253604943923,35.7976653696496
1580422362.11888,-96.7727168688489,30.0602731364918,37.0794232089722
1580422362.12287,-77.9736018921187,33.9665827420461,37.2625314717325
1580422362.12686,-55.7564660105288,38.6663614862287,36.530098420691
1580422362.13086,-30.1823453116654,44.0375371938658,35.3093766689553
1580422362.13485,-3.02128633554594,48.6762798504615,33.9665827420461
1580422362.13884,24.322880903334,51.6060120546272,32.6848249027237
1580422362.14284,50.3242542153048,52.6436255436024,31.8303196765087
1580422362.14683,74.6166170748456,52.5825894560157,31.7082475013351
1580422362.15082,97.6272220950636,52.8267338063629,32.1355001144425
1580422362.15481,119.783321889067,53.3150225070572,33.173113603418
1580422362.1588,140.779736018921,53.9253833829248,34.8210879682611
1580422362.1628,159.517814908064,55.1461051346605,36.6521705958646
1580422362.16679,173.617151140612,56.3057907988095,38.4832532234682
1580422362.17078,180.453192950332,56.8551155870905,39.8260471503775
1580422362.17478,177.767605096513,56.6720073243305,40.3143358510717
1580422362.17877,163.485160601205,56.1837186236362,39.7650110627908
1580422362.18277,137.178606851301,55.7564660105286,38.5442893110551
1580422362.18676,101.045242999924,55.3902494850076,36.3469901579308
1580422362.19075,59.357595178149,53.4370946822305,34.1496910048065
1580422362.19475,17.1816586556802,49.042496375982,32.1965362020294
1580422362.19874,-20.2944991226061,41.9623102159151,30.4875257495994
1580422362.20273,-50.2021820401312,32.7458609903103,29.0836957351032
1580422362.20673,-70.2220187685969,22.3697261005568,27.6188296330204
1580422362.21072,-79.7436484321354,11.6273746852826,26.2149996185244
1580422362.21471,-80.4760814831768,1.37331197070262,24.9942778667887
1580422362.21871,-75.593194476234,-7.29381246662092,23.8956282902266
1580422362.2227,-68.3299000534066,-13.6415655756466,22.9800869764247
1580422362.22669,-60.5783169298847,-17.486839093614,22.4307621881437
1580422362.23071,-51.9111924925612,-19.2568856336309,22.064545662623
1580422362.23471,-41.2298771648739,-19.2568856336309,22.064545662623
1580422362.2387,-28.4122987716487,-17.9140917067216,22.3697261005568
1580422362.24269,-14.068818188754,-15.8999008163576,23.2242313267718
1580422362.24669,0.823987182421661,-13.4584573128861,24.2008087281604
1580422362.25068,14.5571068894483,-11.2611581597619,25.0553139543754
1580422362.25467,26.3981078812847,-9.79629205767901,25.482566567483
1580422362.25867,35.9197375448232,-8.94178683146401,25.482566567483
1580422362.26266,42.0233463035017,-8.51453421835663,24.5670252536811
1580422362.26665,44.9530785076674,-8.33142595559616,22.7359426260775
1580422362.27065,44.4037537193865,-8.39246204318306,20.355535210193
1580422362.27464,41.0467689021132,-8.69764248111687,17.1816586556802
1580422362.27864,36.1028458075837,-9.4911116197452,13.9467460135804
1580422362.28263,30.6706340123596,-10.7118333714809,11.0780498970016
1580422362.28662,26.6422522316318,-12.359807736324,9.00282291905091
1580422362.29061,24.628061341268,-13.519493400473,8.20935378042259
1580422362.29461,23.9566643778132,-13.8246738384069,8.5755703059433
1580422362.2986,24.7501335164416,-13.7026016632333,10.0404364080262
1580422362.3026,26.6422522316318,-14.6181429770352,12.4208438239109
1580422362.30659,28.7174792095825,-16.7544060425726,15.5947203784237
1580422362.31058,30.1823453116654,-19.8062104219118,19.0737773708704
1580422362.31457,30.6706340123596,-21.5762569619287,23.1631952391851
1580422362.31856,30.1823453116654,-20.5386434729533,27.0695048447394
1580422362.32256,28.7174792095825,-15.8999008163576,30.8537422751201
1580422362.32655,24.5059891660944,-7.96520943007545,34.0886549172196
1580422362.33054,16.3271534294652,1.73952849622333,36.4690623331044
1580422362.33454,3.50957503624022,11.9325551232166,38.0560006103608
1580422362.33853,-12.1156633859769,22.3086900129701,38.3001449607079
1580422362.34253,-26.4591439688716,31.5861753261615,37.6897840848401
1580422362.34652,-36.346990157931,39.3987945372701,36.530098420691
1580422362.35051,-40.2532997634853,45.7465476462958,35.3093766689553
1580422362.35451,-39.8260471503777,49.8359655146105,34.5769436179139
1580422362.3585,-37.9949645227741,51.4229037918667,34.2107270923932
1580422362.36249,-37.6897840848403,50.2632181277177,33.4172579537651
1580422362.36649,-39.2156862745098,46.2958724345767,31.9523918516823
1580422362.37048,-42.023346303502,39.3987945372701,30.1213092240787
1580422362.37447,-45.3803311207753,30.1213092240787,28.3512626840618
1580422362.37847,-49.5918211642634,21.1490043488211,26.8863965819789
1580422362.38246,-53.6202029449912,15.4726482032502,26.0318913557639
1580422362.38645,-56.7330434119174,14.4960708018616,25.7267109178301
1580422362.39047,-56.9771877622645,18.341344319829,26.337071793698
1580422362.39447,-54.4747081712062,26.2149996185244,27.4967574578468
1580422362.39846,-50.1411459525445,35.6755931944761,28.4122987716487
1580422362.40245,-45.9906919966431,44.8920424200808,28.1681544213016
1580422362.40645,-43.1219958800641,52.8267338063629,26.4591439688716
1580422362.41044,-41.2298771648739,59.6017395284962,23.6514839398794
1580422362.41443,-40.2532997634853,64.9118791485466,20.355535210193
1580422362.41843,-40.1922636758984,68.5130083161671,17.6699473563745
1580422362.42242,-40.9857328145267,70.1609826810104,15.777828641184
1580422362.42641,-41.9623102159153,70.0389105058366,14.7402151522087
1580422362.43041,-41.7792019531548,68.9402609292747,14.8622873273823
1580422362.4344,-40.314335851072,66.9871061264976,15.777828641184
1580422362.43839,-37.5066758220798,63.9963378347452,17.4258030060273
1580422362.44239,-34.0276188296332,60.3952086671243,19.8062104219118
1580422362.44638,-30.4264896620125,56.9771877622643,22.7969787136644
1580422362.45037,-27.191577019913,54.4136720836191,26.0318913557639
1580422362.45437,-24.6890974288547,52.8267338063629,29.2057679102768
1580422362.45836,-23.2242313267718,52.8267338063629,31.7692835889218
1580422362.46235,-22.613870450904,54.6578164339662,33.4172579537651
1580422362.46635,-21.8814373998625,58.5030899519338,33.5393301289387
1580422362.47034,-19.3179217212175,63.5080491340509,31.8303196765087
1580422362.47433,-12.7870603494316,68.3299000534066,28.900587472343
1580422362.47832,-2.10574502174404,72.9686427100023,25.3604943923094
1580422362.48232,12.8480964370183,77.1190966659037,21.9424734874494
1580422362.48631,30.8537422751201,81.1474784466318,18.8906691081102
1580422362.4903,49.3476768139162,84.5654993514918,16.3881895170518
1580422362.4943,66.0715648126957,87.678339818418,14.3129625391011
1580422362.49829,78.8891432059208,90.6080720225837,12.5429159990845
1580422362.50229,86.0914015411613,92.6832990005341,10.955977721828
1580422362.50628,87.3731593804837,93.1105516136417,9.36903944457163
1580422362.51027,82.8564888990618,91.5846494239722,7.59899290455473
1580422362.51426,73.8231479362175,88.4718089570461,5.82894636453807
1580422362.51826,61.6769665064467,84.8096437018389,4.36408026245522
1580422362.52225,48.6152437628748,80.842298008698,3.38750286106665
1580422362.52625,35.5535210193025,77.2411688410775,2.7771419851988
1580422362.53024,23.2242313267718,74.3724727244985,2.89921416037237
1580422362.53423,12.0546272983902,72.297245746548,3.26543068589308
1580422362.53823,2.47196154726475,71.1985961699856,3.93682764934761
1580422362.54222,-5.46272983901736,70.8934157320518,4.97444113832307
1580422362.54621,-11.9325551232166,70.5271992065309,6.19516289005878
1580422362.55023,-17.486839093614,69.5506218051423,7.7821011673152
1580422362.55422,-23.2852674143587,67.8416113527123,9.18593118181116
1580422362.55822,-30.0602731364918,66.010528725109,10.7118333714809
1580422362.56221,-37.6897840848403,64.301518272679,11.6273746852826
1580422362.56621,-45.1972228580148,62.8976882581828,12.1766994735638
1580422362.5702,-51.6060120546274,61.7380025940333,12.5429159990845
1580422362.57419,-56.5499351491569,61.0055695429919,12.7260242618447
1580422362.57819,-59.7848477912567,60.2731364919505,12.9091325246052
1580422362.58218,-61.2497138933395,59.357595178149,12.9701686121919
1580422362.58617,-61.2497138933395,58.197909514,12.664988174258
1580422362.59017,-60.4562447547112,57.5265125505452,12.2377355611504
1580422362.59416,-59.1134508278019,56.7330434119172,11.7494468604561
1580422362.59815,-57.3434042877852,56.1226825360491,11.3832303349354
1580422362.60215,-55.3902494850081,55.6343938353548,10.8949416342411
1580422362.60614,-52.5215533684291,55.2681773098343,10.4066529335469
1580422362.61013,-48.6762798504617,54.9019607843134,10.1625085831997
1580422362.61413,-43.0609597924774,54.5357442587929,9.97940032043948
1580422362.61812,-35.9807736324103,54.5357442587929,10.4066529335469
1580422362.62211,-27.4967574578468,55.329213397421,10.2235446707866
1580422362.62611,-18.5854886701761,56.1226825360491,10.2235446707866
1580422362.6301,-9.91836423285258,56.9771877622643,11.2001220721752
1580422362.63409,-2.16678110933094,58.3199816891733,11.5663385976959
1580422362.63808,4.60822461280236,59.6017395284962,12.1766994735638
1580422362.64208,10.3456168459602,60.8224612802319,13.4584573128861
1580422362.64607,15.4726482032502,62.5314717326623,14.4960708018616
1580422362.65006,20.355535210193,63.6911573968109,15.5336842908368
1580422362.65406,24.5670252536811,63.752193484398,16.8154421301595
1580422362.65805,28.4733348592354,63.8132295719847,17.3647669184404
1580422362.66204,31.2199588006408,63.14183260853,17.5478751812009
1580422362.66604,33.3562218661782,63.0807965209433,17.7309834439611
1580422362.67003,35.1873044937818,63.3249408712904,16.5102616922254
1580422362.67402,38.0560006103608,62.7756160830095,8.6366063935302
1580422362.67802,42.8778515297167,61.9211108567938,-6.98863202868688
1580422362.68201,45.8075837338824,62.0431830319676,3.50957503624022
1580422362.686,43.0609597924772,68.879224841688,12.664988174258
1580422362.69,41.1078049897001,63.4470130464638,13.6415655756466
1580422362.69399,40.1922636758982,59.6627756160829,12.9091325246052
1580422362.69799,40.802624551766,61.1276417181657,11.5663385976959
1580422362.70198,42.2064545662622,62.7756160830095,9.97940032043948
1580422362.70597,43.9765011062789,63.2639047837038,8.45349813076973
1580422362.70996,45.0141145952543,63.2028686961166,7.17174029144735
1580422362.71395,44.7699702449072,62.7756160830095,6.31723506523235
1580422362.71795,43.1219958800639,61.6769665064467,5.58480201419093
1580422362.72194,40.6195162890058,60.8834973678186,5.21858548867021
1580422362.72593,37.5677119096665,60.0900282291905,4.91340505073617
1580422362.72993,34.027618829633,59.1744869153886,5.03547722590974
1580422362.73392,30.2433813992523,58.4420538643471,5.27962157625689
1580422362.73792,26.2149996185244,58.1368734264133,5.58480201419093
1580422362.74191,22.1866178377966,58.0758373388262,5.95101853971164
1580422362.7459,18.341344319829,58.5030899519338,6.62241550316617
1580422362.7499,14.7402151522087,59.4186312657357,7.41588464179449
1580422362.75389,11.6273746852826,60.456244754711,8.27038986800949
1580422362.75788,8.39246204318306,61.5548943312733,9.06385900663759
1580422362.76188,5.40169375143046,62.4704356450748,9.79629205767901
1580422362.76587,2.22781719691761,63.2028686961166,10.4066529335469
1580422362.76986,-0.823987182421661,63.8132295719847,10.650797283894
1580422362.77386,-3.81475547417404,64.2404821850923,10.650797283894
1580422362.77785,-6.74448767833974,64.6066987106128,10.2845807583733
1580422362.78184,-9.61318379491877,64.5456626230261,9.73525597009234
1580422362.78584,-12.5429159990845,64.4846265354395,8.94178683146401
1580422362.78986,-15.3505760280766,64.3625543602657,7.90417334248878
1580422362.79385,-17.9751277943083,64.1184100099185,6.86655985351331
1580422362.79784,-20.5386434729533,63.6301213092243,5.76791027695117
1580422362.80184,-23.1021591515982,63.0807965209433,4.7913328755626
1580422362.80583,-25.6046387426566,62.4093995574881,4.18097199969475
1580422362.80982,-28.1071183337147,61.9821469443805,3.69268329900046
1580422362.81382,-30.1823453116654,61.61593041886,3.57061112382689
1580422362.81781,-31.2809948882277,61.1276417181657,3.57061112382689
1580422362.8218,-31.4030670634013,60.2731364919505,4.11993591210808
1580422362.8258,-31.2199588006408,58.4420538643471,4.73029678797593
1580422362.82979,-30.3044174868389,56.1837186236362,5.52376592660403
1580422362.83378,-28.5343709468223,54.4136720836191,6.43930724040592
1580422362.83778,-25.5436026550697,53.07087815671,7.29381246662092
1580422362.84177,-21.6983291371023,52.2163729304948,8.33142595559616
1580422362.84576,-16.937514305333,52.5825894560157,9.24696726939806
1580422362.84976,-11.3832303349354,53.620202944991,10.1014724956131
1580422362.85375,-5.82894636453807,54.7188525215533,11.0170138094147
1580422362.85774,-0.213626306553806,55.5733577477681,11.9935912108033
1580422362.86174,5.34065766384379,56.6720073243305,12.8480964370183
1580422362.86573,11.1390859845883,58.0758373388262,13.3363851377126
1580422362.86972,16.8154421301595,59.7848477912562,13.5805294880597
1580422362.87371,22.0035095750361,61.1886778057524,13.4584573128861
1580422362.87771,26.0318913557639,61.8600747692071,12.664988174258
1580422362.8817,28.3512626840618,61.4938582436862,11.4442664225223
1580422362.88569,29.0226596475165,59.90691996643,9.97940032043948
1580422362.88969,28.5954070344089,56.9161516746776,8.27038986800949
1580422362.89368,28.1681544213016,52.6436255436024,6.31723506523235
1580422362.89768,27.6188296330204,47.5776302738993,4.66926070038903
1580422362.90167,27.4357213702601,42.3285267414358,3.08232242313261
1580422362.90566,27.0084687571525,37.2625314717325,1.43434805828952
1580422362.90965,26.2149996185244,32.5017166399632,-0.091554131380235
1580422362.91365,25.1773861295489,28.5343709468223,-1.73952849622333
1580422362.91764,23.7125200274661,24.9332417792018,-3.20439459830618
1580422362.92164,22.3086900129701,22.1255817502097,-4.48615243762879
1580422362.92563,21.0269321736475,19.8062104219118,-5.6458381017776
1580422362.92962,19.9893186846723,18.0971999694818,-6.62241550316617
1580422362.93362,19.6841382467383,16.5102616922254,-7.11070420386045
1580422362.93761,19.9893186846723,15.1064316777295,-7.29381246662092
1580422362.9416,20.6607156481268,14.1908903639276,-6.98863202868688
1580422362.9456,21.3931486991683,13.7636377508202,-6.07309071488521
1580422362.94962,22.1866178377966,13.5805294880597,-5.09651331349664
1580422362.95361,22.5528343633173,13.8246738384069,-3.75371938658736
1580422362.9576,22.9800869764247,14.6791790646218,-2.04470893415737
1580422362.9616,23.3463035019454,15.8388647287709,-0.152590218966907
1580422362.96559,23.5294117647059,16.1440451667047,1.61745632104976
1580422362.96958,23.468375677119,16.1440451667047,3.14335851071951
1580422362.97358,23.0411230640116,16.083009079118,4.18097199969475
1580422362.97757,22.5528343633173,16.0219729915311,4.97444113832307
1580422362.98156,22.919050888838,15.5947203784237,5.34065766384379
1580422362.98556,24.1397726405737,15.0453955901426,5.21858548867021
1580422362.98955,26.3981078812847,14.373998626688,5.03547722590974
1580422362.99354,29.3278400854504,13.5805294880597,4.91340505073617
1580422362.99754,32.5627527275501,12.4818799114976,4.73029678797593
1580422363.00153,35.3704127565422,10.955977721828,4.36408026245522
1580422363.00552,37.5066758220796,9.4911116197452,3.99786373693451
1580422363.00952,39.1546501869229,7.90417334248878,3.63164721141379
1580422363.01351,40.6195162890058,6.19516289005878,3.14335851071951
1580422363.0175,41.657129777981,4.42511635004189,2.47196154726475
1580422363.0215,42.3285267414358,2.7161058976119,1.67849240863666
1580422363.02549,42.8778515297167,0.70191500724809,1.0070954451819
1580422363.02948,43.4882124055846,-1.49538414587619,0.335698481727377
1580422363.03347,44.1596093690393,-3.50957503624022,-0.335698481727377
1580422363.03747,45.1972228580146,-5.34065766384379,-0.762951094834762
1580422363.04146,46.2348363469901,-7.23277637903402,-1.19020370794237
1580422363.04545,47.3945220111389,-8.88075074387734,-1.49538414587619
1580422363.04945,48.2490272373539,-9.79629205767901,-1.67849240863666
1580422363.05344,48.493171587701,-9.85732814526591,-1.67849240863666
1580422363.05743,48.1269550621805,-9.12489509422448,-1.80056458381023
1580422363.06143,47.2724498359653,-8.08728160524902,-1.49538414587619
1580422363.06542,45.8075837338824,-7.47692072938116,-1.0070954451819
1580422363.06941,43.5492484931715,-7.04966811627378,-0.152590218966907
1580422363.07341,41.4129854276339,-6.68345159075307,0.640878919661191
1580422363.0774,40.0091554131379,-6.37827115281902,1.43434805828952
1580422363.08139,39.5208667124436,-6.43930724040592,1.80056458381023
1580422363.08539,39.2156862745096,-6.74448767833974,1.80056458381023
1580422363.08938,38.3001449607079,-7.17174029144735,1.0681315327688
1580422363.09338,35.8587014572365,-7.72106507972831,-0.396734569314049
1580422363.09737,31.6472114137482,-8.75867856870377,-2.53299763485165
1580422363.10136,26.4591439688716,-9.79629205767901,-5.09651331349664
1580422363.10536,21.210040436408,-10.955977721828,-8.14831769283592
1580422363.10934,16.7544060425726,-12.4208438239109,-11.1390859845883
1580422363.11334,13.3363851377126,-14.4350347142747,-13.8857099259938
1580422363.11733,11.0780498970016,-16.7544060425726,-16.2661173418783
1580422363.12133,9.91836423285258,-19.3179217212175,-18.341344319829
1580422363.12532,9.36903944457163,-22.3086900129701,-20.050354772259
1580422363.12931,8.81971465629044,-25.6046387426566,-21.210040436408
1580422363.1333,7.90417334248878,-29.0836957351032,-21.5762569619287
1580422363.1373,6.31723506523235,-32.9900053406577,-21.6983291371023
1580422363.14129,3.93682764934761,-37.201495384146,-21.3321126115816
1580422363.14529,0.579842832074519,-41.6571297779813,-20.5386434729533
1580422363.14928,-2.83817807278547,-46.5400167849241,-19.2568856336309
1580422363.15327,-6.01205462729831,-51.8501564049745,-17.7309834439611
1580422363.15727,-9.24696726939806,-57.8927290760662,-16.083009079118
1580422363.16126,-13.1532768749523,-64.6066987106126,-14.1908903639276
1580422363.16525,-17.5478751812009,-71.320668345159,-12.664988174258
1580422363.16925,-21.8814373998625,-77.2411688410773,-11.505302510109
1580422363.17324,-25.0553139543754,-82.0630197604332,-11.0780498970016
1580422363.17723,-27.0084687571525,-86.5186541542687,-11.0780498970016
1580422363.18123,-29.0836957351032,-91.2184328984511,-11.6273746852826
1580422363.18522,-32.6848249027239,-95.9792477302205,-13.214312962539
1580422363.18924,-37.8728923476006,-100.373846036469,-16.3271534294652
1580422363.19323,-44.3427176317998,-105.073624780652,-20.5996795605402
1580422363.19723,-50.9346150911726,-110.627908751049,-26.4591439688716
1580422363.20122,-56.4888990615702,-116.609445334554,-33.5393301289389
1580422363.20521,-59.6627756160831,-122.407873655299,-41.7792019531548
1580422363.20921,-58.9913786526283,-127.534905012589,-50.7515068284124
1580422363.2132,-53.8643472953383,-132.478828107118,-59.2965590905624
1580422363.21719,-45.8075837338827,-137.361715114061,-66.9871061264973
1580422363.22119,-35.2483405813689,-142.366674296178,-73.334859235523
1580422363.22518,-22.6749065384909,-147.676813916228,-78.156710154879
1580422363.22917,-7.90417334248878,-152.498664835584,-81.025406271458
1580422363.23317,8.5755703059433,-155.672541390097,-82.3071641107804
1580422363.23716,25.6046387426566,-157.442587930114,-82.0630197604332
1580422363.24115,42.6337071793696,-157.930876630808,-80.2319371328297
1580422363.24515,58.5641260395205,-157.869840543221,-77.0580605783168
1580422363.24914,73.2738231479366,-157.686732280461,-72.6024261844816
1580422363.25313,87.0069428549632,-157.503624017701,-67.7195391775388
1580422363.25713,99.5803768978408,-156.710154879072,-62.1652552071412
1580422363.26112,110.566872663462,-155.001144426642,-56.5499351491569
1580422363.26512,119.600213626306,-152.681773098344,-51.2397955291067
1580422363.2691,126.070038910506,-150.118257419699,-46.2348363469903
1580422363.2731,129.610131990539,-147.920958266575,-41.5350576028077
1580422363.27709,130.403601129168,-146.456092164492,-37.4456397344932
1580422363.28108,128.755626764324,-145.784695201037,-33.6003662165256
1580422363.28508,124.910353246357,-145.54055085069,-29.9992370489051
1580422363.28907,119.600213626306,-144.747081712062,-26.5201800564582
1580422363.29306,113.557640955215,-143.221179522393,-23.1631952391851
1580422363.29706,107.209887846189,-140.718699931334,-19.8672465094987
1580422363.30105,100.129701686122,-137.544823376822,-16.6933699549859
1580422363.30504,92.0119020370794,-133.455405508507,-13.4584573128861
1580422363.30904,82.734416723888,-128.694590676738,-10.955977721828
1580422363.31303,72.3582818341347,-123.811703669795,-9.18593118181116
1580422363.31703,61.1276417181657,-119.478141451133,-8.08728160524902
1580422363.32102,49.5307850766762,-115.571831845579,-8.02624551766235
1580422363.32501,37.7508201724268,-112.214847028305,-8.45349813076973
1580422363.32901,25.8487830930037,-109.163042648966,-9.30800335698473
1580422363.333,14.068818188754,-106.538490882735,-10.1625085831997
1580422363.33699,3.08232242313261,-104.34119172961,-10.8339055466545
1580422363.34099,-6.68345159075307,-102.510109102007,-11.0780498970016
1580422363.34498,-14.373998626688,-101.228351262684,-10.955977721828
1580422363.349,-19.8062104219118,-100.373846036469,-10.4066529335469
1580422363.35299,-23.2242313267718,-100.068665598535,-9.55214770733187
1580422363.35699,-25.0553139543754,-100.129701686122,-8.51453421835663
1580422363.36098,-25.9098191805904,-100.679026474403,-7.29381246662092
1580422363.36497,-26.337071793698,-101.350423437858,-6.43930724040592
1580422363.36897,-26.5812161440451,-102.510109102007,-5.82894636453807
1580422363.37296,-26.2149996185244,-103.97497520409,-5.95101853971164
1580422363.37695,-24.8722056916151,-105.86709391928,-6.5003433279926
1580422363.38095,-22.5528343633173,-108.308537422751,-7.41588464179449
1580422363.38494,-19.0127412832837,-110.566872663462,-8.88075074387734
1580422363.38893,-14.1908903639276,-112.153810940719,-10.650797283894
1580422363.39293,-8.69764248111687,-113.130388342107,-12.2987716487373
1580422363.39692,-3.02128633554594,-112.642099641413,-14.0077821011673
1580422363.40091,2.16678110933094,-110.99412527657,-15.228503852903
1580422363.40491,7.04966811627378,-108.491645685512,-16.3271534294652
1580422363.4089,11.0780498970016,-105.439841306172,-17.1206225680933
1580422363.41289,14.4960708018616,-102.571145189593,-17.3647669184404
1580422363.41689,17.3037308308537,-100.007629510948,-17.0595864805066
1580422363.42088,19.4399938963911,-98.0544747081713,-16.2661173418783
1580422363.42488,20.8438239108873,-96.5285725185017,-15.1674677653161
1580422363.42886,20.7827878233004,-95.0637064164189,-13.6415655756466
1580422363.43286,18.7075608453497,-93.8429846646832,-11.9935912108033
1580422363.43685,14.5571068894483,-92.6222629129472,-10.4676890211338
