Timestamp_seconds,Accel_X_g,Accel_Y_g,Accel_Z_g
1580422356.51669,-0.987075608453498,0.152101930266269,0.135988403143358
1580422356.52069,-0.98268101014725,0.148683909361409,0.131593804837109
1580422356.52469,-0.985122453650721,0.146242465857938,0.134523537041275
1580422356.52869,-0.987075608453498,0.143801022354467,0.134035248340581
1580422356.53269,-0.985122453650721,0.144777599755855,0.130617227435721
1580422356.53669,-0.987563897154192,0.141847867551689,0.128175783932249
1580422356.54068,-0.990493629358358,0.140383001449607,0.128664072632944
1580422356.54468,-0.990005340657664,0.139894712748912,0.128664072632944
1580422356.54868,-0.993423361562524,0.135988403143358,0.130128938735027
1580422356.55268,-0.993423361562524,0.131105516136415,0.126710917830167
1580422356.55668,-0.991470206759747,0.129640650034332,0.128175783932249
1580422356.56068,-0.98951705195697,0.133058670939192,0.132082093537804
1580422356.56468,-0.989028763256275,0.132082093537804,0.125734340428778
1580422356.56868,-0.984145876249332,0.132082093537804,0.133546959639887
1580422356.57267,-0.983657587548638,0.132570382238498,0.132570382238498
1580422356.57667,-0.98268101014725,0.133058670939192,0.126222629129472
1580422356.58067,-0.979751277943084,0.132570382238498,0.128175783932249
1580422356.58467,-0.983169298847944,0.132570382238498,0.132082093537804
1580422356.58867,-0.983657587548638,0.133546959639887,0.128175783932249
1580422356.59267,-0.985610742351415,0.134035248340581,0.131105516136415
1580422356.59668,-0.985610742351415,0.131593804837109,0.133058670939192
1580422356.60068,-0.987075608453498,0.134035248340581,0.129640650034332
1580422356.60468,-0.98609903105211,0.130128938735027,0.127687495231555
1580422356.60868,-0.986587319752804,0.132570382238498,0.130617227435721
1580422356.61267,-0.98609903105211,0.129640650034332,0.130617227435721
1580422356.61667,-0.985610742351415,0.128664072632944,0.125734340428778
1580422356.62067,-0.988540474555581,0.132570382238498,0.127687495231555
1580422356.62467,-0.989028763256275,0.132570382238498,0.134035248340581
1580422356.62867,-0.987563897154192,0.131105516136415,0.128664072632944
1580422356.63267,-0.984634164950027,0.131593804837109,0.132570382238498
1580422356.63667,-0.987075608453498,0.136476691844052,0.133058670939192
1580422356.64067,-0.990005340657664,0.135011825741969,0.132570382238498
1580422356.64466,-0.989028763256275,0.135988403143358,0.130128938735027
1580422356.64866,-0.991470206759747,0.134523537041275,0.124269474326695
1580422356.65266,-0.990981918059052,0.135988403143358,0.131593804837109
1580422356.65666,-0.990981918059052,0.135988403143358,0.124269474326695
1580422356.66066,-0.992446784161135,0.139894712748912,0.122316319523918
1580422356.66466,-0.990005340657664,0.142824444953078,0.121828030823224
1580422356.66866,-0.991470206759747,0.142336156252384,0.12475776302739
1580422356.67266,-0.987075608453498,0.143801022354467,0.12475776302739
1580422356.67667,-0.987075608453498,0.143801022354467,0.12475776302739
1580422356.68067,-0.98609903105211,0.147219043259327,0.119386587319752
1580422356.68466,-0.985122453650721,0.152101930266269,0.128664072632944
1580422356.68866,-0.98609903105211,0.148683909361409,0.123292896925307
1580422356.69266,-0.98609903105211,0.152590218966964,0.123781185626001
1580422356.69666,-0.988052185854887,0.154055085069047,0.12475776302739
1580422356.70066,-0.985610742351415,0.153078507667658,0.127199206530861
1580422356.70466,-0.984634164950027,0.149660486762798,0.12475776302739
1580422356.70866,-0.984145876249332,0.147219043259327,0.12475776302739
1580422356.71265,-0.985610742351415,0.151125352864881,0.124269474326695
1580422356.71665,-0.98609903105211,0.150148775463492,0.125734340428778
1580422356.72065,-0.985122453650721,0.149172198062104,0.124269474326695
1580422356.72465,-0.987075608453498,0.151125352864881,0.117433432516975
1580422356.72865,-0.986587319752804,0.152590218966964,0.122804608224612
1580422356.73265,-0.987075608453498,0.153078507667658,0.126710917830167
1580422356.73665,-0.990493629358358,0.155031662470435,0.123781185626001
1580422356.74065,-0.988540474555581,0.154055085069047,0.119874876020447
1580422356.74464,-0.989028763256275,0.156984817273212,0.125246051728084
1580422356.74864,-0.988540474555581,0.156984817273212,0.126222629129472
1580422356.75264,-0.987563897154192,0.157961394674601,0.128175783932249
1580422356.75662,-0.986587319752804,0.154055085069047,0.119874876020447
1580422356.76062,-0.990493629358358,0.155031662470435,0.123781185626001
1580422356.76462,-0.990005340657664,0.153566796368352,0.130617227435721
1580422356.76862,-0.987563897154192,0.151613641565575,0.127687495231555
1580422356.77262,-0.986587319752804,0.148683909361409,0.125246051728084
1580422356.77662,-0.987075608453498,0.147707331960021,0.128175783932249
1580422356.78061,-0.988540474555581,0.151125352864881,0.129152361333638
1580422356.78461,-0.983169298847944,0.148683909361409,0.128175783932249
1580422356.78861,-0.98609903105211,0.152590218966964,0.127687495231555
1580422356.79261,-0.98609903105211,0.151125352864881,0.127199206530861
1580422356.79661,-0.986587319752804,0.153078507667658,0.12475776302739
1580422356.80061,-0.987563897154192,0.150148775463492,0.128664072632944
1580422356.80461,-0.990005340657664,0.149172198062104,0.127687495231555
1580422356.80861,-0.991958495460441,0.148683909361409,0.12133974212253
1580422356.8126,-0.988052185854887,0.149172198062104,0.127199206530861
1580422356.8166,-0.988540474555581,0.150148775463492,0.123292896925307
1580422356.8206,-0.986587319752804,0.149660486762798,0.12475776302739
1580422356.8246,-0.989028763256275,0.149172198062104,0.126222629129472
1580422356.8286,-0.988052185854887,0.146730754558632,0.121828030823224
1580422356.8326,-0.989028763256275,0.146242465857938,0.130128938735027
1580422356.83661,-0.985122453650721,0.145754177157244,0.130617227435721
1580422356.84061,-0.988052185854887,0.147219043259327,0.132082093537804
1580422356.84461,-0.988540474555581,0.148195620660715,0.129152361333638
1580422356.8486,-0.986587319752804,0.142824444953078,0.135988403143358
1580422356.8526,-0.989028763256275,0.143801022354467,0.127199206530861
1580422356.8566,-0.98609903105211,0.145754177157244,0.130128938735027
1580422356.8606,-0.985122453650721,0.147219043259327,0.130617227435721
1580422356.8646,-0.985610742351415,0.143312733653772,0.132082093537804
1580422356.8686,-0.988540474555581,0.139894712748912,0.128664072632944
1580422356.8726,-0.988052185854887,0.140871290150301,0.135011825741969
1580422356.8766,-0.989028763256275,0.137453269245441,0.128664072632944
1580422356.88059,-0.987563897154192,0.138429846646829,0.131105516136415
1580422356.88459,-0.990493629358358,0.138918135347524,0.127199206530861
1580422356.88859,-0.987563897154192,0.143312733653772,0.129152361333638
1580422356.89259,-0.98609903105211,0.145754177157244,0.129152361333638
1580422356.89659,-0.985122453650721,0.146730754558632,0.129640650034332
1580422356.90059,-0.987075608453498,0.148195620660715,0.128664072632944
1580422356.90459,-0.98609903105211,0.148195620660715,0.127687495231555
1580422356.90859,-0.988540474555581,0.146730754558632,0.133058670939192
1580422356.91259,-0.985610742351415,0.146730754558632,0.12475776302739
1580422356.91656,-0.987075608453498,0.143801022354467,0.126710917830167
1580422356.92056,-0.984634164950027,0.147707331960021,0.122316319523918
1580422356.92456,-0.988052185854887,0.149660486762798,0.123781185626001
1580422356.92856,-0.984634164950027,0.144777599755855,0.123781185626001
1580422356.93256,-0.98609903105211,0.145265888456549,0.125246051728084
1580422356.93656,-0.989028763256275,0.146242465857938,0.126222629129472
1580422356.94056,-0.987563897154192,0.148683909361409,0.133058670939192
1580422356.94456,-0.987075608453498,0.146730754558632,0.130128938735027
1580422356.94855,-0.985122453650721,0.148683909361409,0.130617227435721
1580422356.95255,-0.98268101014725,0.154543373769741,0.132082093537804
1580422356.95655,-0.98268101014725,0.152590218966964,0.131593804837109
1580422356.96055,-0.981704432745861,0.149172198062104,0.128664072632944
1580422356.96455,-0.983657587548638,0.152590218966964,0.129152361333638
1580422356.96855,-0.984145876249332,0.152101930266269,0.123292896925307
1580422356.97255,-0.984145876249332,0.151125352864881,0.12475776302739
1580422356.97655,-0.987075608453498,0.148683909361409,0.127199206530861
1580422356.98055,-0.990981918059052,0.152101930266269,0.12475776302739
1580422356.98454,-0.988052185854887,0.156008239871824,0.123292896925307
1580422356.98854,-0.986587319752804,0.152590218966964,0.127687495231555
1580422356.99254,-0.985122453650721,0.156496528572518,0.126710917830167
1580422356.99655,-0.984634164950027,0.158449683375295,0.126222629129472
1580422357.00055,-0.983657587548638,0.162355992980849,0.125246051728084
1580422357.00455,-0.985122453650721,0.162844281681544,0.122804608224612
1580422357.00855,-0.987563897154192,0.159914549477378,0.125734340428778
1580422357.01255,-0.98609903105211,0.159914549477378,0.12475776302739
1580422357.01654,-0.988540474555581,0.158449683375295,0.12133974212253
1580422357.02054,-0.988540474555581,0.157961394674601,0.122804608224612
1580422357.02454,-0.987563897154192,0.158449683375295,0.120851453421835
1580422357.02854,-0.988540474555581,0.158937972075989,0.122316319523918
1580422357.03254,-0.987075608453498,0.158449683375295,0.12133974212253
1580422357.03654,-0.987075608453498,0.154055085069047,0.12133974212253
1580422357.04054,-0.985122453650721,0.156496528572518,0.126710917830167
1580422357.04454,-0.984634164950027,0.155519951171129,0.119386587319752
1580422357.04853,-0.985122453650721,0.153566796368352,0.116945143816281
1580422357.05253,-0.987563897154192,0.152101930266269,0.117433432516975
1580422357.05653,-0.986587319752804,0.150148775463492,0.11792172121767
1580422357.06053,-0.990493629358358,0.151125352864881,0.118898298619058
1580422357.06453,-0.984634164950027,0.150148775463492,0.120851453421835
1580422357.06853,-0.982192721446555,0.151125352864881,0.123781185626001
1580422357.07253,-0.986587319752804,0.151125352864881,0.120851453421835
1580422357.07651,-0.984145876249332,0.152101930266269,0.120363164721141
1580422357.08051,-0.984634164950027,0.154543373769741,0.126710917830167
1580422357.0845,-0.982192721446555,0.154543373769741,0.120851453421835
1580422357.0885,-0.98609903105211,0.154543373769741,0.122804608224612
1580422357.0925,-0.986587319752804,0.156984817273212,0.118410009918364
1580422357.0965,-0.98951705195697,0.162355992980849,0.125246051728084
1580422357.1005,-0.989028763256275,0.159914549477378,0.128664072632944
1580422357.1045,-0.987563897154192,0.156496528572518,0.122804608224612
1580422357.1085,-0.984634164950027,0.155519951171129,0.121828030823224
1580422357.1125,-0.986587319752804,0.152101930266269,0.119874876020447
1580422357.11649,-0.990493629358358,0.152590218966964,0.119386587319752
1580422357.12049,-0.991958495460441,0.151613641565575,0.124269474326695
1580422357.12449,-0.991958495460441,0.154055085069047,0.120851453421835
1580422357.12849,-0.991470206759747,0.153078507667658,0.123292896925307
1580422357.13249,-0.98951705195697,0.152590218966964,0.124269474326695
1580422357.13649,-0.985122453650721,0.156496528572518,0.121828030823224
1580422357.14049,-0.987563897154192,0.158449683375295,0.126222629129472
1580422357.14449,-0.987075608453498,0.157961394674601,0.121828030823224
1580422357.14848,-0.984634164950027,0.156008239871824,0.125246051728084
1580422357.15248,-0.984145876249332,0.156008239871824,0.123292896925307
1580422357.15649,-0.98609903105211,0.154543373769741,0.12475776302739
1580422357.16049,-0.98609903105211,0.156008239871824,0.123292896925307
1580422357.16449,-0.98609903105211,0.152590218966964,0.123292896925307
1580422357.16849,-0.985610742351415,0.155031662470435,0.123781185626001
1580422357.17249,-0.98951705195697,0.154543373769741,0.118410009918364
1580422357.17649,-0.98609903105211,0.151125352864881,0.120363164721141
1580422357.18049,-0.986587319752804,0.150637064164187,0.122804608224612
1580422357.18448,-0.987075608453498,0.149172198062104,0.127199206530861
1580422357.18848,-0.987075608453498,0.152101930266269,0.12475776302739
1580422357.19248,-0.98609903105211,0.150637064164187,0.12475776302739
1580422357.19648,-0.983657587548638,0.151613641565575,0.12475776302739
1580422357.20048,-0.983169298847944,0.155031662470435,0.123292896925307
1580422357.20448,-0.981216144045167,0.154055085069047,0.12475776302739
1580422357.20848,-0.98268101014725,0.154055085069047,0.126710917830167
1580422357.21248,-0.985610742351415,0.152101930266269,0.122316319523918
1580422357.21648,-0.98609903105211,0.154543373769741,0.12475776302739
1580422357.22047,-0.985122453650721,0.157473105973907,0.12475776302739
1580422357.22447,-0.984634164950027,0.158937972075989,0.129152361333638
1580422357.22847,-0.985122453650721,0.156496528572518,0.125734340428778
1580422357.23247,-0.984634164950027,0.156984817273212,0.131593804837109
1580422357.23645,-0.985610742351415,0.154055085069047,0.131105516136415
1580422357.24045,-0.987563897154192,0.153078507667658,0.129152361333638
1580422357.24445,-0.984145876249332,0.149172198062104,0.125246051728084
1580422357.24845,-0.988540474555581,0.153566796368352,0.125734340428778
1580422357.25244,-0.98951705195697,0.154055085069047,0.126710917830167
1580422357.25644,-0.987563897154192,0.153078507667658,0.127687495231555
1580422357.26044,-0.987075608453498,0.155031662470435,0.126710917830167
1580422357.26444,-0.984634164950027,0.153078507667658,0.131593804837109
1580422357.26844,-0.984634164950027,0.153078507667658,0.133546959639887
1580422357.27244,-0.98268101014725,0.156984817273212,0.132570382238498
1580422357.27644,-0.985122453650721,0.154543373769741,0.134523537041275
1580422357.28044,-0.984145876249332,0.155519951171129,0.132570382238498
1580422357.28444,-0.98609903105211,0.156496528572518,0.132570382238498
1580422357.28843,-0.984634164950027,0.155031662470435,0.135011825741969
1580422357.29243,-0.985610742351415,0.158449683375295,0.132082093537804
1580422357.29643,-0.983169298847944,0.156496528572518,0.131593804837109
1580422357.30043,-0.982192721446555,0.156008239871824,0.131105516136415
1580422357.30443,-0.982192721446555,0.158937972075989,0.132570382238498
1580422357.30843,-0.983657587548638,0.155519951171129,0.129640650034332
1580422357.31243,-0.984634164950027,0.158449683375295,0.137941557946135
1580422357.31644,-0.983657587548638,0.155031662470435,0.136964980544747
1580422357.32044,-0.98268101014725,0.153566796368352,0.133058670939192
1580422357.32443,-0.983657587548638,0.152590218966964,0.138918135347524
1580422357.32843,-0.983657587548638,0.156984817273212,0.135011825741969
1580422357.33243,-0.984145876249332,0.158937972075989,0.135011825741969
1580422357.33643,-0.980239566643778,0.154543373769741,0.137453269245441
1580422357.34043,-0.982192721446555,0.155519951171129,0.137941557946135
1580422357.34443,-0.982192721446555,0.157473105973907,0.136964980544747
1580422357.34843,-0.981704432745861,0.152590218966964,0.139406424048218
1580422357.35242,-0.983657587548638,0.152590218966964,0.137941557946135
1580422357.35642,-0.984145876249332,0.153566796368352,0.140383001449607
1580422357.36042,-0.983169298847944,0.155519951171129,0.133058670939192
1580422357.36442,-0.985610742351415,0.155031662470435,0.135011825741969
1580422357.36842,-0.981216144045167,0.152101930266269,0.133058670939192
1580422357.37242,-0.984145876249332,0.154543373769741,0.134035248340581
1580422357.37642,-0.985122453650721,0.158937972075989,0.134035248340581
1580422357.38042,-0.983657587548638,0.154543373769741,0.129152361333638
1580422357.38441,-0.983657587548638,0.152101930266269,0.131105516136415
1580422357.38841,-0.987075608453498,0.152101930266269,0.133546959639887
1580422357.39241,-0.985610742351415,0.157473105973907,0.130128938735027
1580422357.39639,-0.986587319752804,0.154055085069047,0.128664072632944
1580422357.40039,-0.985610742351415,0.150148775463492,0.129640650034332
1580422357.40439,-0.980239566643778,0.149172198062104,0.131105516136415
1580422357.40839,-0.971450370031281,0.152590218966964,0.131593804837109
1580422357.41239,-0.966567483024338,0.159426260776684,0.119386587319752
1580422357.41639,-0.966567483024338,0.173098344396124,0.112550545510032
1580422357.42038,-0.973891813534753,0.193118181124589,0.11450370031281
1580422357.42438,-0.987075608453498,0.202883955138475,0.120363164721141
1580422357.42838,-0.994888227664607,0.196047913328755,0.134035248340581
1580422357.43238,-0.996841382467384,0.179934386205844,0.151125352864881
1580422357.43638,-0.99293507286183,0.164309147783626,0.155031662470435
1580422357.44038,-0.985122453650721,0.145265888456549,0.151613641565575
1580422357.44438,-0.982192721446555,0.135988403143358,0.154543373769741
1580422357.44838,-0.97926298924239,0.141847867551689,0.141847867551689
1580422357.45237,-0.979751277943084,0.154055085069047,0.146242465857938
1580422357.45637,-0.980239566643778,0.157473105973907,0.145265888456549
1580422357.46037,-0.98609903105211,0.162355992980849,0.150637064164187
1580422357.46437,-0.991470206759747,0.159914549477378,0.149660486762798
1580422357.46837,-0.991958495460441,0.159426260776684,0.155031662470435
1580422357.47237,-0.997329671168078,0.152590218966964,0.156008239871824
1580422357.47638,-0.994888227664607,0.154543373769741,0.152590218966964
1580422357.48038,-0.995864805065995,0.151125352864881,0.147707331960021
1580422357.48438,-0.991958495460441,0.149660486762798,0.146242465857938
1580422357.48837,-0.990005340657664,0.150637064164187,0.143312733653772
1580422357.49237,-0.984634164950027,0.153566796368352,0.138918135347524
1580422357.49637,-0.984145876249332,0.156984817273212,0.138918135347524
1580422357.50037,-0.983169298847944,0.159426260776684,0.144289311055161
1580422357.50437,-0.984145876249332,0.156496528572518,0.142824444953078
1580422357.50837,-0.986587319752804,0.161867704280155,0.146242465857938
1580422357.51237,-0.988540474555581,0.162355992980849,0.144777599755855
1580422357.51637,-0.990005340657664,0.159426260776684,0.151613641565575
1580422357.52036,-0.990493629358358,0.156008239871824,0.143801022354467
1580422357.52436,-0.990005340657664,0.153078507667658,0.138918135347524
1580422357.52836,-0.991470206759747,0.155519951171129,0.143312733653772
1580422357.53236,-0.992446784161135,0.156496528572518,0.143312733653772
1580422357.53636,-0.994888227664607,0.157961394674601,0.148195620660715
1580422357.54036,-0.990493629358358,0.161379415579461,0.149660486762798
1580422357.54436,-0.992446784161135,0.169680323491264,0.150637064164187
1580422357.54836,-0.990005340657664,0.170168612191958,0.147219043259327
1580422357.55235,-0.992446784161135,0.171145189593346,0.149172198062104
1580422357.55633,-0.99293507286183,0.179446097505149,0.159914549477378
1580422357.56033,-0.998306248569467,0.186282139314869,0.160402838178072
1580422357.56433,-0.996841382467384,0.186770428015564,0.158449683375295
1580422357.56833,-0.997817959868772,0.192141603723201,0.168215457389181
1580422357.57233,-0.998794537270161,0.192141603723201,0.169192034790569
1580422357.57633,-0.998306248569467,0.194094758525978,0.168703746089875
1580422357.58033,-0.995376516365301,0.193606469825284,0.160891126878766
1580422357.58433,-0.994888227664607,0.193606469825284,0.158937972075989
1580422357.58833,-0.992446784161135,0.194094758525978,0.153078507667658
1580422357.59232,-0.990005340657664,0.194583047226672,0.155519951171129
1580422357.59632,-0.986587319752804,0.195071335927366,0.153566796368352
1580422357.60032,-0.98609903105211,0.192141603723201,0.151125352864881
1580422357.60432,-0.987563897154192,0.184817273212786,0.148195620660715
1580422357.60832,-0.983657587548638,0.176516365300984,0.135011825741969
1580422357.61232,-0.982192721446555,0.175539787899595,0.11450370031281
1580422357.61632,-0.983657587548638,0.175051499198901,0.0974135957885096
1580422357.62031,-0.985610742351415,0.184817273212786,0.0949721522850382
1580422357.62431,-0.988540474555581,0.190188448920424,0.0979018844892039
1580422357.62831,-0.981704432745861,0.185305561913481,0.105226214999618
1580422357.63231,-0.983169298847944,0.164797436484321,0.110597390707255
1580422357.63632,-0.977798123140307,0.140383001449607,0.108644235904478
1580422357.64032,-0.972915236133364,0.11792172121767,0.101808194094758
1580422357.64432,-0.974380102235447,0.102296482795452,0.101808194094758
1580422357.64832,-0.977309834439613,0.0935072861829553,0.0974135957885096
1580422357.65232,-0.979751277943084,0.0900892652780954,0.0891126878767068
1580422357.65631,-0.979751277943084,0.0871595330739297,0.0817883573662925
1580422357.66031,-0.976333257038224,0.0866712443732354,0.0749523155565726
1580422357.66431,-0.973403524834058,0.0798352025635154,0.0754406042572668
1580422357.66831,-0.96900892652781,0.0729991607537954,0.080811779964904
1580422357.67231,-0.965102616922255,0.067139696345464,0.0847180895704582
1580422357.67631,-0.968032349126421,0.0651865415426869,0.0891126878767068
1580422357.68031,-0.974868390936141,0.0612802319371326,0.0939955748836496
1580422357.68431,-0.983169298847944,0.0559090562294955,0.0983901731898982
1580422357.6883,-0.988540474555581,0.0568856336308841,0.112550545510032
1580422357.6923,-0.994888227664607,0.0622568093385212,0.114991989013504
1580422357.6963,-0.995376516365301,0.0710460059510183,0.125246051728084
1580422357.7003,-0.994888227664607,0.0793469138628211,0.132570382238498
1580422357.7043,-0.994888227664607,0.0817883573662925,0.135988403143358
1580422357.7083,-0.993423361562524,0.0832532234683754,0.138429846646829
1580422357.7123,-0.993911650263218,0.0783703364614325,0.142336156252384
1580422357.71628,-0.995864805065995,0.070557717250324,0.144777599755855
1580422357.72028,-0.993423361562524,0.0700694285496297,0.144777599755855
1580422357.72427,-0.990005340657664,0.0651865415426869,0.140383001449607
1580422357.72827,-0.991470206759747,0.0686045624475469,0.149660486762798
1580422357.73227,-0.994888227664607,0.0720225833524069,0.151613641565575
1580422357.73627,-0.995864805065995,0.0759288929579611,0.156496528572518
1580422357.74027,-0.997817959868772,0.0754406042572668,0.163332570382238
1580422357.74427,-0.998794537270161,0.077393759060044,0.165774013885709
1580422357.74827,-0.998794537270161,0.0759288929579611,0.164309147783626
1580422357.75227,-0.997817959868772,0.0690928511482412,0.158449683375295
1580422357.75626,-0.997329671168078,0.0720225833524069,0.156984817273212
1580422357.76026,-0.995864805065995,0.0749523155565726,0.157473105973907
1580422357.76426,-0.991958495460441,0.0837415121690697,0.154055085069047
1580422357.76826,-0.988052185854887,0.0905775539787896,0.155031662470435
1580422357.77226,-0.985122453650721,0.0925307087815668,0.157961394674601
1580422357.77626,-0.984145876249332,0.0925307087815668,0.155031662470435
1580422357.78026,-0.987075608453498,0.0915541313801782,0.156984817273212
1580422357.78426,-0.985610742351415,0.0896009765774011,0.150637064164187
1580422357.78825,-0.98951705195697,0.0896009765774011,0.149660486762798
1580422357.79225,-0.987075608453498,0.0881361104753182,0.147219043259327
1580422357.79626,-0.98268101014725,0.0896009765774011,0.149660486762798
1580422357.80026,-0.983657587548638,0.0939955748836496,0.149172198062104
1580422357.80426,-0.986587319752804,0.0944838635843439,0.141847867551689
1580422357.80826,-0.988052185854887,0.0935072861829553,0.139894712748912
1580422357.81226,-0.990981918059052,0.0939955748836496,0.148195620660715
1580422357.81626,-0.99293507286183,0.0944838635843439,0.147707331960021
1580422357.82026,-0.990981918059052,0.0944838635843439,0.141847867551689
1580422357.82426,-0.989028763256275,0.0905775539787896,0.143801022354467
1580422357.82825,-0.984145876249332,0.0935072861829553,0.146730754558632
1580422357.83225,-0.981704432745861,0.0949721522850382,0.145265888456549
1580422357.83625,-0.978286411841001,0.0944838635843439,0.145754177157244
1580422357.84025,-0.982192721446555,0.0886243991760125,0.142336156252384
1580422357.84425,-0.983169298847944,0.080811779964904,0.149660486762798
1580422357.84825,-0.990981918059052,0.0749523155565726,0.142336156252384
1580422357.85225,-0.99293507286183,0.0715342946517126,0.140383001449607
1580422357.85625,-0.99635309376669,0.0695811398489354,0.148683909361409
1580422357.86024,-0.995376516365301,0.0695811398489354,0.146242465857938
1580422357.86424,-0.993423361562524,0.0681162737468526,0.144777599755855
1580422357.86824,-0.991958495460441,0.067139696345464,0.147707331960021
1580422357.87224,-0.991470206759747,0.0690928511482412,0.144289311055161
1580422357.87622,-0.991470206759747,0.0715342946517126,0.145754177157244
1580422357.88022,-0.992446784161135,0.0729991607537954,0.140871290150301
1580422357.88422,-0.993423361562524,0.0729991607537954,0.139406424048218
1580422357.88822,-0.99293507286183,0.0720225833524069,0.138429846646829
1580422357.89222,-0.99293507286183,0.0710460059510183,0.135988403143358
1580422357.89621,-0.994888227664607,0.0681162737468526,0.135500114442664
1580422357.90021,-0.994399938963912,0.067139696345464,0.134035248340581
1580422357.90421,-0.995376516365301,0.0681162737468526,0.135011825741969
1580422357.90821,-0.997817959868772,0.0681162737468526,0.136964980544747
1580422357.91221,-0.996841382467384,0.0686045624475469,0.129640650034332
1580422357.91621,-1.00123598077363,0.0661631189440754,0.131593804837109
1580422357.92021,-0.998306248569467,0.0686045624475469,0.126710917830167
1580422357.9242,-0.998306248569467,0.0695811398489354,0.132082093537804
1580422357.9282,-0.99635309376669,0.0720225833524069,0.131593804837109
1580422357.9322,-0.995376516365301,0.070557717250324,0.131105516136415
1580422357.9362,-0.991470206759747,0.063721675440604,0.133058670939192
1580422357.9402,-0.990493629358358,0.0598153658350498,0.132570382238498
1580422357.9442,-0.988540474555581,0.0622568093385212,0.130617227435721
1580422357.9482,-0.989028763256275,0.0583504997329669,0.136964980544747
1580422357.9522,-0.990493629358358,0.0534676127260241,0.137453269245441
1580422357.95621,-0.98951705195697,0.0432135500114441,0.136964980544747
1580422357.96021,-0.991958495460441,0.034424353398947,0.137941557946135
1580422357.9642,-0.994399938963912,0.0285648889906156,0.133546959639887
1580422357.9682,-0.996841382467384,0.0295414663920042,0.126710917830167
1580422357.9722,-0.99635309376669,0.0305180437933927,0.118898298619058
1580422357.9762,-0.990493629358358,0.0324711985961699,0.117433432516975
1580422357.9802,-0.990005340657664,0.0427252613107498,0.114015411612115
1580422357.9842,-0.985122453650721,0.0646982528419926,0.119386587319752
1580422357.9882,-0.991470206759747,0.0798352025635154,0.117433432516975
1580422357.9922,-0.997329671168078,0.0783703364614325,0.126710917830167
1580422357.99619,-1.00025940337224,0.0661631189440754,0.132570382238498
1580422358.00019,-0.991470206759747,0.0598153658350498,0.149172198062104
1580422358.00419,-0.990493629358358,0.0505378805218584,0.137941557946135
1580422358.00819,-0.99293507286183,0.0476081483176927,0.12475776302739
1580422358.01219,-0.998794537270161,0.048096437018387,0.129152361333638
1580422358.01619,-1.00807202258335,0.0559090562294955,0.144289311055161
1580422358.02019,-1.01344319829099,0.0617685206378269,0.141847867551689
1580422358.02419,-1.00904859998474,0.0656748302433812,0.130617227435721
1580422358.02818,-1.00611886778058,0.063721675440604,0.134035248340581
1580422358.03218,-1.00123598077363,0.0646982528419926,0.124269474326695
1580422358.03619,-1.00074769207294,0.0617685206378269,0.132082093537804
1580422358.04019,-0.998794537270161,0.0681162737468526,0.132570382238498
1580422358.04419,-0.995376516365301,0.073975738155184,0.133058670939192
1580422358.04819,-0.995376516365301,0.0783703364614325,0.142824444953078
1580422358.05219,-1.00172426947433,0.0764171816586554,0.144777599755855
1580422358.05619,-1.00611886778058,0.0754406042572668,0.150148775463492
1580422358.06019,-1.0036774242771,0.0744640268558783,0.152590218966964
1580422358.06418,-1.0041657129778,0.067139696345464,0.149172198062104
1580422358.06818,-1.00514229037919,0.0617685206378269,0.143801022354467
1580422358.07218,-1.00563057907988,0.0593270771343555,0.138429846646829
1580422358.07618,-1.00709544518196,0.060303654535744,0.143801022354467
1580422358.08018,-1.0129549095903,0.0651865415426869,0.146730754558632
1580422358.08418,-1.0124666208896,0.0676279850461583,0.146730754558632
1580422358.08818,-1.01051346608682,0.0686045624475469,0.151613641565575
1580422358.09218,-1.00660715648127,0.0729991607537954,0.146730754558632
1580422358.09617,-1.00270084687572,0.0729991607537954,0.145754177157244
1580422358.10017,-0.997817959868772,0.0700694285496297,0.142336156252384
1580422358.10417,-0.998306248569467,0.0646982528419926,0.140871290150301
1580422358.10817,-1.00270084687572,0.0607919432364383,0.145754177157244
1580422358.11217,-1.00514229037919,0.0495613031204698,0.141847867551689
1580422358.11615,-1.00514229037919,0.0422369726100555,0.148683909361409
1580422358.12015,-1.01149004348821,0.037842374303807,0.151613641565575
1580422358.12415,-1.01393148699168,0.0407721065079727,0.150637064164187
1580422358.12815,-1.00807202258335,0.037842374303807,0.160891126878766
1580422358.13214,-1.00172426947433,0.0437018387121384,0.160402838178072
1580422358.13614,-0.995864805065995,0.0505378805218584,0.156496528572518
1580422358.14014,-0.992446784161135,0.0524910353246355,0.158937972075989
1580422358.14414,-0.990981918059052,0.0515144579232469,0.155031662470435
1580422358.14814,-0.98609903105211,0.0495613031204698,0.156984817273212
1580422358.15214,-0.98609903105211,0.0524910353246355,0.153078507667658
1580422358.15614,-0.993911650263218,0.0490730144197755,0.155519951171129
1580422358.16014,-0.99977111467155,0.0437018387121384,0.154543373769741
1580422358.16413,-1.00904859998474,0.0397955291065841,0.151613641565575
1580422358.16813,-1.0124666208896,0.0368657969024184,0.158449683375295
1580422358.17213,-1.01588464179446,0.0388189517051956,0.165285725185015
1580422358.17613,-1.0124666208896,0.0368657969024184,0.165285725185015
1580422358.18013,-1.00807202258335,0.0354009308003356,0.166750591287098
1580422358.18413,-1.00025940337224,0.0402838178072784,0.159426260776684
1580422358.18813,-0.991470206759747,0.0451667048142212,0.160891126878766
1580422358.19213,-0.987075608453498,0.0495613031204698,0.148195620660715
1580422358.19614,-0.985610742351415,0.0490730144197755,0.145754177157244
1580422358.20013,-0.98951705195697,0.0529793240253298,0.147219043259327
1580422358.20413,-0.993911650263218,0.0573739223315783,0.150637064164187
1580422358.20813,-0.99635309376669,0.0578622110322726,0.138429846646829
1580422358.21213,-0.997817959868772,0.0588387884336612,0.132570382238498
1580422358.21613,-0.99635309376669,0.0681162737468526,0.132570382238498
1580422358.22013,-0.999282825970855,0.0886243991760125,0.128175783932249
1580422358.22413,-1.0036774242771,0.11108567940795,0.127687495231555
1580422358.22813,-1.00221255817502,0.128664072632944,0.119386587319752
1580422358.23213,-1.00270084687572,0.133546959639887,0.11450370031281
1580422358.23612,-1.00563057907988,0.125734340428778,0.10766765850309
1580422358.24012,-1.00611886778058,0.122316319523918,0.116945143816281
1580422358.24412,-1.00758373388266,0.112062256809338,0.128664072632944
1580422358.24812,-1.00953688868544,0.110597390707255,0.144289311055161
1580422358.25212,-1.00074769207294,0.101808194094758,0.167238879987792
1580422358.25612,-0.992446784161135,0.0778820477607383,0.183352407110704
1580422358.26012,-0.979751277943084,0.0324711985961699,0.194094758525978
1580422358.26411,-0.968032349126421,-0.0217288471808956,0.198977645532921
1580422358.26811,-0.953383688105593,-0.067139696345464,0.193606469825284
1580422358.27211,-0.938735027084764,-0.110109102006561,0.186282139314869
1580422358.27609,-0.936293583581293,-0.135500114442664,0.184817273212786
1580422358.28009,-0.937270160982681,-0.154055085069047,0.187747005416952
1580422358.28409,-0.939223315785458,-0.161379415579461,0.198489356832226
1580422358.28809,-0.94508278019379,-0.174074921797512,0.217532616159303
1580422358.29209,-0.95191882200351,-0.190676737621118,0.224856946669718
1580422358.29609,-0.95191882200351,-0.228274967574578,0.226321812771801
1580422358.30008,-0.950453955901427,-0.274662394140536,0.228274967574578
1580422358.30408,-0.947524223697261,-0.32983901731899,0.232181277180132
1580422358.30808,-0.940199893186847,-0.388433661402305,0.218997482261386
1580422358.31208,-0.924086366063936,-0.439703974975204,0.213138017853055
1580422358.31608,-0.907972838941024,-0.479255359731441,0.216556038757915
1580422358.32008,-0.88697642481117,-0.492439154650187,0.219974059662775
1580422358.32408,-0.86988632028687,-0.49390402075227,0.221438925764858
1580422358.32808,-0.848889906157016,-0.48706797894255,0.228274967574578
1580422358.33207,-0.824963759822996,-0.484138246738384,0.232669565880826
1580422358.33607,-0.805432211795225,-0.489509422446021,0.231204699778743
1580422358.34007,-0.79810788128481,-0.485114824139773,0.235111009384298
1580422358.34407,-0.797131303883422,-0.46655985351339,0.241458762493323
1580422358.34807,-0.79810788128481,-0.453376058594644,0.255619134813458
1580422358.35207,-0.780041199359122,-0.444586861982147,0.255619134813458
1580422358.35608,-0.752697032120242,-0.45972381170367,0.231692988479438
1580422358.36008,-0.720958266575112,-0.474860761425193,0.180910963607232
1580422358.36408,-0.707286182955672,-0.483161669336996,0.132570382238498
1580422358.36807,-0.707286182955672,-0.462653543907836,0.105226214999618
1580422358.37207,-0.726329442282749,-0.416754406042573,0.105714503700312
1580422358.37607,-0.754650186923019,-0.368413824673839,0.113038834210727
1580422358.38007,-0.775646601052873,-0.327885862516213,0.101808194094758
1580422358.38407,-0.804455634393836,-0.313237201495385,0.0847180895704582
1580422358.38807,-0.834241245136187,-0.316655222400245,0.0754406042572668
1580422358.39207,-0.878675516899367,-0.325444419012742,0.0471198596169984
1580422358.39607,-0.921644922560464,-0.321049820706493,0.0168459601739528
1580422358.40006,-0.966567483024338,-0.301029983978028,0.0104982070649271
1580422358.40406,-1.00563057907988,-0.282475013351645,0.00317387655451284
1580422358.40806,-1.03102159151598,-0.274174105439842,-0.00219729915312428
1580422358.41206,-1.04371709773404,-0.277592126344702,-0.0168459601739528
1580422358.41606,-1.05104142824445,-0.295170519569696,-0.0339360646982527
1580422358.42006,-1.04567025253681,-0.325932707713436,-0.0305180437933927
1580422358.42406,-1.0378576333257,-0.35718318455787,-0.0227054245822842
1580422358.42806,-1.03053330281529,-0.385992217898833,-0.00805676356145568
1580422358.43205,-1.01881437399863,-0.410894941634242,-0.0124513618677042
1580422358.43603,-0.99977111467155,-0.436774242771039,-0.0236820019836728
1580422358.44003,-0.977798123140307,-0.459235523002976,-0.0397955291065841
1580422358.44403,-0.956313420309758,-0.478278782330053,-0.041260395208667
1580422358.44803,-0.940199893186847,-0.480720225833524,-0.024170290684367
1580422358.45203,-0.927504386968796,-0.466071564812696,0.00952162966353853
1580422358.45603,-0.92115663385977,-0.450446326390479,0.0261234454871442
1580422358.46003,-0.911879148546578,-0.441657129777981,0.00561532005798426
1580422358.46403,-0.902601663233387,-0.455817502098116,-0.0373540856031127
1580422358.46802,-0.892347600518807,-0.484626535439078,-0.0583504997329669
1580422358.47202,-0.895277332722973,-0.511970702677958,-0.0588387884336612
1580422358.47602,-0.902601663233387,-0.52808422980087,-0.0466315709163041
1580422358.48002,-0.915297169451438,-0.530037384603647,-0.0280766002899213
1580422358.48402,-0.92457465476463,-0.52808422980087,-0.0271000228885327
1580422358.48802,-0.915297169451438,-0.521736476691844,-0.0314946211947813
1580422358.49202,-0.903578240634776,-0.519295033188373,-0.0334477759975584
1580422358.49602,-0.891859311818113,-0.522713054093233,-0.0505378805218584
1580422358.50002,-0.877698939497979,-0.527107652399481,-0.0500495918211641
1580422358.50401,-0.888441290913253,-0.52124818799115,-0.0100099183642328
1580422358.50801,-0.899671931029221,-0.50074006256199,0.0271000228885327
1580422358.51201,-0.91090257114519,-0.489997711146716,0.0490730144197755
1580422358.51602,-0.909925993743801,-0.497810330357824,0.0368657969024184
1580422358.52002,-0.906507972838941,-0.515877012283513,-0.00415045395590141
1580422358.52402,-0.903089951934081,-0.533943694209201,-0.0437018387121384
1580422358.52802,-0.913344014648661,-0.535408560311284,-0.0661631189440754
1580422358.53202,-0.925551232166018,-0.508552681773098,-0.0529793240253298
1580422358.53602,-0.942641336690318,-0.46997787441825,-0.0173342488746471
1580422358.54001,-0.943129625391013,-0.448493171587701,-0.0251468680857556
1580422358.54401,-0.936781872281987,-0.455329213397421,-0.0451667048142212
1580422358.54801,-0.933363851377127,-0.47681391622797,-0.0686045624475469
1580422358.55201,-0.937758449683376,-0.501228351262684,-0.0813000686655982
1580422358.55601,-0.945571068894484,-0.501716639963378,-0.0690928511482412
1580422358.56001,-0.957778286411841,-0.48023193713283,-0.0725108720531011
1580422358.56401,-0.948989089799344,-0.45630579079881,-0.0886243991760125
1580422358.568,-0.927504386968796,-0.450446326390479,-0.0983901731898982
1580422358.572,-0.913832303349356,-0.464606698710613,-0.0949721522850382
1580422358.576,-0.918715190356298,-0.482673380636301,-0.0876478217746239
1580422358.58,-0.934340428778516,-0.496833752956436,-0.0803234912642097
1580422358.584,-0.950453955901427,-0.506111238269627,-0.0822766460669868
1580422358.588,-0.959243152513924,-0.501228351262684,-0.0949721522850382
1580422358.592,-0.96217288471809,-0.486579690241856,-0.110109102006561
1580422358.59598,-0.959731441214618,-0.474860761425193,-0.136476691844052
1580422358.59998,-0.967055771725033,-0.469001297016861,-0.170168612191958
1580422358.60397,-0.974380102235447,-0.466071564812696,-0.193606469825284
1580422358.60797,-0.988052185854887,-0.459235523002976,-0.188723582818341
1580422358.61197,-1.00025940337224,-0.44263370717937,-0.178469520103761
1580422358.61597,-1.01393148699168,-0.425055313954376,-0.171633478294041
1580422358.61997,-1.0041657129778,-0.407965209430076,-0.174074921797512
1580422358.62397,-0.985122453650721,-0.395269703212024,-0.170168612191958
1580422358.62797,-0.971938658731975,-0.384039063096056,-0.184328984512092
1580422358.63197,-0.952407110704204,-0.374761577782865,-0.179934386205844
1580422358.63596,-0.946547646295873,-0.357671473258565,-0.152590218966964
1580422358.63996,-0.948989089799344,-0.348393987945373,-0.144289311055161
1580422358.64396,-0.954360265506981,-0.355230029755093,-0.150148775463492
1580422358.64796,-0.956313420309758,-0.370366979476616,-0.114015411612115
1580422358.65196,-0.964614328221561,-0.380132753490502,-0.0783703364614325
1580422358.65596,-0.97584496833753,-0.393804837109942,-0.041260395208667
1580422358.65996,-1.00074769207294,-0.391851682307164,-0.0144045166704814
1580422358.66396,-1.00709544518196,-0.386968795300222,-0.0300297550926985
1580422358.66795,-1.00025940337224,-0.38452735179675,-0.0471198596169984
1580422358.67195,-0.990493629358358,-0.383550774395362,-0.0559090562294955
1580422358.67596,-0.987075608453498,-0.384039063096056,-0.0764171816586554
1580422358.67996,-0.988540474555581,-0.366948958571756,-0.0598153658350498
1580422358.68396,-1.00709544518196,-0.320561532005799,-0.0290531776913099
1580422358.68796,-1.0036774242771,-0.286869611657893,-0.0573739223315783
1580422358.69196,-0.987563897154192,-0.281010147249562,-0.0607919432364383
1580422358.69596,-0.98609903105211,-0.299565117875945,-0.0769054703593497
1580422358.69996,-0.981704432745861,-0.321538109407188,-0.080811779964904
1580422358.70395,-0.97926298924239,-0.34692912184329,-0.0764171816586554
1580422358.70795,-0.969985503929198,-0.372808422980087,-0.0798352025635154
1580422358.71195,-0.963149462119478,-0.392828259708553,-0.0754406042572668
1580422358.71595,-0.956801709010453,-0.400152590218967,-0.0529793240253298
1580422358.71995,-0.95533684290837,-0.389898527504387,-0.0466315709163041
1580422358.72395,-0.95191882200351,-0.389898527504387,-0.0593270771343555
1580422358.72795,-0.939223315785458,-0.388433661402305,-0.0563973449301898
1580422358.73195,-0.939711604486153,-0.365972381170367,-0.0437018387121384
1580422358.73594,-0.949965667200733,-0.334721904325933,-0.0563973449301898
1580422358.73994,-0.939711604486153,-0.313237201495385,-0.0710460059510183
1580422358.74394,-0.93141069657435,-0.299076829175251,-0.0710460059510183
1580422358.74794,-0.937270160982681,-0.284916456855116,-0.0754406042572668
1580422358.75194,-0.940688181887541,-0.267338063630122,-0.0764171816586554
1580422358.75592,-0.940688181887541,-0.246341649500266,-0.0813000686655982
1580422358.75992,-0.936781872281987,-0.227786678873883,-0.0876478217746239
1580422358.76392,-0.928969253070878,-0.206790264744029,-0.0896009765774011
1580422358.76792,-0.917250324254216,-0.187747005416952,-0.0866712443732354
1580422358.77191,-0.897718776226444,-0.177492942702372,-0.0954604409857325
1580422358.77591,-0.88355840390631,-0.183352407110704,-0.0979018844892039
1580422358.77991,-0.874280918593119,-0.191165026321812,-0.0920424200808725
1580422358.78391,-0.865491721980622,-0.200442511635003,-0.073975738155184
1580422358.78791,-0.865980010681316,-0.206790264744029,-0.0666514076447697
1580422358.79191,-0.867444876783399,-0.215091172655832,-0.0646982528419926
1580422358.79591,-0.868909742885482,-0.228763256275272,-0.0734874494544897
1580422358.79991,-0.867444876783399,-0.242923628595406,-0.0734874494544897
1580422358.80391,-0.871351186388953,-0.249759670405126,-0.0798352025635154
1580422358.8079,-0.875745784695201,-0.249759670405126,-0.077393759060044
1580422358.8119,-0.888441290913253,-0.242435339894712,-0.0827649347676811
1580422358.8159,-0.89723048752575,-0.223392080567635,-0.0744640268558783
1580422358.8199,-0.909437705043107,-0.198489356832226,-0.0793469138628211
1580422358.8239,-0.92115663385977,-0.187258716716258,-0.0915541313801782
1580422358.8279,-0.93824673838407,-0.187747005416952,-0.096437018387121
1580422358.8319,-0.954848554207675,-0.187747005416952,-0.0939955748836496
1580422358.83591,-0.978286411841001,-0.201907377737086,-0.0749523155565726
1580422358.83991,-0.993911650263218,-0.224368657969023,-0.0529793240253298
1580422358.8439,-0.99977111467155,-0.238040741588463,-0.044678416113527
1580422358.8479,-1.0036774242771,-0.253665980010682,-0.048096437018387
1580422358.8519,-0.99635309376669,-0.265384908827345,-0.0563973449301898
1580422358.8559,-0.97926298924239,-0.278568703746091,-0.060303654535744
1580422358.8599,-0.961196307316701,-0.264896620126651,-0.0568856336308841
1580422358.8639,-0.957778286411841,-0.225833524071106,-0.0441901274128327
1580422358.8679,-0.957289997711147,-0.175539787899595,-0.0456549935149155
1580422358.87189,-0.956313420309758,-0.141359578850995,-0.0715342946517126
1580422358.87589,-0.957778286411841,-0.130128938735027,-0.104737926298924
1580422358.87989,-0.963637750820173,-0.138429846646829,-0.127199206530861
1580422358.88389,-0.994888227664607,-0.119874876020447,-0.111573968108644
1580422358.88789,-1.0378576333257,-0.0778820477607383,-0.106202792401007
1580422358.89189,-1.05006485084306,-0.048096437018387,-0.143801022354467
1580422358.89589,-1.04225223163195,-0.0588387884336612,-0.184328984512092
1580422358.89989,-1.05836575875486,-0.10766765850309,-0.202883955138475
1580422358.90388,-1.08326848249027,-0.154543373769741,-0.192141603723201
1580422358.90788,-1.10328831921874,-0.186282139314869,-0.171633478294041
1580422358.91188,-1.10572976272221,-0.202883955138475,-0.157473105973907
1580422358.91586,-1.09108110170138,-0.217532616159303,-0.168703746089875
1580422358.91986,-1.06617837796597,-0.230228122377355,-0.185793850614175
1580422358.92386,-1.04225223163195,-0.237064164187075,-0.185793850614175
1580422358.92786,-1.01539635309377,-0.249759670405126,-0.184817273212786
1580422358.93186,-0.98268101014725,-0.265384908827345,-0.207278553444723
1580422358.93586,-0.963637750820173,-0.293217364766919,-0.231204699778743
1580422358.93985,-0.949965667200733,-0.312748912794691,-0.213626306553749
1580422358.94385,-0.94850080109865,-0.313725490196079,-0.146242465857938
1580422358.94785,-0.957289997711147,-0.309330891889831,-0.0944838635843439
1580422358.95185,-0.965102616922255,-0.315678644998856,-0.0749523155565726
1580422358.95585,-0.97584496833753,-0.322514686808576,-0.0720225833524069
1580422358.95985,-0.993423361562524,-0.325932707713436,-0.073975738155184
1580422358.96385,-1.00514229037919,-0.332768749523156,-0.0832532234683754
1580422358.96785,-1.01637293049516,-0.327885862516213,-0.0876478217746239
1580422358.97184,-1.03053330281529,-0.311284046692608,-0.0891126878767068
1580422358.97584,-1.03297474631876,-0.287357900358588,-0.0949721522850382
1580422358.97984,-1.02760357061112,-0.266361486228734,-0.100343327992675
1580422358.98384,-1.02272068360418,-0.242435339894712,-0.104737926298924
1580422358.98784,-1.01100175478752,-0.215091172655832,-0.116456855115587
1580422358.99184,-1.00025940337224,-0.190188448920424,-0.11108567940795
1580422358.99585,-0.984145876249332,-0.170168612191958,-0.117433432516975
1580422358.99985,-0.971450370031281,-0.158937972075989,-0.128175783932249
1580422359.00385,-0.959243152513924,-0.157961394674601,-0.130617227435721
1580422359.00785,-0.95191882200351,-0.165774013885709,-0.134523537041275
1580422359.01184,-0.953871976806287,-0.168215457389181,-0.126222629129472
1580422359.01584,-0.96217288471809,-0.165774013885709,-0.113527122911421
1580422359.01984,-0.973891813534753,-0.161867704280155,-0.111573968108644
1580422359.02384,-0.987563897154192,-0.157961394674601,-0.121828030823224
1580422359.02784,-1.00758373388266,-0.151613641565575,-0.135988403143358
1580422359.03184,-1.03297474631876,-0.144777599755855,-0.158937972075989
1580422359.03584,-1.05299458304723,-0.134523537041275,-0.173098344396124
1580422359.03984,-1.07301441977569,-0.133058670939192,-0.200442511635003
1580422359.04383,-1.08033875028611,-0.134035248340581,-0.223880369268329
1580422359.04783,-1.09254596780346,-0.122316319523918,-0.226321812771801
1580422359.05183,-1.10572976272221,-0.105226214999618,-0.219974059662775
1580422359.05583,-1.10475318532082,-0.0954604409857325,-0.230716411078049
1580422359.05983,-1.09694056610971,-0.0852063782711525,-0.222903791866941
1580422359.06383,-1.07887388418402,-0.0925307087815668,-0.204348821240558
1580422359.06783,-1.06569008926528,-0.103761348897535,-0.164309147783626
1580422359.07183,-1.05201800564584,-0.123781185626001,-0.128175783932249
1580422359.0758,-1.04859998474098,-0.146730754558632,-0.0930189974822611
1580422359.0798,-1.04225223163195,-0.171633478294041,-0.067139696345464
1580422359.0838,-1.03736934462501,-0.205325398641946,-0.0622568093385212
1580422359.0878,-1.03150988021668,-0.231204699778743,-0.0954604409857325
1580422359.0918,-1.02516212710765,-0.252201113908599,-0.150148775463492
1580422359.0958,-1.03590447852293,-0.247318226901655,-0.170168612191958
1580422359.0998,-1.05494773785,-0.215091172655832,-0.162355992980849
1580422359.1038,-1.07154955367361,-0.168215457389181,-0.164309147783626
1580422359.1078,-1.11696040283818,-0.0632333867399097,-0.0622568093385212
1580422359.11179,-1.20192263675898,0.127199206530861,0.0485847257190812
1580422359.11579,-1.19508659494926,0.227786678873883,0.0046387426565957
1580422359.11979,-1.12867933165484,0.161867704280155,-0.0373540856031127
1580422359.12379,-1.08033875028611,-0.0617685206378269,-0.0588387884336612
1580422359.12779,-1.07887388418402,-0.345464255741208,-0.0700694285496297
1580422359.13179,-1.11061264972915,-0.571053635461967,-0.041260395208667
1580422359.13579,-1.14430457007706,-0.702403295948729,0.00903334096284425
1580422359.13978,-1.1408865491722,-0.762951094834822,0.0124513618677042
1580422359.14378,-1.08229190508888,-0.778576333257039,0.000244144350347142
1580422359.14778,-1.02516212710765,-0.752697032120242,-0.0197756923781185
1580422359.15178,-1.01051346608682,-0.735118638895246,-0.0397955291065841
1580422359.15579,-1.05885404745556,-0.746349279011215,-0.112550545510032
1580422359.15979,-1.16481269550622,-0.751720454718853,-0.190676737621118
1580422359.16379,-1.28981460288396,-0.702891584649423,-0.252201113908599
1580422359.16779,-1.37233539330129,-0.606210421911955,-0.322514686808576
1580422359.17179,-1.38356603341726,-0.504646372167544,-0.42896162355993
1580422359.17579,-1.35329213397421,-0.420172426947433,-0.534431982909895
1580422359.17978,-1.33083085374228,-0.352300297550928,-0.597421225299458
1580422359.18378,-1.33571374074922,-0.271732661936371,-0.636972610055695
1580422359.18778,-1.35378042267491,-0.198977645532921,-0.7048447394522
1580422359.19178,-1.38258945601587,-0.161867704280155,-0.771740291447319
1580422359.19578,-1.40798046845197,-0.163820859082932,-0.879652094300756
1580422359.19978,-1.4226291294728,-0.236087586785686,-0.980727855344472
1580422359.20378,-1.43532463569085,-0.352788586251622,-1.05836575875486
1580422359.20778,-1.44264896620127,-0.462165255207141,-1.10328831921874
1580422359.21177,-1.45436789501793,-0.544686045624475,-1.10914778362707
1580422359.21577,-1.45143816281376,-0.594003204394598,-1.08131532768749
1580422359.21977,-1.41530479896239,-0.618905928130006,-1.08815136949721
1580422359.22377,-1.35036240177005,-0.579842832074464,-1.1233081559472
1580422359.22777,-1.25661097123674,-0.521736476691844,-1.08766308079652
1580422359.23177,-1.16823071641108,-0.46655985351339,-0.99977111467155
1580422359.23578,-1.10865949492637,-0.486091401541161,-0.86988632028687
1580422359.23978,-1.04322880903334,-0.668711375600823,-0.621347371633478
1580422359.24378,-1.01686121919585,-0.885023270008393,-0.498786907759213
1580422359.24777,-1.07740901808194,-0.94166475928893,-0.509040970473793
1580422359.25177,-1.10817120622568,-0.744396124208437,-0.656015869382772
1580422359.25577,-1.06031891355764,-0.386968795300222,-0.842053864347296
1580422359.25977,-0.948989089799344,-0.048096437018387,-0.988052185854887
1580422359.26377,-0.84937819485771,0.228763256275272,-1.06715495536736
1580422359.26777,-0.803967345693142,0.494392309452962,-1.04518196383612
1580422359.27177,-0.800549324788282,0.750743877317465,-0.959731441214618
1580422359.27577,-0.785900663767453,0.943129625391013,-0.860120546272984
1580422359.27976,-0.753185320820936,1.01783779659724,-0.750255588616771
1580422359.28376,-0.700938429846646,0.962661173418784,-0.649179827573052
1580422359.28776,-0.639414053559166,0.860608834973679,-0.572030212863355
1580422359.29176,-0.614023041123064,0.808850232700085,-0.46655985351339
1580422359.29576,-0.606210421911955,0.797131303883422,-0.376714732585642
1580422359.29976,-0.606210421911955,0.786388952468148,-0.280521858548868
1580422359.30376,-0.635996032654306,0.769298847943848,-0.155519951171129
1580422359.30776,-0.685313191424429,0.749279011215382,-0.0222171358815899
1580422359.31175,-0.734142061493857,0.721446555275808,0.112062256809338
1580422359.31573,-0.778576333257039,0.680430304417488,0.240970473792629
1580422359.31973,-0.816174563210499,0.630624856946671,0.365484092469671
1580422359.32373,-0.854261081864653,0.587655451285574,0.491950865949491
1580422359.32773,-0.883070115205616,0.553475242236974,0.612069886320288
1580422359.33173,-0.899183642328527,0.537850003814757,0.711680781261922
1580422359.33573,-0.903089951934081,0.530037384603649,0.784924086366065
1580422359.33973,-0.899671931029221,0.532967116807814,0.84937819485771
1580422359.34373,-0.892835889219501,0.531990539406426,0.886488136110476
1580422359.34772,-0.88697642481117,0.528572518501566,0.920180056458381
1580422359.35172,-0.878187228198673,0.529549095902954,0.948012512397955
1580422359.35572,-0.858167391470207,0.523201342793929,0.958266575112535
1580422359.35972,-0.841565575646602,0.513435568780043,0.945571068894484
1580422359.36372,-0.833752956435493,0.509529259174489,0.924086366063936
1580422359.36772,-0.834729533836882,0.506599526970323,0.896253910124361
1580422359.37172,-0.84596017395285,0.506111238269629,0.852307927061876
1580422359.37572,-0.867933165484093,0.495857175555045,0.806897077897307
1580422359.37971,-0.896742198825056,0.484138246738382,0.747325856412605
1580422359.38371,-0.933852140077821,0.461676966506445,0.695567254139011
1580422359.38771,-0.98268101014725,0.423590447852291,0.636972610055697
1580422359.39171,-1.03688105592432,0.383062485694666,0.576424811169606
1580422359.39572,-1.09938200961318,0.32202639810788,0.514900434882126
1580422359.39972,-1.17360189211871,0.244388494697489,0.446051728084228
1580422359.40372,-1.25709925993744,0.171145189593346,0.3801327534905
1580422359.40772,-1.34157320515755,0.0925307087815668,0.31860837720302
1580422359.41172,-1.42018768596933,0.0178225375753414,0.260013733119706
1580422359.41571,-1.49587243457694,-0.063721675440604,0.197512779430838
1580422359.41971,-1.55837338826581,-0.144777599755855,0.125734340428778
1580422359.42371,-1.60134279392691,-0.242923628595406,0.0573739223315783
1580422359.42771,-1.61843289845121,-0.328862439917602,0.00122072175173571
1580422359.43171,-1.61257343404288,-0.419195849546044,-0.0422369726100555
1580422359.43571,-1.59157701991302,-0.510505836575875,-0.0837415121690697
1580422359.43971,-1.56081483176928,-0.599862668802929,-0.120363164721141
1580422359.44371,-1.53249408712901,-0.684824902723735,-0.137453269245441
1580422359.44771,-1.50514991989014,-0.777111467154956,-0.141847867551689
1580422359.4517,-1.48366521705959,-0.86988632028687,-0.148195620660715
1580422359.4557,-1.47341115434501,-0.952895399404898,-0.144289311055161
1580422359.4597,-1.45387960631724,-1.03688105592432,-0.139406424048218
1580422359.4637,-1.4309300373846,-1.08619821469444,-0.132082093537804
1580422359.4677,-1.39967956054017,-1.10817120622568,-0.132570382238498
1580422359.4717,-1.36403448538949,-1.11061264972915,-0.132570382238498
1580422359.47565,-1.31276417181659,-1.10475318532082,-0.145754177157244
1580422359.47965,-1.2600289921416,-1.09645227740902,-0.163820859082932
1580422359.48364,-1.20289921416037,-1.08815136949721,-0.172610055695429
1580422359.48764,-1.14528114747845,-1.08570992599374,-0.181399252307926
1580422359.49164,-1.09059281300069,-1.08278019378958,-0.184328984512092
1580422359.49564,-1.04176394293126,-1.0808270389868,-0.180910963607232
1580422359.49964,-0.993911650263218,-1.07789730678263,-0.170168612191958
1580422359.50364,-0.959243152513924,-1.07594415197986,-0.171145189593346
1580422359.50764,-0.927016098268101,-1.07106126497291,-0.177492942702372
1580422359.51163,-0.896742198825056,-1.06129549095903,-0.206790264744029
1580422359.51563,-0.872327763790341,-1.03053330281529,-0.235599298084992
1580422359.51963,-0.857190814068819,-0.995376516365301,-0.260990310521096
1580422359.52363,-0.840588998245213,-0.94850080109865,-0.281010147249562
1580422359.52763,-0.821057450217442,-0.899183642328527,-0.293705653467613
1580422359.53163,-0.804455634393836,-0.850354772259099,-0.302983138780805
1580422359.53563,-0.795666437781339,-0.821057450217442,-0.315678644998856
1580422359.53963,-0.790295262073702,-0.796154726482033,-0.32983901731899
1580422359.54362,-0.784924086366065,-0.779064621957733,-0.335210193026628
1580422359.54762,-0.786877241168842,-0.757579919127185,-0.33325703822385
1580422359.55162,-0.780529488059816,-0.736095216296635,-0.343999389639125
1580422359.55563,-0.783459220263982,-0.736583504997329,-0.334721904325933
1580422359.55963,-0.797131303883422,-0.737560082398717,-0.330327306019685
1580422359.56363,-0.812268253604945,-0.729747463187609,-0.330327306019685
1580422359.56763,-0.851331349660487,-0.710704203860532,-0.373296711680782
1580422359.57163,-0.885511558709087,-0.682383459220263,-0.353276874952316
1580422359.57563,-0.90748455024033,-0.656504158083466,-0.285404745555811
1580422359.57963,-0.904554818036164,-0.693125810635538,-0.218509193560692
1580422359.58362,-0.898207064927139,-0.814221408407722,-0.159914549477378
1580422359.58762,-0.887464713511864,-0.954360265506981,-0.177004654001678
1580422359.59162,-0.905531395437553,-0.980727855344472,-0.226321812771801
1580422359.59562,-0.936781872281987,-0.928969253070878,-0.178469520103761
1580422359.59962,-0.905043106736859,-0.931898985275044,-0.189700160219729
1580422359.60362,-0.919691767757687,-0.819592584115359,-0.286869611657893
1580422359.60762,-1.03053330281529,-0.44605172808423,-0.282963302052339
1580422359.61162,-1.14772259098192,0.0690928511482412,-0.0827649347676811
1580422359.61561,-1.24733348592355,0.587655451285574,0.160891126878766
1580422359.61961,-1.30885786221103,1.00025940337224,0.278080415045395
1580422359.62361,-1.33034256504158,1.16725413900969,0.247318226901655
1580422359.62761,-1.29713893339437,1.10572976272221,0.165774013885709
1580422359.63161,-1.25368123903258,0.967544060425727,0.143312733653772
1580422359.63559,-1.22780193789578,0.764415960936905,0.120363164721141
1580422359.63959,-1.25075150682841,0.5256427862974,0.12475776302739
1580422359.64359,-1.31471732661936,0.28442816815442,0.141359578850995
1580422359.64758,-1.38356603341726,0.01196307316701,0.118410009918364
1580422359.65158,-1.41579308766308,-0.268802929732205,0.10083161669337
1580422359.65558,-1.43337148088808,-0.527595941100175,0.099855039291981
1580422359.65958,-1.41091020065614,-0.777111467154956,-0.0373540856031127
1580422359.66358,-1.37428854810407,-0.950942244602121,-0.294193942168308
1580422359.66758,-1.34401464866102,-1.00172426947433,-0.469489585717556
1580422359.67158,-1.32692454413672,-0.934340428778516,-0.474860761425193
1580422359.67558,-1.33229571984436,-0.803967345693142,-0.512458991378653
1580422359.67958,-1.35573357747768,-0.623788815136949,-0.556893263141832
1580422359.68357,-1.3625696192874,-0.468024719615473,-0.448493171587701
1580422359.68757,-1.34645609216449,-0.381597619592585,-0.362554360265507
1580422359.69157,-1.33424887464714,-0.372808422980087,-0.251712825207905
1580422359.69557,-1.37526512550546,-0.388921950102999,0.0246585793850613
1580422359.69957,-1.45485618371862,-0.339604791332876,0.285404745555809
1580422359.70357,-1.5080796520943,-0.295658808270391,0.307377737087052
1580422359.70757,-1.47780575265126,-0.363530937666896,0.129152361333638
1580422359.71157,-1.33962005035477,-0.434821087968261,-0.115480277714198
1580422359.71558,-1.16237125200275,-0.430426489662013,-0.335210193026628
1580422359.71957,-1.0212558175021,-0.42212558175021,-0.487556267643244
1580422359.72357,-0.932387273975738,-0.424078736552987,-0.496345464255741
1580422359.72757,-0.898207064927139,-0.448981460288396,-0.38452735179675
1580422359.73157,-0.895277332722973,-0.489021133745327,-0.291752498664836
1580422359.73557,-0.891371023117419,-0.530037384603647,-0.266849774929428
1580422359.73957,-0.882581826504921,-0.578866254673075,-0.312260624093996
1580422359.74357,-0.863538567177844,-0.604257267109178,-0.39136339360647
1580422359.74757,-0.838635843442436,-0.586190585183489,-0.48023193713283
1580422359.75156,-0.802014190890365,-0.534431982909895,-0.575448233768215
1580422359.75556,-0.760997940032045,-0.49048599984741,-0.632089723048752
1580422359.75956,-0.74927901121538,-0.423590447852293,-0.643808651865415
1580422359.76356,-0.777111467154956,-0.325444419012742,-0.609140154116121
1580422359.76756,-0.813733119707027,-0.214114595254443,-0.542244602121004
1580422359.77156,-0.852307927061876,-0.133058670939192,-0.499763485160601
1580422359.77556,-0.881605249103533,-0.0847180895704582,-0.516853589684901
1580422359.77956,-0.915785458152133,-0.0681162737468526,-0.516853589684901
1580422359.78356,-0.954848554207675,-0.0803234912642097,-0.508552681773098
1580422359.78755,-0.98951705195697,-0.124269474326695,-0.49732204165713
1580422359.79155,-1.02272068360418,-0.148195620660715,-0.44605172808423
1580422359.79553,-1.04811169604028,-0.155519951171129,-0.375738155184253
1580422359.79953,-1.05836575875486,-0.194094758525978,-0.303959716182193
1580422359.80353,-1.05250629434653,-0.269291218432899,-0.286381322957199
1580422359.80753,-1.05983062485695,-0.324956130312048,-0.289799343862059
1580422359.81153,-1.06959639887083,-0.335698481727322,-0.248294804303043
1580422359.81553,-1.05494773785,-0.339116502632182,-0.209231708247501
1580422359.81952,-1.01393148699168,-0.348393987945373,-0.224856946669718
1580422359.82352,-0.984634164950027,-0.317143511100939,-0.243900205996795
1580422359.82752,-0.976333257038224,-0.226810101472495,-0.214602883955138
1580422359.83152,-0.982192721446555,-0.070557717250324,-0.110109102006561
1580422359.83552,-0.981216144045167,0.0754406042572668,-0.107179369802395
1580422359.83952,-0.946547646295873,0.158937972075989,-0.220950637064163
1580422359.84352,-0.902601663233387,0.160891126878766,-0.252689402609294
1580422359.84752,-0.877698939497979,0.0881361104753182,-0.249271381704432
1580422359.85151,-0.88014038300145,-0.00170901045242999,-0.247318226901655
1580422359.85551,-0.922621499961853,-0.0568856336308841,-0.215579461356526
1580422359.85951,-0.963637750820173,-0.0676279850461583,-0.191653315022506
1580422359.86351,-0.951430533302815,-0.0939955748836496,-0.203372243839169
1580422359.86751,-0.919691767757687,-0.150148775463492,-0.259037155718319
1580422359.87151,-0.915297169451438,-0.188723582818341,-0.294193942168308
1580422359.87552,-0.929457541771573,-0.179446097505149,-0.303471427481499
1580422359.87952,-0.928480964370184,-0.163332570382238,-0.284916456855116
1580422359.88352,-0.927504386968796,-0.160402838178072,-0.290775921263448
1580422359.88751,-0.935317006179904,-0.128664072632944,-0.312260624093996
1580422359.89151,-0.95191882200351,-0.0861829556725411,-0.282963302052339
1580422359.89551,-0.963637750820173,-0.0744640268558783,-0.266849774929428
1580422359.89951,-0.96217288471809,-0.0925307087815668,-0.278080415045396
1580422359.90351,-0.969985503929198,-0.110109102006561,-0.257084000915542
1580422359.90751,-0.983657587548638,-0.127687495231555,-0.229739833676661
1580422359.91151,-0.97242694743267,-0.160891126878766,-0.257572289616236
1580422359.91551,-0.966079194323644,-0.190676737621118,-0.274662394140536
1580422359.9195,-0.99635309376669,-0.165285725185015,-0.23657587548638
1580422359.9235,-1.00904859998474,-0.111573968108644,-0.253177691309988
1580422359.9275,-0.984145876249332,-0.0871595330739297,-0.274174105439842
1580422359.9315,-0.97584496833753,-0.0910658426794839,-0.293217364766919
1580422359.9355,-0.984634164950027,-0.0900892652780954,-0.296635385671779
1580422359.9395,-0.994888227664607,-0.0974135957885096,-0.278080415045396
1580422359.9435,-0.993423361562524,-0.132570382238498,-0.278568703746091
1580422359.9475,-1.00904859998474,-0.154543373769741,-0.267338063630122
1580422359.95149,-1.02711528191043,-0.145754177157244,-0.259525444419014
1580422359.95547,-1.01490806439307,-0.143312733653772,-0.276615548943314
1580422359.95947,-0.984145876249332,-0.164797436484321,-0.294193942168308
1580422359.96347,-0.975356679636835,-0.172121766994735,-0.285893034256505
1580422359.96747,-0.977309834439613,-0.143801022354467,-0.278080415045396
1580422359.97147,-0.962661173418784,-0.143801022354467,-0.278568703746091
1580422359.97547,-0.947035934996567,-0.189700160219729,-0.285404745555811
1580422359.97947,-0.953383688105593,-0.201419089036392,-0.252201113908599
1580422359.98347,-0.984634164950027,-0.150637064164187,-0.241947051194018
1580422359.98746,-0.978286411841001,-0.142336156252384,-0.269779507133594
1580422359.99146,-0.95533684290837,-0.185793850614175,-0.306401159685665
1580422359.99546,-0.966567483024338,-0.209231708247501,-0.293705653467613
1580422359.99946,-0.992446784161135,-0.191165026321812,-0.266849774929428
1580422360.00346,-0.998306248569467,-0.186770428015564,-0.253177691309988
1580422360.00746,-0.999282825970855,-0.202395666437781,-0.257572289616236
1580422360.01146,-1.01490806439307,-0.183840695811398,-0.244876783398183
1580422360.01546,-1.03443961242084,-0.129640650034332,-0.218997482261386
1580422360.01945,-1.02565041580835,-0.123292896925307,-0.242435339894712
1580422360.02345,-1.00904859998474,-0.162355992980849,-0.249271381704432
1580422360.02745,-1.01539635309377,-0.159426260776684,-0.221438925764858
1580422360.03145,-1.02662699320974,-0.134523537041275,-0.195559624628061
1580422360.03546,-1.01734950789654,-0.157961394674601,-0.205813687342641
1580422360.03946,-1.00465400167849,-0.193118181124589,-0.205325398641946
1580422360.04346,-1.01881437399863,-0.174074921797512,-0.187258716716258
1580422360.04746,-1.02174410620279,-0.135500114442664,-0.189211871519035
1580422360.05146,-0.998794537270161,-0.128175783932249,-0.213626306553749
1580422360.05545,-0.974380102235447,-0.130128938735027,-0.227786678873883
1580422360.05945,-0.968520637827115,-0.103273060196841,-0.225345235370412
1580422360.06345,-0.955825131609064,-0.0866712443732354,-0.242435339894712
1580422360.06745,-0.928480964370184,-0.119874876020447,-0.260502021820402
1580422360.07145,-0.913832303349356,-0.137453269245441,-0.235111009384298
1580422360.07545,-0.927504386968796,-0.0915541313801782,-0.200442511635003
1580422360.07945,-0.92457465476463,-0.0651865415426869,-0.197512779430838
1580422360.08345,-0.899183642328527,-0.0881361104753182,-0.216067750057221
1580422360.08745,-0.89381246662089,-0.110109102006561,-0.207278553444723
1580422360.09144,-0.91432059205005,-0.0856946669718468,-0.205813687342641
1580422360.09544,-0.921644922560464,-0.080811779964904,-0.206790264744029
1580422360.09944,-0.912367437247273,-0.111573968108644,-0.235599298084992
1580422360.10344,-0.917250324254216,-0.12133974212253,-0.234134431982909
1580422360.10744,-0.935805294880598,-0.0852063782711525,-0.206301976043335
1580422360.11144,-0.936781872281987,-0.0725108720531011,-0.229739833676661
1580422360.11542,-0.928969253070878,-0.0817883573662925,-0.24682993820096
1580422360.11942,-0.939223315785458,-0.0661631189440754,-0.253177691309988
1580422360.12341,-0.946547646295873,-0.0432135500114441,-0.269291218432899
1580422360.12741,-0.937270160982681,-0.0505378805218584,-0.290287632562753
1580422360.13141,-0.936293583581293,-0.0764171816586554,-0.291264209964142
1580422360.13541,-0.95191882200351,-0.0729991607537954,-0.281498435950256
1580422360.13941,-0.965102616922255,-0.080811779964904,-0.278080415045396
1580422360.14341,-0.973403524834058,-0.133546959639887,-0.277592126344702
1580422360.14741,-0.983169298847944,-0.193606469825284,-0.265873197528039
1580422360.15141,-1.0129549095903,-0.208255130846112,-0.223880369268329
1580422360.15541,-1.02760357061112,-0.195071335927366,-0.207766842145418
1580422360.1594,-1.01881437399863,-0.231692988479438,-0.235599298084992
1580422360.1634,-0.99977111467155,-0.286869611657893,-0.244876783398183
1580422360.1674,-1.0129549095903,-0.278568703746091,-0.218020904859998
1580422360.1714,-1.01930266269932,-0.224856946669718,-0.190188448920424
1580422360.1754,-0.998306248569467,-0.202395666437781,-0.206790264744029
1580422360.1794,-0.970962081330587,-0.216556038757915,-0.239505607690546
1580422360.1834,-0.970962081330587,-0.208255130846112,-0.214114595254443
1580422360.18739,-0.981216144045167,-0.180422674906538,-0.195559624628061
1580422360.19139,-0.968520637827115,-0.193118181124589,-0.207278553444723
1580422360.1954,-0.956801709010453,-0.228274967574578,-0.221927214465552
1580422360.1994,-0.970473792629893,-0.232181277180132,-0.207278553444723
1580422360.2034,-0.984634164950027,-0.224368657969023,-0.196047913328755
1580422360.2074,-0.980239566643778,-0.2434119172961,-0.205813687342641
1580422360.2114,-0.97584496833753,-0.261966887922485,-0.225345235370412
1580422360.2154,-0.980727855344472,-0.255130846112765,-0.220950637064163
1580422360.2194,-0.989028763256275,-0.245853360799572,-0.223880369268329
1580422360.22339,-0.985610742351415,-0.241947051194018,-0.214114595254443
1580422360.22739,-1.00514229037919,-0.184328984512092,-0.221438925764858
1580422360.23139,-1.02711528191043,-0.10766765850309,-0.23315785458152
1580422360.23539,-1.02858014801251,-0.102784771496147,-0.279545281147479
1580422360.23939,-1.02809185931182,-0.165285725185015,-0.302006561379416
1580422360.24339,-1.06959639887083,-0.230228122377355,-0.283939879453728
1580422360.24739,-1.12770275425345,-0.253177691309988,-0.258060578316931
1580422360.25139,-1.15846494239719,-0.280521858548868,-0.256107423514154
1580422360.25538,-1.16530098420691,-0.321538109407188,-0.266361486228734
1580422360.25938,-1.16774242771038,-0.355230029755093,-0.260502021820402
1580422360.26338,-1.18678568703746,-0.34009308003357,-0.221438925764858
1580422360.26738,-1.19850461585412,-0.285893034256505,-0.180422674906538
1580422360.27138,-1.18776226443885,-0.233646143282215,-0.181399252307926
1580422360.27536,-1.17213702601663,-0.193118181124589,-0.204837109941252
1580422360.27936,-1.16334782940413,-0.146242465857938,-0.228763256275272
1580422360.28336,-1.15602349889372,-0.0983901731898982,-0.242923628595406
1580422360.28736,-1.13893339436942,-0.067139696345464,-0.281010147249562
1580422360.29135,-1.12916762035553,-0.0598153658350498,-0.324467841611353
1580422360.29535,-1.13844510566873,-0.0676279850461583,-0.345952544441902
1580422360.29935,-1.16871900511177,-0.0847180895704582,-0.342534523537042
1580422360.30335,-1.20143434805829,-0.117433432516975,-0.354253452353705
1580422360.30735,-1.23366140230411,-0.162844281681544,-0.358159761959259
1580422360.31135,-1.26149385824369,-0.195071335927366,-0.352788586251622
1580422360.31535,-1.27858396276799,-0.215579461356526,-0.34692912184329
1580422360.31935,-1.27907225146868,-0.238040741588463,-0.347905699244679
1580422360.32334,-1.27809567406729,-0.250736247806516,-0.351812008850233
1580422360.32734,-1.27125963225757,-0.254154268711376,-0.344487678339819
1580422360.33134,-1.26247043564508,-0.257572289616236,-0.344975967040513
1580422360.33534,-1.25807583733883,-0.260013733119708,-0.354741741054399
1580422360.33934,-1.2605172808423,-0.244876783398183,-0.365972381170367
1580422360.34334,-1.25368123903258,-0.209231708247501,-0.378179598687725
1580422360.34734,-1.23366140230411,-0.188723582818341,-0.394293125810636
1580422360.35134,-1.21412985427634,-0.179446097505149,-0.42896162355993
1580422360.35535,-1.21657129777981,-0.158449683375295,-0.436774242771039
1580422360.35934,-1.24196231021591,-0.0959487296864268,-0.438727397573816
1580422360.36334,-1.2600289921416,-0.037842374303807,-0.447516594186313
1580422360.36734,-1.27516594186313,-0.000244144350347142,-0.476325627527276
1580422360.37134,-1.30104524299992,0.0207522697795071,-0.506599526970321
1580422360.37534,-1.33815518425269,0.0432135500114441,-0.506599526970321
1580422360.37934,-1.36452277409018,0.0417486839093613,-0.492927443350881
1580422360.38334,-1.40407415884642,0.0192874036774242,-0.479255359731441
1580422360.38734,-1.43337148088808,-0.0266117341878385,-0.470466163118944
1580422360.39134,-1.4743877317464,-0.0905775539787896,-0.445075150682841
1580422360.39533,-1.51247425040055,-0.163820859082932,-0.426520180056459
1580422360.39933,-1.54665445944915,-0.233646143282215,-0.400152590218967
1580422360.40333,-1.59645990691997,-0.264408331425956,-0.326909285114825
1580422360.40733,-1.64528877698939,-0.263431754024568,-0.294193942168308
1580422360.41133,-1.63894102388037,-0.290287632562753,-0.318120088502328
1580422360.41533,-1.58815899900816,-0.34009308003357,-0.331792172121768
1580422360.41933,-1.53884184023804,-0.39819943541619,-0.286381322957199
1580422360.42332,-1.52565804531929,-0.436285954070344,-0.210696574349583
1580422360.42732,-1.50075532158389,-0.445075150682841,-0.158937972075989
1580422360.43132,-1.45339131761654,-0.44605172808423,-0.126710917830167
1580422360.4353,-1.39479667353323,-0.438239108873121,-0.132082093537804
1580422360.4393,-1.33327229724575,-0.416754406042573,-0.145754177157244
1580422360.4433,-1.26686503395132,-0.386480506599527,-0.177004654001678
1580422360.4473,-1.2092469672694,-0.345464255741208,-0.211673151750972
1580422360.4513,-1.16285954070344,-0.299565117875945,-0.223392080567635
1580422360.4553,-1.11451895933471,-0.267338063630122,-0.237064164187075
1580422360.4593,-1.08424505989166,-0.229251544975966,-0.223392080567635
1580422360.46329,-1.05690089265278,-0.208743419546806,-0.222903791866941
1580422360.46729,-1.02027924010071,-0.212649729152361,-0.229739833676661
1580422360.47129,-0.983169298847944,-0.255619134813459,-0.246341649500266
1580422360.47529,-0.954848554207675,-0.309819180590525,-0.243900205996795
1580422360.47929,-0.939711604486153,-0.34692912184329,-0.226321812771801
1580422360.48329,-0.922133211261158,-0.386968795300222,-0.210208285648889
1580422360.48729,-0.902113374532693,-0.417730983443962,-0.179934386205844
1580422360.49128,-0.892835889219501,-0.409430075532159,-0.132570382238498
1580422360.49528,-0.868909742885482,-0.388921950102999,-0.0754406042572668
1580422360.49928,-0.831311512932022,-0.322514686808576,-0.00512703135728998
1580422360.50328,-0.793713282978562,-0.197512779430838,0.0393072404058898
1580422360.50728,-0.730724040588997,-0.0485847257190812,0.0422369726100555
1580422360.51128,-0.635019455252918,0.0510261692225527,-0.0319829098954756
1580422360.51529,-0.554940108339055,0.144289311055161,-0.127199206530861
1580422360.51929,-0.519295033188373,0.283939879453726,-0.197024490730143
1580422360.52329,-0.487556267643244,0.447028305485617,-0.254642557412071
1580422360.52728,-0.45630579079881,0.594979781795988,-0.290775921263448
1580422360.53128,-0.441168841077287,0.706309605554285,-0.294193942168308
1580422360.53528,-0.433356221866179,0.773205157549402,-0.253177691309988
1580422360.53928,-0.435309376668956,0.773205157549402,-0.198489356832226
1580422360.54328,-0.431403067063401,0.704356450751508,-0.146730754558632
1580422360.54728,-0.42896162355993,0.571541924162663,-0.114015411612115
1580422360.55128,-0.414312962539102,0.412359807736323,-0.0969253070878153
1580422360.55528,-0.397711146715496,0.267826352330815,-0.0944838635843439
1580422360.55927,-0.388433661402305,0.144289311055161,-0.0954604409857325
1580422360.56327,-0.38452735179675,0.044678416113527,-0.0905775539787896
1580422360.56727,-0.379644464789807,-0.0271000228885327,-0.0822766460669868
1580422360.57127,-0.376226443884947,-0.0710460059510183,-0.0710460059510183
1580422360.57527,-0.379156176089113,-0.0939955748836496,-0.0529793240253298
1580422360.57927,-0.38452735179675,-0.0935072861829553,-0.0407721065079727
1580422360.58327,-0.392828259708553,-0.0759288929579611,-0.034424353398947
1580422360.58727,-0.406500343327993,-0.044678416113527,-0.0227054245822842
1580422360.59126,-0.429938200961319,-0.00561532005798426,-0.0134279392690928
1580422360.59528,-0.455817502098116,0.037842374303807,-0.00122072175173571
1580422360.59927,-0.495857175555047,0.0793469138628211,0.0148928053711757
1580422360.60327,-0.542244602121004,0.110109102006561,0.0271000228885327
1580422360.60727,-0.595956359197375,0.130128938735027,0.0354009308003356
1580422360.61127,-0.634531166552224,0.133058670939192,0.0539559014267184
1580422360.61527,-0.674082551308461,0.108644235904478,0.063721675440604
1580422360.61927,-0.706309605554283,0.0632333867399097,0.077393759060044
1580422360.62327,-0.733165484092469,0.00415045395590141,0.0852063782711525
1580422360.62727,-0.758556496528573,-0.0725108720531011,0.0925307087815668
1580422360.63126,-0.79468986037995,-0.145265888456549,0.105226214999618
1580422360.63526,-0.833264667734799,-0.212161440451666,0.117433432516975
1580422360.63926,-0.871351186388953,-0.273197528038454,0.127687495231555
1580422360.64326,-0.915785458152133,-0.321049820706493,0.127687495231555
1580422360.64726,-0.956801709010453,-0.352300297550928,0.120363164721141
1580422360.65126,-0.994888227664607,-0.37427328908217,0.114991989013504
1580422360.65526,-1.03736934462501,-0.38452735179675,0.109620813305867
1580422360.65926,-1.08033875028611,-0.386968795300222,0.10083161669337
1580422360.66325,-1.12184328984512,-0.385503929198139,0.0905775539787896
1580422360.66725,-1.16530098420691,-0.391851682307164,0.0832532234683754
1580422360.67125,-1.20485236896315,-0.393804837109942,0.0695811398489354
1580422360.67523,-1.24782177462425,-0.406988632028687,0.0520027466239412
1580422360.67923,-1.28493171587701,-0.425055313954376,0.0207522697795071
1580422360.68323,-1.32399481193256,-0.450446326390479,-0.00610360875867855
1580422360.68723,-1.3547570000763,-0.470466163118944,-0.0266117341878385
1580422360.69123,-1.38210116731518,-0.48364995803769,-0.044678416113527
1580422360.69523,-1.39577325093462,-0.489021133745327,-0.0607919432364383
1580422360.69922,-1.41188677805753,-0.495368886854353,-0.0896009765774011
1580422360.70322,-1.42409399557488,-0.506599526970321,-0.12475776302739
1580422360.70722,-1.44313725490196,-0.513923857480735,-0.160891126878766
1580422360.71122,-1.46364538033112,-0.523201342793927,-0.200930800335698
1580422360.71522,-1.49196612497139,-0.526131074998093,-0.23315785458152
1580422360.71922,-1.51198596169985,-0.535408560311284,-0.265873197528039
1580422360.72322,-1.52565804531929,-0.548104066529335,-0.302983138780805
1580422360.72721,-1.52907606622415,-0.566170748455024,-0.34351110093843
1580422360.73121,-1.52321660181582,-0.587167162584878,-0.379156176089113
1580422360.73521,-1.51198596169985,-0.619882505531395,-0.420660715648127
1580422360.73921,-1.4997787441825,-0.647226672770275,-0.449958037689784
1580422360.74321,-1.48659494926375,-0.67750057221332,-0.468024719615473
1580422360.74721,-1.47634088654917,-0.712657358663309,-0.472419317921721
1580422360.75121,-1.46169222552834,-0.752697032120242,-0.474372472724498
1580422360.75522,-1.44362554360266,-0.805432211795225,-0.461188677805753
1580422360.75922,-1.42214084077211,-0.857190814068819,-0.44605172808423
1580422360.76322,-1.3972381170367,-0.916762035553521,-0.447516594186313
1580422360.76721,-1.37282368200198,-0.989028763256275,-0.433844510566873
1580422360.77121,-1.34645609216449,-1.06959639887083,-0.433356221866179
1580422360.77521,-1.32497138933394,-1.15846494239719,-0.428473334859236
1580422360.77921,-1.3029983978027,-1.24098573281453,-0.424078736552987
1580422360.78321,-1.27956054016938,-1.3205767910277,-0.429938200961319
1580422360.78721,-1.24977492942702,-1.38796063172351,-0.43579766536965
1580422360.79121,-1.21559472037842,-1.43678950179294,-0.451422903791867
1580422360.79521,-1.16383611810483,-1.44606698710613,-0.472907606622416
1580422360.7992,-1.10084687571527,-1.41969939726864,-0.485603112840467
1580422360.8032,-1.02565041580835,-1.36549935149157,-0.503669794766155
1580422360.8072,-0.956313420309758,-1.30495155260548,-0.526619363698787
1580422360.8112,-0.89723048752575,-1.24831006332494,-0.556893263141832
1580422360.8152,-0.84596017395285,-1.2004577706569,-0.576913099870298
1580422360.8192,-0.807873655298696,-1.16383611810483,-0.590096894789044
1580422360.8232,-0.788342107270925,-1.13112077515831,-0.581307698176547
1580422360.8272,-0.780529488059816,-1.10328831921874,-0.578866254673075
1580422360.83119,-0.780529488059816,-1.07692072938125,-0.570077058060578
1580422360.83517,-0.792736705577173,-1.05152971694514,-0.539803158617532
1580422360.83917,-0.800061036087587,-1.01393148699168,-0.51783016708629
1580422360.84317,-0.792248416876479,-0.967055771725033,-0.508552681773098
1580422360.84717,-0.792248416876479,-0.92115663385977,-0.503669794766155
1580422360.85117,-0.801037613488976,-0.877210650797284,-0.486579690241856
1580422360.85517,-0.823987182421607,-0.823987182421607,-0.468513008316167
1580422360.85917,-0.861585412375067,-0.769298847943848,-0.43237964446479
1580422360.86316,-0.883070115205616,-0.766857404440376,-0.392828259708553
1580422360.86716,-0.906507972838941,-0.805432211795225,-0.363042648966202
1580422360.87116,-0.934340428778516,-0.876234073395896,-0.336186770428016
1580422360.87516,-0.971450370031281,-0.927016098268101,-0.283939879453728
1580422360.87916,-1.0041657129778,-0.960219729915313,-0.215091172655832
1580422360.88316,-1.01588464179446,-0.990981918059052,-0.166750591287098
1580422360.88716,-1.0129549095903,-1.02320897230488,-0.170168612191958
1580422360.89116,-1.0642252231632,-0.907972838941024,-0.137453269245441
1580422360.89516,-1.14723430228122,-0.639414053559166,-0.0915541313801782
1580422360.89915,-1.19069199664301,-0.281010147249562,-0.0373540856031127
1580422360.90315,-1.19069199664301,0.0993667505912867,-0.0173342488746471
1580422360.90715,-1.15553521019303,0.421637293049514,-0.0246585793850613
1580422360.91115,-1.1062180514229,0.702403295948731,-0.0437018387121384
1580422360.91516,-1.05738918135348,0.940688181887541,-0.0744640268558783
1580422360.91916,-1.00221255817502,1.06813153276875,-0.112062256809338
1580422360.92316,-0.949965667200733,1.02369726100557,-0.148195620660715
1580422360.92716,-0.912855725947967,0.844007019150073,-0.176516365300984
1580422360.93116,-0.89723048752575,0.619394216830703,-0.210208285648889
1580422360.93515,-0.907972838941024,0.392339971007857,-0.226810101472495
1580422360.93915,-0.925062943465324,0.194094758525978,-0.245853360799572
1580422360.94315,-0.938735027084764,0.0363775082017241,-0.274662394140536
1580422360.94715,-0.931898985275044,-0.0793469138628211,-0.306401159685665
1580422360.95115,-0.92115663385977,-0.142824444953078,-0.308842603189136
1580422360.95515,-0.912855725947967,-0.146730754558632,-0.288822766460671
1580422360.95915,-0.912855725947967,-0.138918135347524,-0.270756084534982
1580422360.96315,-0.930434119172961,-0.150148775463492,-0.282963302052339
1580422360.96714,-0.975356679636835,-0.176516365300984,-0.315190356298162
1580422360.97114,-1.03932249942779,-0.219974059662775,-0.346440833142596
1580422360.97514,-1.11354238193332,-0.277103837644008,-0.364507515068285
1580422360.97914,-1.20241092545968,-0.355230029755093,-0.390875104905776
1580422360.98314,-1.30251010910201,-0.457282368200199,-0.422613870450904
1580422360.98714,-1.40260929274434,-0.557381551842527,-0.451422903791867
1580422360.99114,-1.47780575265126,-0.624277103837644,-0.431891355764096
1580422360.99512,-1.51100938429847,-0.623788815136949,-0.380132753490502
1580422360.99912,-1.48708323796445,-0.557869840543221,-0.302494850080111
1580422361.00311,-1.41530479896239,-0.47681391622797,-0.228274967574578
1580422361.00711,-1.32252994583047,-0.398687724116884,-0.179934386205844
1580422361.01111,-1.23366140230411,-0.317631799801633,-0.147219043259327
1580422361.01511,-1.14137483787289,-0.245853360799572,-0.108155947203784
1580422361.01911,-1.04859998474098,-0.212649729152361,-0.0632333867399097
1580422361.02311,-0.964126039520867,-0.228274967574578,-0.0632333867399097
1580422361.02711,-0.909437705043107,-0.278568703746091,-0.0744640268558783
1580422361.03111,-0.897718776226444,-0.338139925230793,-0.0827649347676811
1580422361.0351,-0.916273746852827,-0.38110933089189,-0.0974135957885096
1580422361.0391,-0.952895399404898,-0.430914778362707,-0.101319905394064
1580422361.0431,-0.992446784161135,-0.465094987411307,-0.117433432516975
1580422361.0471,-1.00953688868544,-0.494392309452964,-0.143801022354467
1580422361.0511,-0.991958495460441,-0.526619363698787,-0.165285725185015
1580422361.0551,-0.977309834439613,-0.519783321889067,-0.186282139314869
1580422361.0591,-0.96900892652781,-0.483161669336996,-0.218020904859998
1580422361.0631,-0.964126039520867,-0.433356221866179,-0.246341649500266
1580422361.06709,-0.949477378500038,-0.38794537270161,-0.247806515602349
1580422361.07109,-0.941176470588236,-0.327885862516213,-0.245853360799572
1580422361.0751,-0.945571068894484,-0.263431754024568,-0.232181277180132
1580422361.0791,-0.95191882200351,-0.201907377737086,-0.212649729152361
1580422361.0831,-0.95191882200351,-0.153566796368352,-0.214114595254443
1580422361.0871,-0.94850080109865,-0.128664072632944,-0.242435339894712
1580422361.0911,-0.94850080109865,-0.12133974212253,-0.292240787365531
1580422361.0951,-0.959243152513924,-0.127687495231555,-0.322514686808576
1580422361.0991,-0.977798123140307,-0.132570382238498,-0.331303883421073
1580422361.10309,-1.00172426947433,-0.126710917830167,-0.344975967040513
1580422361.10709,-1.01979095140002,-0.0983901731898982,-0.349858854047456
1580422361.11109,-1.02809185931182,-0.0876478217746239,-0.348393987945373
1580422361.11509,-1.01539635309377,-0.0974135957885096,-0.352300297550928
1580422361.11909,-1.0129549095903,-0.113527122911421,-0.379156176089113
1580422361.12309,-1.01979095140002,-0.114991989013504,-0.406012054627299
1580422361.12709,-1.02320897230488,-0.109620813305867,-0.388921950102999
1580422361.13109,-1.02760357061112,-0.10083161669337,-0.34351110093843
1580422361.13508,-1.04127565423056,-0.0993667505912867,-0.315678644998856
1580422361.13908,-1.05299458304723,-0.0993667505912867,-0.315678644998856
1580422361.14308,-1.03981078812848,-0.134035248340581,-0.31958495460441
1580422361.14708,-1.01344319829099,-0.197024490730143,-0.299565117875945
1580422361.15108,-0.997817959868772,-0.243900205996795,-0.309819180590525
1580422361.15506,-0.994399938963912,-0.288334477759976,-0.320073243305105
1580422361.15906,-0.99293507286183,-0.332280460822462,-0.284428168154422
1580422361.16306,-0.988540474555581,-0.352788586251622,-0.274662394140536
1580422361.16706,-0.975356679636835,-0.351323720149539,-0.290775921263448
1580422361.17105,-0.960219729915313,-0.347905699244679,-0.307377737087053
1580422361.17505,-0.944106202792401,-0.345464255741208,-0.308842603189136
1580422361.17905,-0.93482871747921,-0.325444419012742,-0.324956130312048
1580422361.18305,-0.932875562676433,-0.281010147249562,-0.37085526817731
1580422361.18705,-0.929945830472267,-0.245853360799572,-0.366460669871062
1580422361.19105,-0.936781872281987,-0.228763256275272,-0.344487678339819
1580422361.19505,-0.949965667200733,-0.217532616159303,-0.355718318455787
1580422361.19905,-0.971938658731975,-0.183352407110704,-0.369390402075227
1580422361.20304,-0.98609903105211,-0.141847867551689,-0.362554360265507
1580422361.20704,-0.987075608453498,-0.127199206530861,-0.324956130312048
1580422361.21104,-0.987075608453498,-0.100343327992675,-0.326909285114825
1580422361.21504,-0.996841382467384,-0.0607919432364383,-0.335698481727322
1580422361.21904,-1.00514229037919,-0.037842374303807,-0.299076829175251
1580422361.22304,-0.993911650263218,-0.034424353398947,-0.272709239337759
1580422361.22704,-0.98268101014725,-0.0681162737468526,-0.291752498664836
1580422361.23104,-1.00172426947433,-0.111573968108644,-0.301518272678722
1580422361.23505,-1.01930266269932,-0.129640650034332,-0.260013733119708
1580422361.23904,-1.0295567254139,-0.158937972075989,-0.202395666437781
1580422361.24304,-1.02906843671321,-0.185305561913481,-0.198001068131532
1580422361.24704,-1.03150988021668,-0.207766842145418,-0.205325398641946
1580422361.25104,-1.02320897230488,-0.220950637064163,-0.173098344396124
1580422361.25504,-1.0129549095903,-0.224856946669718,-0.162844281681544
1580422361.25904,-1.00660715648127,-0.223392080567635,-0.189700160219729
1580422361.26304,-0.99635309376669,-0.206301976043335,-0.216556038757915
1580422361.26704,-0.979751277943084,-0.194583047226672,-0.215579461356526
1580422361.27103,-0.96217288471809,-0.188235294117646,-0.218020904859998
1580422361.27503,-0.958266575112535,-0.176028076600289,-0.266849774929428
1580422361.27903,-0.951430533302815,-0.169192034790569,-0.300053406576639
1580422361.28303,-0.928480964370184,-0.183840695811398,-0.299076829175251
1580422361.28703,-0.908461127641718,-0.225833524071106,-0.328862439917602
1580422361.29103,-0.913832303349356,-0.249759670405126,-0.354253452353705
1580422361.29503,-0.92799267566949,-0.223880369268329,-0.331792172121768
1580422361.29903,-0.922133211261158,-0.185793850614175,-0.293705653467613
1580422361.30303,-0.898207064927139,-0.181887541008621,-0.313725490196079
1580422361.30702,-0.88697642481117,-0.182375829709315,-0.365972381170367
1580422361.31102,-0.892347600518807,-0.155519951171129,-0.371343556878005
1580422361.315,-0.885511558709087,-0.135988403143358,-0.343999389639125
1580422361.319,-0.882093537804227,-0.140871290150301,-0.362066071564813
1580422361.323,-0.892835889219501,-0.139406424048218,-0.389410238803693
1580422361.327,-0.926039520866713,-0.109620813305867,-0.371343556878005
1580422361.331,-0.928969253070878,-0.0876478217746239,-0.349370565346762
1580422361.335,-0.923598077363241,-0.0979018844892039,-0.366460669871062
1580422361.33899,-0.925551232166018,-0.11450370031281,-0.388921950102999
1580422361.34299,-0.928480964370184,-0.132082093537804,-0.363530937666896
1580422361.34699,-0.926527809567407,-0.149172198062104,-0.316655222400245
1580422361.35099,-0.928480964370184,-0.170168612191958,-0.303471427481499
1580422361.35499,-0.933363851377127,-0.169192034790569,-0.294682230869002
1580422361.35899,-0.927016098268101,-0.168215457389181,-0.278080415045396
1580422361.36299,-0.912367437247273,-0.192629892423895,-0.273685816739148
1580422361.36699,-0.907972838941024,-0.221927214465552,-0.283451590753033
1580422361.37099,-0.921644922560464,-0.213138017853055,-0.277592126344702
1580422361.37498,-0.926039520866713,-0.198489356832226,-0.254154268711376
1580422361.37898,-0.916273746852827,-0.229251544975966,-0.258060578316931
1580422361.38298,-0.921644922560464,-0.266361486228734,-0.283451590753033
1580422361.38698,-0.94508278019379,-0.260502021820402,-0.280033569848174
1580422361.39098,-0.96559090562295,-0.209231708247501,-0.233646143282215
1580422361.39499,-0.964614328221561,-0.166262302586404,-0.233646143282215
1580422361.39899,-0.960219729915313,-0.155031662470435,-0.266361486228734
1580422361.40299,-0.959731441214618,-0.137941557946135,-0.287846189059282
1580422361.40699,-0.959731441214618,-0.115968566414892,-0.262943465323874
1580422361.41098,-0.957778286411841,-0.113038834210727,-0.258548867017625
1580422361.41498,-0.959731441214618,-0.109132524605172,-0.283939879453728
1580422361.41898,-0.967544060425727,-0.0842298008697639,-0.286869611657893
1580422361.42298,-0.973891813534753,-0.0588387884336612,-0.250247959105822
1580422361.42698,-0.97242694743267,-0.0573739223315783,-0.260502021820402
1580422361.43098,-0.970473792629893,-0.0749523155565726,-0.291264209964142
1580422361.43498,-0.980239566643778,-0.0695811398489354,-0.287357900358588
1580422361.43897,-0.985610742351415,-0.0534676127260241,-0.255130846112765
1580422361.44297,-0.98609903105211,-0.0539559014267184,-0.255619134813459
1580422361.44697,-0.985610742351415,-0.0583504997329669,-0.286869611657893
1580422361.45097,-0.988540474555581,-0.0422369726100555,-0.287357900358588
1580422361.45497,-0.98951705195697,-0.0207522697795071,-0.250736247806516
1580422361.45897,-0.985610742351415,-0.0100099183642328,-0.259525444419014
1580422361.46297,-0.982192721446555,-0.0192874036774242,-0.285404745555811
1580422361.46697,-0.985122453650721,-0.0109864957656214,-0.273685816739148
1580422361.47096,-0.985122453650721,-0.0373540856031127,-0.2434119172961
1580422361.47494,-0.986587319752804,-0.0983901731898982,-0.242923628595406
1580422361.47894,-0.993911650263218,-0.130128938735027,-0.257084000915542
1580422361.48294,-1.00611886778058,-0.11792172121767,-0.230716411078049
1580422361.48694,-1.01832608529793,-0.0881361104753182,-0.198001068131532
1580422361.49094,-1.02223239490349,-0.0822766460669868,-0.225833524071106
1580422361.49494,-1.01979095140002,-0.0949721522850382,-0.268314641031511
1580422361.49894,-1.02711528191043,-0.102784771496147,-0.265873197528039
1580422361.50294,-1.04371709773404,-0.115968566414892,-0.255130846112765
1580422361.50693,-1.05836575875486,-0.125734340428778,-0.263920042725262
1580422361.51093,-1.07643244068055,-0.113038834210727,-0.281010147249562
1580422361.51493,-1.08278019378958,-0.109132524605172,-0.264896620126651
1580422361.51893,-1.08375677119097,-0.108644235904478,-0.273685816739148
1580422361.52293,-1.06666666666667,-0.133058670939192,-0.320073243305105
1580422361.52693,-1.04518196383612,-0.149172198062104,-0.329350728618296
1580422361.53093,-1.03443961242084,-0.146242465857938,-0.313237201495385
1580422361.53493,-1.01588464179446,-0.136476691844052,-0.304448004882888
1580422361.53892,-1.00318913557641,-0.114991989013504,-0.327885862516213
1580422361.54292,-0.98609903105211,-0.0959487296864268,-0.331792172121768
1580422361.54692,-0.972915236133364,-0.0935072861829553,-0.330815594720379
1580422361.55092,-0.959243152513924,-0.0993667505912867,-0.355230029755093
1580422361.55493,-0.948012512397955,-0.0993667505912867,-0.375738155184253
1580422361.55893,-0.953383688105593,-0.0710460059510183,-0.367925535973145
1580422361.56293,-0.95533684290837,-0.0520027466239412,-0.37427328908217
1580422361.56693,-0.95191882200351,-0.0842298008697639,-0.392339971007859
1580422361.57093,-0.959731441214618,-0.136476691844052,-0.382085908293279
1580422361.57492,-0.990493629358358,-0.159426260776684,-0.32983901731899
1580422361.57892,-1.02467383840696,-0.149172198062104,-0.281986724650951
1580422361.58292,-1.03736934462501,-0.146242465857938,-0.286869611657893
1580422361.58692,-1.04615854123751,-0.172121766994735,-0.292729076066225
1580422361.59092,-1.06813153276875,-0.189700160219729,-0.296147096971085
1580422361.59492,-1.07985046158541,-0.229739833676661,-0.266849774929428
1580422361.59892,-1.09303425650416,-0.290287632562753,-0.239017318989852
1580422361.60292,-1.11158922713054,-0.341069657434959,-0.220462348363469
1580422361.60691,-1.14772259098192,-0.345952544441902,-0.181887541008621
1580422361.61091,-1.16676585030899,-0.323491264209965,-0.158449683375295
1580422361.61491,-1.16383611810483,-0.309819180590525,-0.188235294117646
1580422361.61891,-1.14821087968261,-0.315678644998856,-0.219974059662775
1580422361.62291,-1.13502708476387,-0.31958495460441,-0.215091172655832
1580422361.62691,-1.12867933165484,-0.313237201495385,-0.204348821240558
1580422361.63091,-1.11940184634165,-0.294682230869002,-0.220950637064163
1580422361.63489,-1.11012436102846,-0.257084000915542,-0.220950637064163
1580422361.63889,-1.09254596780346,-0.218509193560692,-0.203860532539863
1580422361.64288,-1.07545586327916,-0.209231708247501,-0.198001068131532
1580422361.64688,-1.06080720225834,-0.221438925764858,-0.216067750057221
1580422361.65088,-1.05641260395209,-0.226810101472495,-0.209231708247501
1580422361.65488,-1.05983062485695,-0.224368657969023,-0.196047913328755
1580422361.65888,-1.05934233615625,-0.225833524071106,-0.199954222934309
1580422361.66288,-1.05445944914931,-0.235111009384298,-0.219485770962081
1580422361.66688,-1.06715495536736,-0.222903791866941,-0.225345235370412
1580422361.67088,-1.07692072938125,-0.192141603723201,-0.222415503166246
1580422361.67488,-1.08473334859235,-0.166262302586404,-0.237064164187075
1580422361.67887,-1.08522163729305,-0.168703746089875,-0.271244373235676
1580422361.68287,-1.09352254520485,-0.174563210498206,-0.295170519569696
1580422361.68687,-1.1150072480354,-0.162355992980849,-0.286869611657893
1580422361.69087,-1.13453879606317,-0.153078507667658,-0.282963302052339
1580422361.69487,-1.15065232318608,-0.160891126878766,-0.315190356298162
1580422361.69887,-1.16432440680552,-0.175051499198901,-0.33325703822385
1580422361.70287,-1.18776226443885,-0.185793850614175,-0.318120088502328
1580422361.70686,-1.21266498817426,-0.202883955138475,-0.317143511100939
1580422361.71086,-1.23414969100481,-0.225833524071106,-0.337651636530099
1580422361.71487,-1.24147402151522,-0.252689402609294,-0.347417410543985
1580422361.71887,-1.25661097123674,-0.276127260242619,-0.348882276646068
1580422361.72287,-1.2600289921416,-0.289311055161365,-0.35718318455787
1580422361.72687,-1.26686503395132,-0.292240787365531,-0.36743724727245
1580422361.73087,-1.28200198367285,-0.272709239337759,-0.37085526817731
1580422361.73487,-1.29176775768673,-0.238529030289158,-0.363530937666896
1580422361.73887,-1.29030289158465,-0.202883955138475,-0.352300297550928
1580422361.74286,-1.2942092011902,-0.163332570382238,-0.362554360265507
1580422361.74686,-1.30543984130617,-0.120851453421835,-0.362554360265507
1580422361.75086,-1.30592813000687,-0.0842298008697639,-0.351812008850233
1580422361.75486,-1.30446326390478,-0.0759288929579611,-0.350835431448845
1580422361.75886,-1.30495155260548,-0.0900892652780954,-0.341557946135653
1580422361.76286,-1.3205767910277,-0.0891126878767068,-0.319096665903716
1580422361.76686,-1.33962005035477,-0.080811779964904,-0.272709239337759
1580422361.77086,-1.35524528877699,-0.0749523155565726,-0.243900205996795
1580422361.77485,-1.36012817578393,-0.0852063782711525,-0.246341649500266
1580422361.77885,-1.36940566109712,-0.0959487296864268,-0.248783093003738
1580422361.78285,-1.3718471046006,-0.118898298619058,-0.244876783398183
1580422361.78685,-1.37233539330129,-0.147707331960021,-0.253665980010682
1580422361.79085,-1.37868314641032,-0.170656900892652,-0.273197528038454
1580422361.79486,-1.38551918822004,-0.182375829709315,-0.294193942168308
1580422361.79886,-1.38356603341726,-0.202395666437781,-0.307377737087053
1580422361.80286,-1.3972381170367,-0.218020904859998,-0.284916456855116
1580422361.80686,-1.40798046845197,-0.230228122377355,-0.273197528038454
1580422361.81085,-1.40749217975128,-0.248783093003738,-0.262455176623179
1580422361.81485,-1.39186694132906,-0.290287632562753,-0.24682993820096
1580422361.81885,-1.36696421759365,-0.352300297550928,-0.265873197528039
1580422361.82285,-1.3283894102388,-0.420172426947433,-0.331792172121768
1580422361.82685,-1.29323262378882,-0.458747234302281,-0.395269703212024
1580422361.83085,-1.26295872434577,-0.447516594186313,-0.410894941634242
1580422361.83485,-1.23952086671244,-0.397711146715496,-0.375738155184253
1580422361.83885,-1.20534065766384,-0.344487678339819,-0.349858854047456
1580422361.84285,-1.149187457084,-0.319096665903716,-0.382574196993973
1580422361.84684,-1.08717479209583,-0.343022812237736,-0.448493171587701
1580422361.85084,-1.02809185931182,-0.392339971007859,-0.410406652933547
1580422361.85484,-0.976333257038224,-0.468024719615473,-0.383550774395362
1580422361.85884,-0.915297169451438,-0.56568245975433,-0.429938200961319
1580422361.86284,-0.872816052491036,-0.67750057221332,-0.500251773861295
1580422361.86684,-0.860120546272984,-0.72535286488136,-0.532967116807813
1580422361.87084,-0.846448462653544,-0.624765392538338,-0.523689631494621
1580422361.87482,-0.831799801632716,-0.441168841077287,-0.411383230334936
1580422361.87881,-0.81519798580911,-0.223392080567635,-0.238040741588463
1580422361.88281,-0.783947508964676,-0.0544441901274126,-0.110109102006561
1580422361.88681,-0.742931258106355,0.0534676127260241,-0.11108567940795
1580422361.89081,-0.711192492561226,0.138429846646829,-0.184328984512092
1580422361.89481,-0.683360036621652,0.229739833676661,-0.234622720683603
1580422361.89881,-0.641855497062638,0.311284046692606,-0.247318226901655
1580422361.90281,-0.612558175020981,0.355718318455786,-0.23657587548638
1580422361.90681,-0.590096894789044,0.379644464789806,-0.208255130846112
1580422361.9108,-0.565194171053635,0.379156176089111,-0.171145189593346
1580422361.9148,-0.533455405508507,0.346440833142594,-0.141847867551689
1580422361.9188,-0.503669794766155,0.285893034256503,-0.126222629129472
1580422361.9228,-0.474372472724498,0.211184863050278,-0.117433432516975
1580422361.9268,-0.442145418478676,0.148195620660715,-0.11792172121767
1580422361.9308,-0.421149004348822,0.0930189974822611,-0.120363164721141
1580422361.9348,-0.406988632028687,0.0568856336308841,-0.110597390707255
1580422361.9388,-0.406500343327993,0.0285648889906156,-0.10083161669337
1580422361.9428,-0.407476920729382,0.0212405584802013,-0.0935072861829553
1580422361.94679,-0.409430075532159,0.0227054245822842,-0.0896009765774011
1580422361.95079,-0.41870756084535,0.0300297550926985,-0.0900892652780954
1580422361.9548,-0.427008468757153,0.0407721065079727,-0.0827649347676811
1580422361.9588,-0.437262531471733,0.0559090562294955,-0.077393759060044
1580422361.9628,-0.447028305485619,0.0720225833524069,-0.0515144579232469
1580422361.9668,-0.450446326390479,0.0881361104753182,-0.0271000228885327
1580422361.9708,-0.461676966506447,0.0983901731898982,0.00122072175173571
1580422361.9748,-0.46655985351339,0.104737926298924,0.0271000228885327
1580422361.9788,-0.48023193713283,0.0949721522850382,0.0383306630045013
1580422361.98279,-0.494392309452964,0.0734874494544897,0.0554207675288012
1580422361.98679,-0.511482413977264,0.0524910353246355,0.0646982528419926
1580422361.99079,-0.531990539406424,0.0295414663920042,0.0651865415426869
1580422361.99479,-0.560799572747387,0.00903334096284425,0.0710460059510183
1580422361.99879,-0.592538338292515,-0.0046387426565957,0.0700694285496297
1580422362.00279,-0.630136568245975,-0.0139162279697871,0.063721675440604
1580422362.00679,-0.672617685206378,-0.0227054245822842,0.0583504997329669
1580422362.01079,-0.712657358663309,-0.0349126420996413,0.0485847257190812
1580422362.01478,-0.745372701609826,-0.0510261692225527,0.037842374303807
1580422362.01878,-0.774670023651485,-0.0715342946517126,0.0251468680857556
1580422362.02278,-0.797131303883422,-0.0891126878767068,0.0139162279697871
1580422362.02678,-0.820569161516747,-0.10766765850309,0.0046387426565957
1580422362.03078,-0.843030441748684,-0.128175783932249,-0.00170901045242999
1580422362.03476,-0.865980010681316,-0.144777599755855,-0.00415045395590141
1580422362.03876,-0.888929579613947,-0.164797436484321,-0.0178225375753414
1580422362.04276,-0.915785458152133,-0.185793850614175,-0.0207522697795071
1580422362.04675,-0.943617914091707,-0.209719996948195,-0.0251468680857556
1580422362.05075,-0.971450370031281,-0.236087586785686,-0.0319829098954756
1580422362.05475,-1.00221255817502,-0.260502021820402,-0.0388189517051956
1580422362.05875,-1.03541618982223,-0.290775921263448,-0.0417486839093613
1580422362.06275,-1.07008468757153,-0.311284046692608,-0.0432135500114441
1580422362.06675,-1.11061264972915,-0.336186770428016,-0.0539559014267184
1580422362.07075,-1.15992980849927,-0.365484092469673,-0.0690928511482412
1580422362.07475,-1.21217669947356,-0.397222858014802,-0.0822766460669868
1580422362.07874,-1.27418936446174,-0.440192263675899,-0.103273060196841
1580422362.08274,-1.32545967803464,-0.47339589532311,-0.121828030823224
1580422362.08674,-1.36940566109712,-0.500251773861295,-0.125734340428778
1580422362.09074,-1.40505073624781,-0.513923857480735,-0.122316319523918
1580422362.09474,-1.42165255207141,-0.517341878385595,-0.115480277714198
1580422362.09874,-1.42848859388113,-0.520759899290455,-0.11450370031281
1580422362.10274,-1.42116426337072,-0.52124818799115,-0.133546959639887
1580422362.10674,-1.41188677805753,-0.515877012283513,-0.156984817273212
1580422362.11074,-1.41335164415961,-0.510505836575875,-0.180910963607232
1580422362.11475,-1.42409399557488,-0.520271610589761,-0.211184863050278
1580422362.11874,-1.4397192339971,-0.537850003814755,-0.235111009384298
1580422362.12274,-1.47096971084154,-0.562752727550164,-0.254642557412071
1580422362.12674,-1.50319676508736,-0.597909514000152,-0.268314641031511
1580422362.13074,-1.53591210803387,-0.642343785763332,-0.290287632562753
1580422362.13474,-1.55837338826581,-0.68433661402304,-0.306401159685665
1580422362.13874,-1.567650873579,-0.709239337758449,-0.327397573815519
1580422362.14274,-1.56374456397345,-0.724376287479972,-0.342046234836348
1580422362.14674,-1.55007248035401,-0.722423132677195,-0.373785000381476
1580422362.15073,-1.53835355153735,-0.730724040588997,-0.401129167620356
1580422362.15473,-1.52809948882277,-0.744396124208437,-0.416266117341879
1580422362.15873,-1.53298237582971,-0.779064621957733,-0.43237964446479
1580422362.16273,-1.54128328374151,-0.83570611123827,-0.43579766536965
1580422362.16673,-1.5505607690547,-0.906019684138247,-0.421637293049516
1580422362.17073,-1.56227969787137,-0.988052185854887,-0.413824673838407
1580422362.17473,-1.56276798657206,-1.07985046158541,-0.404058899824522
1580422362.17873,-1.54860761425193,-1.16676585030899,-0.386480506599527
1580422362.18272,-1.52175173571374,-1.24196231021591,-0.361577782864119
1580422362.18672,-1.47585259784848,-1.30592813000687,-0.33325703822385
1580422362.19072,-1.41969939726864,-1.35329213397421,-0.311772335393302
1580422362.1947,-1.35231555657282,-1.38503089951934,-0.290775921263448
1580422362.1987,-1.27125963225757,-1.40358587014572,-0.282475013351645
1580422362.2027,-1.17994964522774,-1.41042191195544,-0.302983138780805
1580422362.2067,-1.08473334859235,-1.41872281986725,-0.34351110093843
1580422362.2107,-0.99293507286183,-1.41969939726864,-0.400640878919662
1580422362.2147,-0.918715190356298,-1.42458228427558,-0.452399481193256
1580422362.21869,-0.865980010681316,-1.41774624246586,-0.495368886854353
1580422362.22269,-0.825940337224385,-1.40260929274434,-0.529549095902953
1580422362.22669,-0.80152590218967,-1.36745250629435,-0.55201037613489
1580422362.23069,-0.792248416876479,-1.31813534752422,-0.556893263141832
1580422362.23469,-0.783947508964676,-1.25514610513466,-0.549568932631418
1580422362.23869,-0.781994354161899,-1.20338750286107,-0.544686045624475
1580422362.24269,-0.779552910658428,-1.15846494239719,-0.520271610589761
1580422362.24669,-0.782482642862593,-1.12526131074998,-0.485603112840467
1580422362.25068,-0.780529488059816,-1.10914778362707,-0.453864347295339
1580422362.25468,-0.785900663767453,-1.09742885481041,-0.424078736552987
1580422362.25868,-0.79468986037995,-1.09059281300069,-0.388433661402305
1580422362.26268,-0.823010605020219,-1.08424505989166,-0.312748912794691
1580422362.26668,-0.847913328755627,-1.09156939040207,-0.226321812771801
1580422362.27068,-0.877698939497979,-1.10377660791943,-0.170168612191958
1580422362.27469,-0.906996261539636,-1.1233081559472,-0.11792172121767
1580422362.27869,-0.931898985275044,-1.13795681696803,-0.0803234912642097
1580422362.28269,-0.951430533302815,-1.13649195086595,-0.0319829098954756
1580422362.28668,-0.977309834439613,-1.1233081559472,0.00854505226214997
1580422362.29068,-0.991958495460441,-1.1233081559472,0.0075684748607614
1580422362.29468,-1.01734950789654,-1.0808270389868,-0.0788586251621268
1580422362.29868,-1.09889372091249,-0.831311512932022,-0.118898298619058
1580422362.30268,-1.16920729381247,-0.489509422446021,-0.108644235904478
1580422362.30668,-1.18385595483329,-0.165774013885709,-0.0754406042572668
1580422362.31068,-1.1921568627451,0.167238879987792,-0.070557717250324
1580422362.31468,-1.22243076218814,0.568123903257803,-0.037842374303807
1580422362.31868,-1.27077134355688,1.04225223163195,-0.0104982070649271
1580422362.32267,-1.29030289158465,1.44997329671168,-0.0319829098954756
1580422362.32667,-1.2522163729305,1.54470130464637,-0.067139696345464
1580422362.33067,-1.16530098420691,1.33180743114366,-0.096437018387121
1580422362.33467,-1.06471351186389,0.975356679636835,-0.151613641565575
1580422362.33867,-0.987075608453498,0.585214007782103,-0.230228122377355
1580422362.34267,-0.967055771725033,0.266849774929426,-0.283451590753033
1580422362.34667,-1.02223239490349,0.0759288929579611,-0.301029983978028
1580422362.35066,-1.09694056610971,0.00170901045242999,-0.287357900358588
1580422362.35464,-1.13453879606317,-0.0231937132829785,-0.254642557412071
1580422362.35864,-1.09938200961318,-0.048096437018387,-0.210208285648889
1580422362.36264,-1.02906843671321,-0.0886243991760125,-0.184328984512092
1580422362.36664,-0.952895399404898,-0.151613641565575,-0.177004654001678
1580422362.37064,-0.903089951934081,-0.214114595254443,-0.209231708247501
1580422362.37464,-0.889906157015336,-0.264408331425956,-0.263920042725262
1580422362.37864,-0.916273746852827,-0.280521858548868,-0.317143511100939
1580422362.38264,-0.971450370031281,-0.267338063630122,-0.368413824673839
1580422362.38663,-1.0383459220264,-0.249759670405126,-0.386480506599527
1580422362.39063,-1.10719462882429,-0.242435339894712,-0.364507515068285
1580422362.39463,-1.17360189211871,-0.270267795834288,-0.35034714274815
1580422362.39863,-1.22536049439231,-0.327885862516213,-0.342046234836348
1580422362.40263,-1.26735332265202,-0.390386816205082,-0.341069657434959
1580422362.40663,-1.27956054016938,-0.441657129777981,-0.342046234836348
1580422362.41063,-1.25563439383536,-0.474860761425193,-0.34351110093843
1580422362.41463,-1.2263370717937,-0.475837338826581,-0.335698481727322
1580422362.41862,-1.19655146105135,-0.444098573281453,-0.32300297550927
1580422362.42262,-1.17555504692149,-0.383062485694667,-0.284916456855116
1580422362.42662,-1.15455863279164,-0.325932707713436,-0.215091172655832
1580422362.43062,-1.12672617685206,-0.273685816739148,-0.166262302586404
1580422362.43463,-1.09547570000763,-0.24682993820096,-0.143801022354467
1580422362.43863,-1.07008468757153,-0.2434119172961,-0.118410009918364
1580422362.44263,-1.04469367513542,-0.260502021820402,-0.10766765850309
1580422362.44663,-1.0212558175021,-0.298588540474556,-0.132082093537804
1580422362.45063,-1.00953688868544,-0.334233615625239,-0.172121766994735
1580422362.45462,-1.00074769207294,-0.365972381170367,-0.169192034790569
1580422362.45862,-0.995376516365301,-0.396246280613413,-0.153078507667658
1580422362.46262,-0.991958495460441,-0.411383230334936,-0.163332570382238
1580422362.46662,-0.98609903105211,-0.428473334859236,-0.172610055695429
1580422362.47062,-0.978286411841001,-0.444586861982147,-0.171633478294041
1580422362.47462,-0.971450370031281,-0.428473334859236,-0.188235294117646
1580422362.47862,-0.973891813534753,-0.384039063096056,-0.188723582818341
1580422362.48262,-0.981704432745861,-0.322514686808576,-0.171633478294041
1580422362.48661,-0.990493629358358,-0.260990310521096,-0.131593804837109
1580422362.49061,-1.00074769207294,-0.190676737621118,-0.106202792401007
1580422362.49461,-0.99635309376669,-0.12475776302739,-0.128664072632944
1580422362.49861,-0.987075608453498,-0.0778820477607383,-0.157473105973907
1580422362.50261,-0.978774700541695,-0.0529793240253298,-0.193118181124589
1580422362.50661,-0.978774700541695,-0.0256351567864499,-0.257572289616236
1580422362.51061,-0.992446784161135,0.0046387426565957,-0.322514686808576
1580422362.51459,-0.99977111467155,0.0163576714732585,-0.351812008850233
1580422362.51859,-1.00807202258335,0.0212405584802013,-0.354741741054399
1580422362.52258,-1.0129549095903,0.031006332494087,-0.366948958571756
1580422362.52658,-1.0212558175021,0.0339360646982527,-0.38794537270161
1580422362.53058,-1.02418554970626,0.0178225375753414,-0.372320134279393
1580422362.53458,-1.01539635309377,-0.00366216525520713,-0.36401922636759
1580422362.53858,-1.00611886778058,-0.0183108262760356,-0.380132753490502
1580422362.54258,-1.00563057907988,-0.0305180437933927,-0.397711146715496
1580422362.54658,-1.0036774242771,-0.0515144579232469,-0.390386816205082
1580422362.55058,-0.993911650263218,-0.0632333867399097,-0.375738155184253
1580422362.55457,-0.981704432745861,-0.0676279850461583,-0.380621042191196
1580422362.55857,-0.970962081330587,-0.0959487296864268,-0.373296711680782
1580422362.56257,-0.965102616922255,-0.142336156252384,-0.353276874952316
1580422362.56657,-0.962661173418784,-0.179446097505149,-0.348393987945373
1580422362.57057,-0.971938658731975,-0.188235294117646,-0.349858854047456
1580422362.57457,-0.986587319752804,-0.192629892423895,-0.344975967040513
1580422362.57857,-0.987563897154192,-0.195559624628061,-0.327397573815519
1580422362.58257,-0.97584496833753,-0.186282139314869,-0.329350728618296
1580422362.58657,-0.965102616922255,-0.160891126878766,-0.340581368734265
1580422362.59056,-0.950942244602121,-0.155519951171129,-0.330327306019685
1580422362.59457,-0.938735027084764,-0.157473105973907,-0.318608377203022
1580422362.59857,-0.937758449683376,-0.150148775463492,-0.305912870984971
1580422362.60257,-0.950453955901427,-0.128175783932249,-0.306889448386359
1580422362.60657,-0.962661173418784,-0.10424963759823,-0.304448004882888
1580422362.61057,-0.969985503929198,-0.0905775539787896,-0.283939879453728
1580422362.61457,-0.96900892652781,-0.0710460059510183,-0.280033569848174
1580422362.61857,-0.965102616922255,-0.0407721065079727,-0.302494850080111
1580422362.62257,-0.96217288471809,-0.0207522697795071,-0.317631799801633
1580422362.62656,-0.952407110704204,-0.0148928053711757,-0.303959716182193
1580422362.63056,-0.957289997711147,-0.0144045166704814,-0.290775921263448
1580422362.63456,-0.965102616922255,-0.00366216525520713,-0.292240787365531
1580422362.63856,-0.968032349126421,-0.0144045166704814,-0.279056992446785
1580422362.64256,-0.972915236133364,-0.0441901274128327,-0.247318226901655
1580422362.64656,-0.981216144045167,-0.0656748302433812,-0.224368657969023
1580422362.65056,-0.992446784161135,-0.0764171816586554,-0.228274967574578
1580422362.65455,-0.994888227664607,-0.0988784618905925,-0.231204699778743
1580422362.65855,-0.990981918059052,-0.131105516136415,-0.211184863050278
1580422362.66255,-0.987563897154192,-0.149172198062104,-0.222415503166246
1580422362.66655,-0.984634164950027,-0.173586633096818,-0.223392080567635
1580422362.67055,-0.977309834439613,-0.203860532539863,-0.206301976043335
1580422362.67453,-0.976821545738918,-0.230716411078049,-0.192629892423895
1580422362.67853,-0.976821545738918,-0.224856946669718,-0.189700160219729
1580422362.68253,-0.977798123140307,-0.204348821240558,-0.207766842145418
1580422362.68653,-0.954848554207675,-0.207278553444723,-0.212161440451666
1580422362.69052,-0.933363851377127,-0.226810101472495,-0.227298390173189
1580422362.69452,-0.930922407873656,-0.225833524071106,-0.254154268711376
1580422362.69852,-0.933852140077821,-0.193606469825284,-0.271244373235676
1580422362.70252,-0.935805294880598,-0.166750591287098,-0.260990310521096
1580422362.70652,-0.930922407873656,-0.163332570382238,-0.244876783398183
1580422362.71052,-0.940199893186847,-0.149172198062104,-0.254642557412071
1580422362.71452,-0.945571068894484,-0.135988403143358,-0.285404745555811
1580422362.71852,-0.940199893186847,-0.152590218966964,-0.289799343862059
1580422362.72251,-0.946547646295873,-0.178469520103761,-0.266849774929428
1580422362.72651,-0.966079194323644,-0.174074921797512,-0.257084000915542
1580422362.73051,-0.978286411841001,-0.155519951171129,-0.273197528038454
1580422362.73451,-0.973403524834058,-0.161379415579461,-0.267826352330816
1580422362.73851,-0.967544060425727,-0.179446097505149,-0.264896620126651
1580422362.74251,-0.971450370031281,-0.187258716716258,-0.281498435950256
1580422362.74651,-0.971938658731975,-0.186770428015564,-0.286381322957199
1580422362.75051,-0.964614328221561,-0.197512779430838,-0.260990310521096
1580422362.75452,-0.969985503929198,-0.198001068131532,-0.248294804303043
1580422362.75851,-0.973403524834058,-0.174074921797512,-0.259037155718319
1580422362.76251,-0.96900892652781,-0.153566796368352,-0.268314641031511
1580422362.76651,-0.954360265506981,-0.169192034790569,-0.269291218432899
1580422362.77051,-0.948989089799344,-0.180910963607232,-0.273685816739148
1580422362.77451,-0.959243152513924,-0.164797436484321,-0.286381322957199
1580422362.77851,-0.961196307316701,-0.149172198062104,-0.285893034256505
1580422362.78251,-0.950453955901427,-0.178469520103761,-0.275150682841231
1580422362.78651,-0.954360265506981,-0.215091172655832,-0.273197528038454
1580422362.7905,-0.975356679636835,-0.208743419546806,-0.293705653467613
1580422362.7945,-0.985610742351415,-0.188723582818341,-0.289799343862059
1580422362.7985,-0.983169298847944,-0.200930800335698,-0.267338063630122
1580422362.8025,-0.981216144045167,-0.212161440451666,-0.264896620126651
1580422362.8065,-0.990005340657664,-0.184817273212786,-0.283939879453728
1580422362.8105,-0.985610742351415,-0.151125352864881,-0.292240787365531
1580422362.8145,-0.976821545738918,-0.169192034790569,-0.275638971541925
1580422362.8185,-0.978774700541695,-0.189700160219729,-0.263920042725262
1580422362.82249,-0.989028763256275,-0.172121766994735,-0.285404745555811
1580422362.82649,-0.98951705195697,-0.145265888456549,-0.288334477759976
1580422362.83049,-0.983169298847944,-0.153078507667658,-0.275150682841231
1580422362.83447,-0.98268101014725,-0.155519951171129,-0.276615548943314
1580422362.83847,-0.985122453650721,-0.139894712748912,-0.303959716182193
1580422362.84247,-0.979751277943084,-0.133058670939192,-0.312260624093996
1580422362.84647,-0.979751277943084,-0.140383001449607,-0.280521858548868
1580422362.85047,-0.986587319752804,-0.125734340428778,-0.274174105439842
1580422362.85447,-0.985610742351415,-0.0935072861829553,-0.275638971541925
1580422362.85846,-0.970473792629893,-0.080811779964904,-0.276127260242619
1580422362.86246,-0.965102616922255,-0.0813000686655982,-0.263920042725262
1580422362.86646,-0.966079194323644,-0.0617685206378269,-0.259525444419014
1580422362.87046,-0.966079194323644,-0.0314946211947813,-0.273197528038454
1580422362.87446,-0.946547646295873,-0.0427252613107498,-0.275638971541925
1580422362.87846,-0.932875562676433,-0.0876478217746239,-0.277592126344702
1580422362.88246,-0.937758449683376,-0.106202792401007,-0.272220950637065
1580422362.88646,-0.947035934996567,-0.073975738155184,-0.269779507133594
1580422362.89046,-0.946547646295873,-0.0432135500114441,-0.260502021820402
1580422362.89445,-0.939711604486153,-0.0339360646982527,-0.264896620126651
1580422362.89845,-0.935805294880598,-0.0109864957656214,-0.298588540474556
1580422362.90245,-0.936293583581293,0.0207522697795071,-0.318120088502328
1580422362.90645,-0.938735027084764,0.0256351567864499,-0.336186770428016
1580422362.91045,-0.947524223697261,0.0178225375753414,-0.343999389639125
1580422362.91446,-0.96217288471809,0.00659189745937283,-0.351812008850233
1580422362.91846,-0.98268101014725,-0.000732433051041426,-0.356694895857176
1580422362.92246,-0.994399938963912,-0.0407721065079727,-0.341069657434959
1580422362.92646,-1.00807202258335,-0.0925307087815668,-0.329350728618296
1580422362.93045,-1.02809185931182,-0.110597390707255,-0.313237201495385
1580422362.93445,-1.03981078812848,-0.109132524605172,-0.298100251773862
1580422362.93845,-1.04908827344167,-0.106691081101701,-0.281498435950256
1580422362.94245,-1.05592431525139,-0.0944838635843439,-0.268314641031511
1580422362.94645,-1.05397116044862,-0.0798352025635154,-0.262455176623179
1580422362.95045,-1.05641260395209,-0.0803234912642097,-0.253665980010682
1580422362.95445,-1.05152971694514,-0.0949721522850382,-0.247806515602349
1580422362.95844,-1.05006485084306,-0.102296482795452,-0.249759670405126
1580422362.96244,-1.04762340733959,-0.0905775539787896,-0.255130846112765
1580422362.96644,-1.03688105592432,-0.102296482795452,-0.260013733119708
1580422362.97044,-1.01686121919585,-0.148195620660715,-0.273685816739148
1580422362.97444,-1.00514229037919,-0.192141603723201,-0.273197528038454
1580422362.97844,-1.01686121919585,-0.180910963607232,-0.257572289616236
1580422362.98244,-1.0295567254139,-0.156496528572518,-0.255619134813459
1580422362.98644,-1.02369726100557,-0.151613641565575,-0.251224536507211
1580422362.99043,-1.01832608529793,-0.149660486762798,-0.269779507133594
1580422362.99442,-1.02662699320974,-0.134523537041275,-0.302494850080111
1580422362.99841,-1.01783779659724,-0.129152361333638,-0.331303883421073
1580422363.00241,-1.00807202258335,-0.132082093537804,-0.321538109407188
1580422363.00641,-1.00563057907988,-0.118410009918364,-0.340581368734265
1580422363.01041,-0.999282825970855,-0.0822766460669868,-0.35376516365301
1580422363.01441,-0.996841382467384,-0.080811779964904,-0.323979552910659
1580422363.01841,-1.00172426947433,-0.105714503700312,-0.298100251773862
1580422363.02241,-1.01197833218891,-0.148195620660715,-0.307866025787748
1580422363.0264,-1.0207675288014,-0.195071335927366,-0.321538109407188
1580422363.0304,-1.02272068360418,-0.236087586785686,-0.327397573815519
1580422363.0344,-1.02809185931182,-0.252689402609294,-0.320073243305105
1580422363.0384,-1.0295567254139,-0.241947051194018,-0.333745326924545
1580422363.0424,-1.04225223163195,-0.225833524071106,-0.335698481727322
1580422363.0464,-1.0642252231632,-0.209231708247501,-0.329350728618296
1580422363.0504,-1.09938200961318,-0.196047913328755,-0.309819180590525
1580422363.0544,-1.13258564126039,-0.191653315022506,-0.302983138780805
1580422363.05839,-1.14430457007706,-0.211184863050278,-0.294682230869002
1580422363.06239,-1.14723430228122,-0.265384908827345,-0.292240787365531
1580422363.06639,-1.12867933165484,-0.326909285114825,-0.288334477759976
1580422363.07039,-1.12574959945067,-0.348882276646068,-0.261478599221791
1580422363.0744,-1.12037842374304,-0.312748912794691,-0.230716411078049
1580422363.0784,-1.10182345311665,-0.260502021820402,-0.198489356832226
1580422363.0824,-1.07057297627222,-0.239505607690546,-0.221927214465552
1580422363.0864,-1.05152971694514,-0.238529030289158,-0.232669565880826
1580422363.0904,-1.06520180056458,-0.229739833676661,-0.213138017853055
