Timestamp_seconds,Accel_X_g,Accel_Y_g,Accel_Z_g
1580422474.75066,-0.994888227664607,-0.164797436484321,-0.000244144350347142
1580422474.78287,-0.99977111467155,-0.168703746089875,-0.00708018616006711
1580422474.81507,-0.993911650263218,-0.185305561913481,0.000244144350347142
1580422474.84728,-0.99977111467155,-0.188723582818341,0.00122072175173571
1580422474.87949,-0.995376516365301,-0.180422674906538,0.00805676356145568
1580422474.9117,-0.990005340657664,-0.169192034790569,-0.0163576714732585
1580422474.9439,-1.00465400167849,-0.164309147783626,-0.00219729915312428
1580422474.97611,-0.995864805065995,-0.144289311055161,-0.00903334096284425
1580422475.00832,-0.984634164950027,-0.152590218966964,-0.0075684748607614
1580422475.04056,-0.995864805065995,-0.154055085069047,-0.0197756923781185
1580422475.07276,-0.988052185854887,-0.141359578850995,-0.0202639810788128
1580422475.10497,-0.988540474555581,-0.152590218966964,-0.0187991149767299
1580422475.13718,-0.987075608453498,-0.153078507667658,-0.0319829098954756
1580422475.16939,-0.995376516365301,-0.171633478294041,-0.0158693827725642
1580422475.20159,-1.00025940337224,-0.185793850614175,-0.00952162966353853
1580422475.2338,-1.00709544518196,-0.212161440451666,-0.0046387426565957
1580422475.26601,-1.00953688868544,-0.208255130846112,-0.0222171358815899
1580422475.29822,-0.998794537270161,-0.197024490730143,-0.0300297550926985
1580422475.33043,-0.988540474555581,-0.189211871519035,-0.0124513618677042
1580422475.36263,-0.983657587548638,-0.187258716716258,0.00268558785381856
1580422475.39484,-0.97926298924239,-0.186282139314869,0.0046387426565957
1580422475.42705,-0.984634164950027,-0.170656900892652,0.0129396505683985
1580422475.45925,-0.99635309376669,-0.144289311055161,-0.0100099183642328
1580422475.49146,-0.983169298847944,-0.135011825741969,-0.01196307316701
1580422475.52367,-0.99977111467155,-0.166262302586404,-0.0046387426565957
1580422475.55588,-1.00563057907988,-0.178957808804455,0.00170901045242999
1580422475.58808,-0.997817959868772,-0.195559624628061,-0.00952162966353853
1580422475.62029,-0.997329671168078,-0.192141603723201,0.00854505226214997
1580422475.6525,-1.00318913557641,-0.163332570382238,-0.031006332494087
1580422475.68471,-0.987075608453498,-0.158937972075989,-0.0114747844663157
1580422475.71691,-0.987075608453498,-0.147707331960021,-0.0168459601739528
1580422475.74912,-0.990493629358358,-0.161867704280155,-0.00708018616006711
1580422475.78133,-0.987563897154192,-0.178957808804455,-0.0144045166704814
1580422475.81354,-0.996841382467384,-0.192141603723201,-0.0168459601739528
1580422475.84574,-0.997817959868772,-0.194583047226672,0.00122072175173571
1580422475.87795,-1.0041657129778,-0.189700160219729,0.00659189745937283
1580422475.91016,-0.995376516365301,-0.173098344396124,-0.0222171358815899
1580422475.94237,-1.00025940337224,-0.179934386205844,-0.0129396505683985
1580422475.97458,-1.00465400167849,-0.196536202029449,0.000244144350347142
1580422476.00678,-0.990493629358358,-0.208255130846112,-0.00708018616006711
1580422476.03899,-1.00758373388266,-0.205813687342641,-0.0153810940718699
1580422476.0712,-1.01197833218891,-0.219974059662775,-0.0158693827725642
1580422476.1034,-0.995864805065995,-0.222415503166246,-0.0168459601739528
1580422476.13561,-0.996841382467384,-0.232669565880826,-0.0368657969024184
1580422476.16782,-0.98609903105211,-0.211184863050278,-0.0261234454871442
1580422476.20003,-0.995376516365301,-0.183352407110704,-0.0197756923781185
1580422476.23223,-0.998306248569467,-0.172610055695429,-0.0227054245822842
1580422476.26444,-0.998794537270161,-0.149172198062104,-0.0388189517051956
1580422476.29665,-1.00074769207294,-0.145754177157244,-0.0227054245822842
1580422476.32889,-1.00318913557641,-0.160891126878766,-0.0397955291065841
1580422476.36109,-1.01490806439307,-0.161867704280155,-0.0471198596169984
1580422476.3933,-1.00563057907988,-0.143801022354467,-0.0925307087815668
1580422476.42551,-1.0383459220264,-0.127687495231555,-0.148195620660715
1580422476.45772,-1.02223239490349,-0.173586633096818,-0.135500114442664
1580422476.48992,-0.991958495460441,-0.185305561913481,-0.174563210498206
1580422476.52213,-0.976821545738918,-0.154055085069047,-0.160402838178072
1580422476.55434,-0.940199893186847,-0.0778820477607383,-0.151125352864881
1580422476.58655,-0.89723048752575,0.0324711985961699,-0.0925307087815668
1580422476.61875,-1.0036774242771,0.0207522697795071,-0.0192874036774242
1580422476.65096,-1.01832608529793,-0.0969253070878153,0.142336156252384
1580422476.68317,-1.00123598077363,-0.0485847257190812,0.10766765850309
1580422476.71538,-0.997329671168078,-0.00366216525520713,0.0100099183642328
1580422476.74758,-1.04078736552987,0.000244144350347142,0.161867704280155
1580422476.77979,-0.996841382467384,-0.0573739223315783,0.106691081101701
1580422476.812,-1.00953688868544,-0.138918135347524,0.0500495918211641
1580422476.84421,-0.981216144045167,-0.241947051194018,0.0612802319371326
1580422476.87642,-0.947524223697261,-0.219974059662775,0.0725108720531011
1580422476.90862,-0.944106202792401,-0.0798352025635154,0.0861829556725411
1580422476.94083,-0.972915236133364,0.0905775539787896,0.116945143816281
1580422476.97304,-1.01686121919585,0.117433432516975,0.177004654001678
1580422477.00524,-1.04127565423056,0.0886243991760125,0.267826352330815
1580422477.03745,-1.12672617685206,0.168703746089875,0.229251544975966
1580422477.06966,-1.25319295033188,0.185305561913481,0.0930189974822611
1580422477.10187,-1.19362172884718,-0.160402838178072,0.176516365300984
1580422477.13407,-1.22536049439231,-0.417730983443962,0.564705882352943
1580422477.16628,-1.45485618371862,-0.537850003814755,0.306889448386357
1580422477.19849,-1.67702754253452,-0.331303883421073,0.207278553444723
1580422477.2307,-1.0720378423743,-0.0329594872968642,-0.558358129243915
1580422477.2629,-0.90748455024033,0.0158693827725642,-0.240482185091935
1580422477.29511,-0.651621271076523,-0.0593270771343555,0.218509193560692
1580422477.32732,-0.836682688639659,0.192141603723201,0.0983901731898982
1580422477.35953,-0.78443579766537,0.249271381704432,0.116456855115587
1580422477.39173,-0.566170748455024,0.0402838178072784,0.239017318989852
1580422477.42394,-0.485114824139773,-0.269779507133594,0.350835431448843
1580422477.45615,-0.635019455252918,-0.718028534370946,0.663828488593882
1580422477.48836,-0.743907835507743,-0.597909514000152,0.692637521934845
1580422477.52057,-0.710704203860532,-0.340581368734265,0.495368886854351
1580422477.55277,-0.862561989776456,-0.0983901731898982,0.768810559243153
1580422477.58498,-0.652109559777218,-0.0896009765774011,0.610116731517511
1580422477.61722,-1.17994964522774,0.0622568093385212,0.396246280613411
1580422477.64943,-1.37819485770962,-0.0510261692225527,0.91090257114519
1580422477.68163,-1.12721446555276,-0.286381322957199,0.528084229800871
1580422477.71384,-0.739513237201495,0.0432135500114441,-0.365484092469673
1580422477.74605,-1.11012436102846,0.838635843442436,0.00952162966353853
1580422477.77825,-1.1833676661326,0.777111467154956,-0.110597390707255
1580422477.81046,-0.91090257114519,0.133058670939192,0.204837109941252
1580422477.84267,-0.977309834439613,-0.196536202029449,0.178957808804455
1580422477.87488,-0.923109788662547,0.00415045395590141,0.115480277714198
1580422477.90708,-0.847913328755627,0.309819180590523,0.0441901274128327
1580422477.93929,-0.882093537804227,0.362066071564811,0.0656748302433812
1580422477.9715,-0.93482871747921,0.26733806363012,0.0505378805218584
1580422478.00371,-0.976333257038224,0.228763256275272,0.0607919432364383
1580422478.03591,-0.961684596017395,-0.0363775082017241,-0.0676279850461583
1580422478.06812,-1.04078736552987,-0.108155947203784,0.147707331960021
1580422478.10033,-1.09840543221179,0.181399252307926,0.0598153658350498
1580422478.13254,-1.10328831921874,0.429449912260623,-0.0524910353246355
1580422478.16474,-1.10768291752499,0.336675059128709,-0.110597390707255
1580422478.19695,-1.12477302204929,0.106691081101701,0.0437018387121384
1580422478.22916,-1.2175478751812,0.134523537041275,0.096437018387121
1580422478.26137,-1.30543984130617,0.115968566414892,0.12475776302739
1580422478.29357,-1.31520561532006,0.0690928511482412,0.174563210498206
1580422478.32578,-1.13502708476387,-0.0729991607537954,0.0144045166704814
1580422478.35799,-1.37917143511101,-0.105226214999618,-0.430914778362707
1580422478.3902,-1.34401464866102,0.381597619592583,-0.187747005416952
1580422478.42241,-1.26735332265202,0.0944838635843439,0.0769054703593497
1580422478.45461,-1.12867933165484,-0.0505378805218584,-0.0407721065079727
1580422478.48682,-0.916273746852827,0.130128938735027,0.0144045166704814
1580422478.51903,-0.714610513466086,0.152101930266269,0.0832532234683754
1580422478.55123,-0.609628442816815,0.0305180437933927,0.10083161669337
1580422478.58344,-0.585702296482795,-0.0129396505683985,-0.0559090562294955
1580422478.61565,-0.455817502098116,-0.0422369726100555,-0.0158693827725642
1580422478.64786,-0.53833829251545,-0.223392080567635,0.468513008316165
1580422478.68006,-0.879652094300756,-0.24682993820096,1.09840543221179
1580422478.71227,-1.14723430228122,-0.359136339360647,0.709239337758451
1580422478.74448,-0.560799572747387,0.00268558785381856,0.633066300450142
1580422478.77669,-0.834729533836882,0.12475776302739,0.387945372701608
1580422478.80889,-0.804455634393836,-0.198977645532921,0.78443579766537
1580422478.8411,-1.06959639887083,0.245365072098878,0.124269474326695
1580422478.87331,-1.61501487754635,0.261966887922483,0.461676966506445
1580422478.90549,-0.91090257114519,-0.11450370031281,0.246341649500266
1580422478.9377,-0.713633936064697,-0.477790493629358,-0.111573968108644
1580422478.9699,-0.988052185854887,0.31860837720302,0.232181277180132
1580422479.00211,-1.09303425650416,0.721446555275808,-0.143312733653772
1580422479.03432,-1.04274052033265,0.178469520103761,0.207278553444723
1580422479.06653,-0.928480964370184,0.0554207675288012,0.113527122911421
1580422479.09873,-0.889906157015336,0.0554207675288012,0.0158693827725642
1580422479.13094,-1.02223239490349,0.243900205996795,0.0573739223315783
1580422479.16315,-0.90064850843061,0.195559624628061,0.0427252613107498
1580422479.19536,-0.800549324788282,0.136964980544747,-0.0227054245822842
1580422479.22757,-0.932387273975738,0.244388494697489,-0.112062256809338
1580422479.25977,-0.982192721446555,0.0886243991760125,-0.0588387884336612
1580422479.29198,-1.04127565423056,0.0612802319371326,0.145265888456549
1580422479.32419,-1.15992980849927,0.340581368734263,0.129640650034332
1580422479.3564,-1.13160906385901,0.177981231403066,-0.0354009308003356
1580422479.38861,-1.07985046158541,0.102784771496147,0.118898298619058
1580422479.42081,-1.15944151979858,0.198489356832226,0.0368657969024184
1580422479.45302,-1.24782177462425,0.386480506599526,-0.0490730144197755
1580422479.48523,-1.28346684977493,0.336186770428014,0.0944838635843439
1580422479.51744,-1.44118410009918,0.0578622110322726,0.0187991149767299
1580422479.54965,-1.08522163729305,-0.252201113908599,-0.0485847257190812
1580422479.58185,-1.28493171587701,-0.157961394674601,-0.219485770962081
1580422479.61406,-1.33180743114366,0.178469520103761,-0.100343327992675
1580422479.64627,-1.19996948195621,0.116945143816281,0.0397955291065841
1580422479.67848,-1.02174410620279,-0.0144045166704814,0.00610360875867855
1580422479.71069,-0.819592584115359,0.0988784618905925,0.00170901045242999
1580422479.74289,-0.740978103303577,0.0993667505912867,0.0783703364614325
1580422479.7751,-0.572030212863355,-0.0192874036774242,0.0261234454871442
1580422479.80731,-0.525642786297398,0.0676279850461583,-0.0158693827725642
1580422479.83952,-0.544197756923781,-0.0129396505683985,0.136964980544747
1580422479.87173,-0.634042877851529,-0.162355992980849,0.47241931792172
1580422479.90393,-0.914808880750744,-0.258060578316931,1.08375677119097
1580422479.93614,-1.01734950789654,-0.0568856336308841,0.89381246662089
1580422479.96835,-0.802990768291753,-0.122804608224612,0.552498664835586
1580422480.00056,-0.813244831006333,-0.219485770962081,0.507576104371712
1580422480.03276,-0.956313420309758,-0.314213778896773,0.775158312352179
1580422480.06497,-0.950453955901427,-0.0744640268558783,0.278568703746089
1580422480.09718,-1.1403982604715,0.315678644998854,0.449958037689782
1580422480.12939,-1.08815136949721,0.239505607690546,0.398687724116883
1580422480.1616,-0.760997940032045,-0.0207522697795071,-0.188235294117646
1580422480.19379,-0.978286411841001,0.327885862516212,0.136476691844052
1580422480.22599,-0.937758449683376,0.508064393072406,-0.0451667048142212
1580422480.2582,-1.04029907682918,0.160891126878766,0.135011825741969
1580422480.29041,-0.985610742351415,0.0251468680857556,0.133546959639887
1580422480.32262,-0.908461127641718,0.0183108262760356,0.0539559014267184
1580422480.35483,-0.942153047989624,0.283451590753032,-0.0227054245822842
1580422480.38703,-0.967544060425727,0.269779507133592,0.0168459601739528
1580422480.41924,-0.886488136110476,0.149172198062104,0.0686045624475469
1580422480.45145,-0.941176470588236,0.142336156252384,0.00854505226214997
1580422480.48366,-0.989028763256275,0.0607919432364383,-0.0915541313801782
1580422480.51587,-1.06178377965972,0.185305561913481,0.0358892195010299
1580422480.54807,-1.08570992599374,0.334233615625237,0.110597390707255
1580422480.58028,-1.11403067063401,0.223392080567635,-0.118410009918364
1580422480.61249,-1.11110093842985,0.00366216525520713,0.0676279850461583
1580422480.6447,-1.07985046158541,0.0153810940718699,0.162355992980849
1580422480.67691,-1.1579766536965,0.269291218432897,-0.0153810940718699
1580422480.70911,-1.17360189211871,0.448981460288394,0.156984817273212
1580422480.74132,-1.33913176165408,0.245365072098878,0.00170901045242999
1580422480.77353,-1.22682536049439,-0.0607919432364383,-0.108644235904478
1580422480.80574,-1.1916685740444,-0.0920424200808725,-0.154543373769741
1580422480.83795,-1.29860379949645,0.251712825207903,-0.313725490196079
1580422480.87015,-1.32204165712978,0.173586633096818,0.0534676127260241
1580422480.90236,-1.11451895933471,-0.138429846646829,0.0202639810788128
1580422480.93457,-0.928480964370184,-0.116456855115587,0.0192874036774242
1580422480.96678,-0.752697032120242,0.0251468680857556,0.123292896925307
1580422480.99898,-0.633554589150835,0.00366216525520713,0.063721675440604
1580422481.03119,-0.545662623025864,0.0900892652780954,-0.0510261692225527
1580422481.0634,-0.527595941100175,0.0295414663920042,0.0871595330739297
1580422481.09561,-0.574471656366827,-0.127199206530861,0.214114595254443
1580422481.12782,-0.78443579766537,-0.237552452887769,1.0036774242771
1580422481.16002,-1.0471351186389,-0.182864118410009,0.720469977874419
1580422481.19223,-0.871351186388953,-0.116945143816281,0.689707789730679
1580422481.22444,-0.885023270008393,-0.166750591287098,0.643808651865417
1580422481.25665,-0.82887006942855,-0.230228122377355,0.662363622491799
1580422481.28886,-0.808850232700085,-0.0920424200808725,0.63160143434806
1580422481.32106,-0.97926298924239,0.403570611123826,0.199465934233615
1580422481.35327,-1.49050125886931,0.218997482261386,0.649179827573054
1580422481.38548,-0.727306019684137,-0.251712825207905,0.0187991149767299
1580422481.41769,-0.662851911192492,-0.528572518501564,-0.264896620126651
1580422481.4499,-1.31325246051728,0.753185320820936,0.104737926298924
1580422481.48205,-0.953383688105593,0.720958266575114,-0.103273060196841
1580422481.51426,-0.978286411841001,0.291752498664835,0.159914549477378
1580422481.54647,-0.938735027084764,0.0329594872968642,0.106691081101701
1580422481.57868,-1.07496757457847,0.658457312886245,0.224368657969023
1580422481.61089,-0.923109788662547,0.228274967574578,0.106202792401007
1580422481.6431,-0.826428625925079,0.227786678873883,-0.0368657969024184
1580422481.6753,-0.832776379034105,0.132082093537804,-0.174074921797512
1580422481.70751,-1.0212558175021,0.179446097505149,-0.122804608224612
1580422481.73972,-1.04274052033265,0.201419089036392,0.116456855115587
1580422481.77193,-1.01686121919585,0.194583047226672,0.0373540856031127
1580422481.80413,-1.1067063401236,0.202883955138475,-0.0769054703593497
1580422481.83634,-1.09840543221179,0.185793850614175,0.00854505226214997
1580422481.86855,-1.1237964446479,0.0959487296864268,0.0686045624475469
1580422481.90076,-1.17750820172427,0.173098344396124,-0.070557717250324
1580422481.93297,-1.26149385824369,0.253177691309986,-0.0529793240253298
1580422481.96517,-1.32692454413672,0.205325398641946,0.166750591287098
1580422481.99738,-1.30006866559854,0.0627450980392155,0.0588387884336612
1580422482.02959,-1.09547570000763,-0.215091172655832,-0.000244144350347142
1580422482.0618,-1.37087052719921,-0.077393759060044,-0.373296711680782
1580422482.09401,-1.2517280842298,0.394781414511328,-0.23999389639124
1580422482.12621,-1.3112993057145,0.129152361333638,0.0383306630045013
1580422482.15842,-1.11842526894026,0.0139162279697871,0.0407721065079727
1580422482.19063,-0.957289997711147,0.0388189517051956,0.0393072404058898
1580422482.22284,-0.769787136644542,0.0373540856031127,0.0769054703593497
1580422482.25505,-0.613046463721675,0.0139162279697871,0.00708018616006711
1580422482.28725,-0.537850003814755,-0.0329594872968642,0.0231937132829785
1580422482.31946,-0.512458991378653,-0.063721675440604,0.113038834210727
1580422482.35167,-0.46655985351339,-0.100343327992675,0.115480277714198
1580422482.38388,-0.77076371404593,-0.152590218966964,0.925062943465324
1580422482.41609,-1.0642252231632,-0.181887541008621,0.950942244602121
1580422482.44829,-0.78443579766537,0.0607919432364383,0.978286411841001
1580422482.4805,-0.757091630426491,-0.0139162279697871,0.337651636530097
1580422482.51271,-0.894789044022279,-0.118410009918364,0.626230258640422
1580422482.54492,-0.922621499961853,-0.218997482261386,0.36987869077592
1580422482.57713,-1.27565423056382,0.0329594872968642,0.625253681239034
1580422482.60933,-1.1062180514229,0.254154268711375,0.456305790798808
1580422482.64154,-0.69800869764248,0.0417486839093613,-0.322514686808576
1580422482.67375,-0.906507972838941,-0.0280766002899213,0.204348821240558
1580422482.70596,-1.07447928587777,0.602792401007097,0.00903334096284425
1580422482.73817,-1.0212558175021,0.273197528038452,0.135500114442664
1580422482.77042,-0.999282825970855,0.112062256809338,0.149660486762798
1580422482.80262,-0.862073701075762,-0.00854505226214997,0.0529793240253298
1580422482.83483,-0.936781872281987,0.164797436484321,-0.0319829098954756
1580422482.86704,-0.920668345159076,0.264408331425955,-0.0427252613107498
1580422482.89925,-0.863538567177844,0.253177691309986,-0.0319829098954756
1580422482.93146,-0.895765621423667,0.237552452887769,-0.0554207675288012
1580422482.96366,-0.984634164950027,0.193118181124589,-0.167238879987792
1580422482.99587,-0.990493629358358,0.110109102006561,-0.0354009308003356
1580422483.02808,-1.04567025253681,0.060303654535744,0.0793469138628211
1580422483.06029,-1.09596398870832,0.163820859082932,0.131105516136415
1580422483.0925,-1.13405050736248,0.23315785458152,-0.00415045395590141
1580422483.1247,-1.14283970397497,0.145754177157244,-0.0202639810788128
1580422483.15691,-1.16725413900969,0.169192034790569,0.099855039291981
1580422483.18912,-1.2600289921416,0.201419089036392,0.034424353398947
1580422483.22133,-1.29030289158465,0.195559624628061,0.125246051728084
1580422483.25354,-1.27809567406729,0.146730754558632,0.0529793240253298
1580422483.28574,-1.07057297627222,-0.232181277180132,-0.0876478217746239
1580422483.31795,-1.31960021362631,-0.0695811398489354,-0.199954222934309
1580422483.35016,-1.32155336842908,0.336186770428014,-0.335698481727322
1580422483.38237,-1.30153353170062,0.252689402609292,0.0583504997329669
1580422483.41457,-1.14869916838331,0.0334477759975584,0.0520027466239412
1580422483.44678,-0.933363851377127,0.067139696345464,0.0104982070649271
1580422483.47899,-0.759044785229268,0.0549324788281069,0.0935072861829553
1580422483.5112,-0.599374380102235,0.0178225375753414,0.0246585793850613
1580422483.54341,-0.481208514534218,-0.0495613031204698,0.0144045166704814
1580422483.57561,-0.509529259174487,-0.0666514076447697,0.0515144579232469
1580422483.60782,-0.578866254673075,-0.119874876020447,0.0622568093385212
1580422483.64003,-0.797131303883422,-0.344975967040513,0.953871976806287
1580422483.67224,-1.03150988021668,-0.226321812771801,0.933363851377127
1580422483.70445,-0.908949416342413,0.0510261692225527,0.952895399404898
1580422483.73665,-0.703868162050812,0.151125352864881,0.497810330357822
1580422483.76886,-0.681895170519569,0.227298390173189,0.716563668268865
1580422483.80107,-0.982192721446555,-0.0959487296864268,-0.115968566414892
1580422483.83328,-1.5681391622797,0.00610360875867855,0.953871976806287
1580422483.86549,-1.02272068360418,-0.0686045624475469,0.528084229800871
1580422483.89769,-0.648203250171663,-0.243900205996795,-0.338139925230793
1580422483.9299,-1.00123598077363,0.354741741054397,0.306889448386357
1580422483.96211,-1.00563057907988,0.765392538338293,-0.161867704280155
1580422483.99432,-1.02565041580835,0.239505607690546,0.170168612191958
1580422484.02653,-0.986587319752804,-0.0549324788281069,0.193606469825284
1580422484.05875,-0.922621499961853,0.027588311589227,0.0520027466239412
1580422484.09095,-0.940199893186847,0.195559624628061,-0.00952162966353853
1580422484.12316,-0.935317006179904,0.297611963073166,0.00561532005798426
1580422484.15537,-0.857190814068819,0.150637064164187,-0.0104982070649271
1580422484.18758,-0.90748455024033,0.258060578316929,-0.0490730144197755
1580422484.21979,-0.94508278019379,0.116945143816281,-0.127199206530861
1580422484.25199,-0.974380102235447,0.00317387655451284,-0.0163576714732585
1580422484.2842,-1.09840543221179,0.203372243839169,0.115968566414892
1580422484.31641,-1.17311360341802,0.388921950102997,0.0490730144197755
1580422484.34862,-1.1320973525597,0.194583047226672,0.00415045395590141
1580422484.38083,-1.10377660791943,-0.000732433051041426,0.0593270771343555
1580422484.41303,-1.27956054016938,0.0881361104753182,0.149172198062104
1580422484.44524,-1.31032272831312,0.143312733653772,0.130128938735027
1580422484.47745,-1.2776073853666,0.314213778896772,0.156496528572518
1580422484.50966,-1.15358205539025,-0.0231937132829785,0.00952162966353853
1580422484.54186,-1.35622186617838,-0.154055085069047,-0.37085526817731
1580422484.57407,-1.29030289158465,0.357671473258563,-0.305424582284276
1580422484.60628,-1.27467765316243,0.276127260242617,0.0520027466239412
1580422484.63849,-1.19069199664301,0.0144045166704814,0.115480277714198
1580422484.6707,-1.0554360265507,0.0236820019836728,0.0651865415426869
1580422484.7029,-0.775646601052873,0.00317387655451284,0.0847180895704582
1580422484.73511,-0.606210421911955,-0.0612802319371326,0.0588387884336612
1580422484.76732,-0.537850003814755,-0.0305180437933927,-0.0339360646982527
1580422484.79953,-0.49048599984741,-0.0368657969024184,0.0578622110322726
1580422484.83174,-0.479743648432136,-0.0686045624475469,0.105226214999618
1580422484.86395,-0.714122224765392,-0.179934386205844,0.902601663233387
1580422484.89615,-1.06080720225834,-0.161379415579461,0.95533684290837
1580422484.92836,-0.951430533302815,-0.0046387426565957,0.829358358129245
1580422484.96057,-0.935317006179904,0.0163576714732585,0.606698710612651
1580422484.99278,-0.744396124208437,-0.147707331960021,0.557381551842528
1580422485.02498,-0.858655680170902,-0.182864118410009,0.60767528801404
1580422485.05719,-0.823987182421607,0.258548867017623,0.232669565880826
1580422485.0894,-1.36989394979782,0.166262302586404,0.593026626993211
1580422485.12161,-1.08863965819791,0.167238879987792,0.310307469291217
1580422485.15382,-0.777111467154956,-0.130617227435721,-0.229251544975966
1580422485.18602,-0.92457465476463,0.110597390707255,0.230716411078049
1580422485.21823,-0.990493629358358,0.531502250705731,-0.0720225833524069
1580422485.25044,-1.02174410620279,0.162355992980849,0.195071335927366
1580422485.28265,-0.954360265506981,0.0754406042572668,0.159914549477378
1580422485.31486,-0.926527809567407,0.101808194094758,0.0500495918211641
1580422485.34705,-1.0979171435111,0.717540245670254,0.278568703746089
1580422485.37925,-0.961196307316701,0.243900205996795,0.027588311589227
1580422485.41146,-0.867444876783399,0.216067750057221,-0.0471198596169984
1580422485.44367,-0.894789044022279,0.30493629358358,-0.117433432516975
1580422485.47588,-0.96559090562295,0.186770428015564,-0.144289311055161
1580422485.50809,-0.967544060425727,0.0544441901274126,-0.00317387655451284
1580422485.54029,-1.10377660791943,0.145754177157244,0.0202639810788128
1580422485.5725,-1.12428473334859,0.182375829709315,0.155031662470435
1580422485.60471,-1.08717479209583,0.136476691844052,0.0847180895704582
1580422485.63692,-1.16774242771038,0.0280766002899213,0.102784771496147
1580422485.66912,-1.1579766536965,0.114991989013504,0.0896009765774011
1580422485.70133,-1.23610284580758,0.31519035629816,0.060303654535744
1580422485.73354,-1.23121995880064,0.441168841077285,0.124269474326695
1580422485.76575,-1.17409018081941,0.163820859082932,0.10083161669337
1580422485.79796,-1.2693064774548,-0.293217364766919,0.00854505226214997
1580422485.83016,-1.3542687113756,0.00219729915312428,-0.199954222934309
1580422485.86237,-1.30202182040131,0.302006561379415,-0.12475776302739
1580422485.89458,-1.21461814297703,0.0832532234683754,0.113527122911421
1580422485.92679,-1.02418554970626,0.0588387884336612,0.0764171816586554
1580422485.959,-0.864515144579233,0.0817883573662925,0.0529793240253298
1580422485.9912,-0.716075379568169,0.0578622110322726,0.104737926298924
1580422486.02341,-0.566170748455024,-0.0583504997329669,0.00122072175173571
1580422486.05562,-0.577401388570992,-0.0173342488746471,0.00170901045242999
1580422486.08783,-0.610116731517509,-0.110109102006561,0.080811779964904
1580422486.12004,-0.588143739986267,-0.309819180590525,0.295170519569695
1580422486.15225,-0.80152590218967,-0.387457084000916,1.18434424353399
1580422486.18445,-1.00709544518196,-0.070557717250324,0.769787136644542
1580422486.21666,-0.76734569314107,0.101319905394064,0.636484321355002
1580422486.24887,-0.744884412909132,0.11108567940795,0.556893263141834
1580422486.28108,-0.896253910124361,0.123781185626001,0.928969253070878
1580422486.31328,-0.959731441214618,-0.131593804837109,0.00854505226214997
1580422486.34549,-1.40309758144503,-0.339116502632182,0.456305790798808
1580422486.3777,-0.84254215304799,0.0129396505683985,0.0749523155565726
1580422486.40991,-0.868909742885482,0.303959716182192,0.00952162966353853
1580422486.44212,-1.07301441977569,0.695078965438316,0.0778820477607383
1580422486.47432,-0.916762035553521,0.286381322957197,0.0920424200808725
1580422486.50653,-1.00758373388266,-0.0856946669718468,0.174074921797512
1580422486.53874,-0.913344014648661,-0.0798352025635154,0.0598153658350498
1580422486.57095,-0.896253910124361,0.110109102006561,-0.00610360875867855
1580422486.60316,-0.945571068894484,0.381597619592583,0.0187991149767299
1580422486.63541,-0.92115663385977,0.255130846112763,0.0271000228885327
1580422486.66761,-0.959731441214618,0.247806515602349,0.0593270771343555
1580422486.69982,-0.931898985275044,0.12475776302739,-0.0725108720531011
1580422486.73203,-1.00611886778058,-0.102784771496147,0.00512703135728998
1580422486.76424,-1.11305409323262,0.0153810940718699,0.249271381704432
1580422486.79645,-1.06129549095903,0.324956130312046,0.0383306630045013
1580422486.82865,-1.05055313954376,0.324467841611352,-0.0612802319371326
1580422486.86086,-1.02760357061112,0.170656900892652,-0.0969253070878153
1580422486.89307,-1.1745784695201,0.153566796368352,0.0153810940718699
1580422486.92528,-1.18141451132982,0.0886243991760125,0.187258716716258
1580422486.95749,-1.29713893339437,0.309819180590523,0.208743419546806
1580422486.98969,-1.33913176165408,0.171633478294041,0.112062256809338
1580422487.0219,-1.29665064469368,-0.208255130846112,-0.155031662470435
1580422487.05411,-1.36989394979782,0.104737926298924,-0.442145418478676
1580422487.08632,-1.26979476615549,0.340093080033569,-0.0217288471808956
1580422487.11853,-1.18825055313954,0.0490730144197755,0.156496528572518
1580422487.15073,-1.11989013504234,0.0759288929579611,0.077393759060044
1580422487.18294,-0.877698939497979,0.0915541313801782,0.0896009765774011
1580422487.21515,-0.635996032654306,-0.0651865415426869,0.132570382238498
1580422487.24736,-0.539314869916838,-0.119874876020447,0.0715342946517126
1580422487.27956,-0.582284275577935,-0.102296482795452,0.0339360646982527
1580422487.31177,-0.542732890821698,-0.132082093537804,0.138918135347524
1580422487.34398,-0.49048599984741,-0.138918135347524,0.25024795910582
1580422487.37619,-0.697032120241092,-0.196536202029449,0.91773861295491
1580422487.4084,-1.04225223163195,-0.0417486839093613,0.83912413214313
1580422487.4406,-0.879163805600061,0.060303654535744,0.929945830472267
1580422487.47281,-0.812756542305639,0.0124513618677042,0.619394216830703
1580422487.50502,-0.759044785229268,-0.169192034790569,0.567635614557108
1580422487.53723,-0.961196307316701,-0.183840695811398,0.275150682841229
1580422487.56944,-1.09938200961318,-0.077393759060044,0.555428397039751
1580422487.60164,-1.04908827344167,0.209719996948195,0.4143129625391
1580422487.63385,-0.796154726482033,0.185305561913481,-0.378667887388419
1580422487.66606,-1.06569008926528,0.260990310521095,0.131105516136415
1580422487.69827,-0.990493629358358,0.531502250705731,-0.0339360646982527
1580422487.73048,-1.02223239490349,0.169680323491264,0.0983901731898982
1580422487.76268,-1.01393148699168,0.119386587319752,0.177981231403066
1580422487.79489,-0.908461127641718,-0.048096437018387,0.0134279392690928
1580422487.8271,-0.929457541771573,0.10766765850309,-0.00512703135728998
1580422487.85931,-0.930922407873656,0.264408331425955,-0.0573739223315783
1580422487.89152,-0.861585412375067,0.341557946135651,-0.100343327992675
1580422487.92371,-0.871839475089647,0.300541695277332,-0.147707331960021
1580422487.95591,-0.971938658731975,0.181399252307926,-0.136964980544747
1580422487.98812,-1.03199816891737,-0.0339360646982527,0.0534676127260241
1580422488.02033,-1.11989013504234,0.178957808804455,0.172121766994735
1580422488.05254,-1.06324864576181,0.302006561379415,0.0563973449301898
1580422488.08475,-1.04274052033265,0.260990310521095,-0.00854505226214997
1580422488.11695,-0.990005340657664,0.204837109941252,-0.129152361333638
1580422488.14916,-1.10084687571527,0.215091172655832,-0.0495613031204698
1580422488.18137,-1.21705958648051,0.166750591287098,0.0524910353246355
1580422488.21358,-1.36989394979782,0.170656900892652,0.128664072632944
1580422488.24578,-1.36794079499504,-0.0988784618905925,0.0388189517051956
1580422488.27799,-1.20827038986801,-0.0866712443732354,-0.0236820019836728
1580422488.3102,-1.46608682383459,0.197024490730143,-0.168215457389181
1580422488.34241,-1.34401464866102,0.33911650263218,-0.461676966506447
1580422488.37462,-1.16237125200275,0.165774013885709,0.0490730144197755
1580422488.40682,-0.971938658731975,-0.0437018387121384,0.0339360646982527
1580422488.43903,-0.902113374532693,-0.0476081483176927,0.0397955291065841
1580422488.47124,-0.775646601052873,-0.00659189745937283,0.0847180895704582
1580422488.50345,-0.619394216830701,-0.0368657969024184,0.070557717250324
1580422488.53566,-0.50757610437171,-0.0749523155565726,0.0593270771343555
1580422488.56786,-0.567147325856412,-0.0778820477607383,0.103761348897535
1580422488.60007,-0.518318455786984,-0.0319829098954756,-0.0222171358815899
1580422488.63228,-0.878675516899367,-0.0695811398489354,0.836194399938964
1580422488.66449,-1.09889372091249,-0.138429846646829,1.06617837796597
1580422488.6967,-0.557381551842527,-0.0510261692225527,1.11842526894026
1580422488.7289,-0.78443579766537,-0.048096437018387,0.419195849546043
1580422488.76111,-0.758068207827879,-0.0485847257190812,0.279545281147477
1580422488.79332,-1.07496757457847,-0.144777599755855,0.385992217898831
1580422488.82553,-1.2942092011902,-0.296147096971085,0.949965667200733
1580422488.85774,-0.968520637827115,0.169192034790569,0.337163347829403
1580422488.88995,-0.677012283512626,0.150637064164187,-0.373296711680782
1580422488.92215,-1.05299458304723,0.3288624399176,0.364507515068283
1580422488.95436,-1.00270084687572,0.616464484626537,-0.0754406042572668
1580422488.98657,-1.01832608529793,0.128175783932249,0.219974059662775
1580422489.01878,-0.861585412375067,-0.494392309452964,0.0510261692225527
1580422489.05098,-0.919691767757687,0.0788586251621268,0.0158693827725642
1580422489.08319,-0.936781872281987,0.181399252307926,0.00366216525520713
1580422489.1154,-0.922133211261158,0.273197528038452,-0.0427252613107498
1580422489.14761,-0.861097123674373,0.226321812771801,0.0129396505683985
1580422489.17982,-0.923109788662547,0.251712825207903,-0.105714503700312
1580422489.21204,-0.947524223697261,0.133546959639887,-0.0744640268558783
1580422489.24424,-1.05445944914931,0.0578622110322726,-0.00512703135728998
1580422489.27645,-1.12233157854581,0.154543373769741,0.241458762493323
1580422489.30866,-1.08131532768749,0.2605020218204,0.0466315709163041
1580422489.34087,-1.11891355764095,0.216067750057221,-0.0568856336308841
1580422489.37307,-1.08815136949721,0.208255130846112,0.0817883573662925
1580422489.40528,-1.1320973525597,0.2605020218204,0.00659189745937283
1580422489.43749,-1.22243076218814,0.242435339894712,0.0349126420996413
1580422489.4697,-1.30397497520409,0.240970473792629,0.146730754558632
1580422489.5019,-1.20289921416037,0.0100099183642328,0.0368657969024184
1580422489.53411,-1.07740901808194,-0.0974135957885096,0.00219729915312428
1580422489.56632,-1.38454261081865,0.00903334096284425,-0.285893034256505
1580422489.59853,-1.32399481193256,0.260990310521095,-0.180910963607232
1580422489.63073,-1.30983443961242,0.0192874036774242,0.0319829098954756
1580422489.66294,-1.09010452429999,-0.0510261692225527,0.0729991607537954
1580422489.69515,-0.939711604486153,0.0749523155565726,-0.0383306630045013
1580422489.72736,-0.782482642862593,0.0534676127260241,0.0280766002899213
1580422489.75956,-0.634042877851529,-0.0158693827725642,0.073975738155184
1580422489.79177,-0.550545510032807,-0.0910658426794839,0.0944838635843439
1580422489.82398,-0.491462577248798,-0.0148928053711757,0.0456549935149155
1580422489.85619,-0.592538338292515,-0.130617227435721,0.214602883955138
1580422489.88839,-0.771252002746625,-0.203860532539863,1.16481269550622
1580422489.9206,-1.04811169604028,-0.0168459601739528,0.86646829938201
1580422489.95281,-0.775646601052873,0.12475776302739,0.620859082932785
1580422489.98501,-0.581795986877241,0.130617227435721,0.287357900358586
1580422490.01722,-1.05250629434653,-0.410406652933547,0.450934615091171
1580422490.04943,-1.10426489662013,-0.175051499198901,0.717540245670254
1580422490.08164,-1.29567406729229,0.157961394674601,0.25366598001068
1580422490.11384,-0.761486228732739,0.342046234836346,-0.131105516136415
1580422490.14605,-0.936781872281987,0.0837415121690697,-0.0334477759975584
1580422490.17826,-1.06276035706111,0.677012283512628,0.024170290684367
1580422490.21047,-0.990493629358358,0.307866025787746,0.00805676356145568
1580422490.24267,-1.02223239490349,-0.163820859082932,0.0974135957885096
1580422490.27488,-0.912855725947967,-0.0666514076447697,0.0319829098954756
1580422490.30709,-0.899183642328527,0.186770428015564,-0.0695811398489354
1580422490.3393,-0.94850080109865,0.3117723353933,-0.0783703364614325
1580422490.37151,-0.879652094300756,0.29126420996414,-0.0231937132829785
1580422490.40371,-0.991958495460441,0.261966887922483,-0.145265888456549
1580422490.43592,-1.07838559548333,0.0949721522850382,-0.0983901731898982
1580422490.46813,-1.0720378423743,-0.144289311055161,0.124269474326695
1580422490.50033,-1.09889372091249,0.120363164721141,0.172610055695429
1580422490.53254,-1.16432440680552,0.323491264209963,0.0578622110322726
1580422490.56475,-1.10768291752499,0.0632333867399097,0.176516365300984
1580422490.59696,-1.10865949492637,-0.00659189745937283,0.314702067597466
1580422490.62916,-1.20680552376593,0.209719996948195,0.173098344396124
1580422490.66137,-1.40016784924086,0.279545281147477,-0.170656900892652
1580422490.69358,-1.37087052719921,0.184328984512092,-0.154543373769741
1580422490.72579,-1.2263370717937,0.0354009308003356,-0.37427328908217
1580422490.75799,-1.28493171587701,0.336186770428014,-0.067139696345464
1580422490.7902,-1.25807583733883,0.101808194094758,0.0163576714732585
1580422490.82241,-1.19118028534371,-0.0959487296864268,0.0944838635843439
1580422490.85462,-1.01588464179446,-0.157473105973907,0.138918135347524
1580422490.88682,-0.708751049057755,-0.170656900892652,0.132082093537804
1580422490.91903,-0.599862668802929,-0.166262302586404,-0.0358892195010299
1580422490.95124,-0.554940108339055,-0.0495613031204698,0.150148775463492
1580422490.98345,-0.565194171053635,-0.0656748302433812,0.30493629358358
1580422491.01566,-0.617929350728618,-0.0837415121690697,0.35278858625162
1580422491.04786,-0.636484321355001,-0.184817273212786,0.341069657434957
1580422491.08007,-0.805920500495919,-0.129640650034332,0.685801480125125
1580422491.11228,-0.923109788662547,0.0588387884336612,0.805432211795225
1580422491.14448,-0.821545738918136,-0.01196307316701,0.981704432745861
1580422491.17669,-0.69800869764248,-0.0568856336308841,0.683848325322348
1580422491.2089,-0.713145647364003,-0.0666514076447697,0.334721904325932
1580422491.24111,-1.15065232318608,0.0236820019836728,0.551522087434197
1580422491.27331,-1.10963607232776,-0.10424963759823,0.748790722514688
1580422491.30552,-1.20534065766384,-0.168703746089875,0.330327306019683
1580422491.33773,-0.80494392309453,0.0720225833524069,-0.138918135347524
1580422491.36994,-0.81177996490425,0.070557717250324,-0.00170901045242999
1580422491.40214,-1.08522163729305,0.83570611123827,0.0407721065079727
1580422491.43435,-1.00318913557641,0.338139925230792,0.138918135347524
1580422491.46656,-1.03053330281529,-0.0769054703593497,0.239017318989852
1580422491.49877,-0.998306248569467,0.00268558785381856,0.0993667505912867
1580422491.53097,-0.891859311818113,0.188235294117646,-0.0397955291065841
1580422491.56318,-0.953383688105593,0.248294804303043,0.0075684748607614
1580422491.59539,-0.898207064927139,0.23315785458152,0.0075684748607614
1580422491.6276,-0.846936751354239,0.240482185091935,-0.000244144350347142
1580422491.6598,-0.929945830472267,0.254154268711375,-0.156008239871824
1580422491.69201,-0.944106202792401,0.0720225833524069,-0.108155947203784
1580422491.72422,-1.05787747005417,0.0690928511482412,0.148195620660715
1580422491.75643,-1.07350270847639,0.185793850614175,0.145265888456549
1580422491.78866,-1.06861982146944,0.239505607690546,-0.0847180895704582
1580422491.82087,-1.0637369344625,0.232669565880826,-0.0256351567864499
1580422491.85308,-1.03102159151598,0.294682230869,-0.0300297550926985
1580422491.88529,-1.18825055313954,0.329839017318989,-0.136964980544747
1580422491.9175,-1.2859082932784,0.345464255741206,-0.037842374303807
1580422491.9497,-1.3454795147631,0.168703746089875,0.118410009918364
1580422491.98191,-1.19020370794232,-0.206790264744029,0.112550545510032
1580422492.01412,-1.09352254520485,-0.191653315022506,-0.0949721522850382
1580422492.04632,-1.37477683680476,0.0256351567864499,-0.11108567940795
1580422492.07853,-1.28102540627146,0.2605020218204,-0.394293125810636
1580422492.11074,-1.20143434805829,0.159914549477378,-0.131593804837109
1580422492.14295,-1.07740901808194,0.119386587319752,0.124269474326695
1580422492.17515,-1.03248645761807,0.0817883573662925,0.0778820477607383
1580422492.20736,-0.895765621423667,0.0700694285496297,0.109620813305867
1580422492.23957,-0.667734798199435,-0.000244144350347142,0.105714503700312
1580422492.27178,-0.53150225070573,-0.0397955291065841,0.080811779964904
1580422492.30398,-0.547615777828641,-0.109132524605172,0.0749523155565726
1580422492.33619,-0.527595941100175,-0.161867704280155,0.00708018616006711
1580422492.3684,-0.684824902723735,-0.300053406576639,0.684336614023042
1580422492.40061,-0.928480964370184,-0.119874876020447,0.960708018616007
1580422492.43281,-0.80494392309453,0.0578622110322726,1.07887388418402
1580422492.46502,-0.72535286488136,0.112062256809338,0.65552758068208
1580422492.49723,-0.81519798580911,0.206790264744029,0.674082551308462
1580422492.52944,-0.835217822537576,-0.193606469825284,0.031006332494087
1580422492.56165,-1.75906004425116,-0.158449683375295,1.01979095140002
1580422492.59385,-0.83912413214313,0.188723582818341,0.309819180590523
1580422492.62606,-0.579354543373769,-0.152101930266269,-0.296147096971085
1580422492.65827,-1.20143434805829,0.487067978942548,0.226810101472495
1580422492.69047,-0.971938658731975,0.552010376134891,0.00512703135728998
1580422492.72268,-1.00270084687572,0.100343327992675,0.185305561913481
1580422492.75489,-0.926527809567407,-0.00659189745937283,0.139894712748912
1580422492.7871,-0.846936751354239,-0.0866712443732354,0.0397955291065841
1580422492.8193,-0.925062943465324,0.220462348363469,-0.00805676356145568
1580422492.85151,-0.922133211261158,0.34253452353704,-0.00219729915312428
1580422492.88372,-0.802502479591059,0.234134431982909,-0.0466315709163041
1580422492.91593,-0.983169298847944,0.255130846112763,-0.203860532539863
1580422492.94813,-1.0466468299382,0.112062256809338,-0.107179369802395
1580422492.98034,-1.16578927290761,0.0676279850461583,0.215091172655832
1580422493.01255,-1.07887388418402,0.110109102006561,0.199954222934309
1580422493.04476,-1.10133516441596,0.218997482261386,-0.0148928053711757
1580422493.07699,-1.11842526894026,0.168703746089875,0.0617685206378269
1580422493.1092,-1.07643244068055,0.188235294117646,0.0778820477607383
1580422493.14141,-1.19606317235065,0.247806515602349,-0.0129396505683985
1580422493.17362,-1.31227588311589,0.377203021286334,0.0876478217746239
1580422493.20582,-1.27467765316243,0.188723582818341,0.0861829556725411
1580422493.23803,-1.11158922713054,-0.124269474326695,0.0178225375753414
1580422493.27024,-1.2429388876173,-0.235111009384298,-0.0529793240253298
1580422493.30245,-1.42360570687419,0.0803234912642097,-0.386480506599527
1580422493.33466,-1.35378042267491,0.352300297550926,-0.0798352025635154
1580422493.36686,-1.10328831921874,0.217532616159303,0.0939955748836496
1580422493.39907,-0.899183642328527,0.143801022354467,0.0334477759975584
1580422493.43128,-0.818127718013276,0.0891126878767068,0.0495613031204698
1580422493.46349,-0.657480735484855,-0.0251468680857556,0.11792172121767
1580422493.49569,-0.504646372167544,-0.132570382238498,0.0725108720531011
1580422493.5279,-0.542732890821698,-0.0827649347676811,-0.077393759060044
1580422493.56011,-0.535896849011978,0.0437018387121384,-0.0490730144197755
1580422493.59231,-0.628671702143892,-0.297611963073168,0.649179827573054
1580422493.62452,-1.03932249942779,-0.285404745555811,1.36403448538949
1580422493.65673,-1.05494773785,0.0510261692225527,1.19606317235065
1580422493.68894,-0.71168078126192,0.0847180895704582,0.452887769893948
1580422493.72114,-0.970473792629893,-0.00659189745937283,0.426520180056457
1580422493.75335,-0.738048371099412,-0.385015640497445,0.229739833676661
1580422493.78556,-1.14235141527428,-0.0778820477607383,0.629648279545282
1580422493.81777,-1.37038223849851,0.296147096971083,0.4143129625391
1580422493.84997,-0.688731212329289,0.0583504997329669,-0.123781185626001
1580422493.88218,-0.90064850843061,0.0881361104753182,0.0646982528419926
1580422493.91439,-1.02272068360418,0.558846417944611,0.132082093537804
1580422493.9466,-0.944594491493095,0.339604791332874,0.0847180895704582
1580422493.9788,-1.03102159151598,0.138429846646829,0.137941557946135
1580422494.01101,-0.950942244602121,0.0358892195010299,0.0822766460669868
1580422494.04322,-1.07838559548333,0.611581597619594,0.168215457389181
1580422494.07543,-0.970962081330587,0.279056992446783,0.0490730144197755
1580422494.10764,-0.870374608987564,0.288334477759975,-0.0383306630045013
1580422494.13984,-0.849866483558404,0.258548867017623,-0.0368657969024184
1580422494.17205,-0.981216144045167,0.244876783398183,-0.096437018387121
1580422494.20426,-0.960708018616007,-0.0368657969024184,-0.00805676356145568
1580422494.23646,-1.13307392996109,0.0490730144197755,0.184817273212786
1580422494.26867,-1.09156939040207,0.187747005416952,0.145265888456549
1580422494.30088,-1.06129549095903,0.315678644998854,-0.0622568093385212
1580422494.33309,-1.06764324406805,0.285404745555809,-0.0803234912642097
1580422494.36533,-1.11940184634165,0.274662394140535,0.0075684748607614
1580422494.39753,-1.24245059891661,0.196047913328755,0.0246585793850613
1580422494.42974,-1.24440375371939,0.185793850614175,0.141359578850995
1580422494.46195,-1.34840924696727,0.230228122377355,0.114015411612115
1580422494.49416,-1.15895323109789,-0.142336156252384,-0.0788586251621268
1580422494.52636,-1.19069199664301,-0.197512779430838,-0.131593804837109
1580422494.55857,-1.38796063172351,-0.0187991149767299,-0.369390402075227
1580422494.59078,-1.2771190966659,0.208743419546806,-0.120851453421835
1580422494.62298,-1.13014419775692,0.25366598001068,0.118898298619058
1580422494.65519,-0.939223315785458,0.265384908827343,0.0539559014267184
1580422494.6874,-0.812268253604945,0.163820859082932,0.0979018844892039
1580422494.71961,-0.666269932097352,0.0295414663920042,0.0939955748836496
1580422494.75181,-0.537850003814755,-0.0769054703593497,0.070557717250324
1580422494.78402,-0.572030212863355,-0.114015411612115,0.0441901274128327
1580422494.81623,-0.614999618524452,-0.177492942702372,0.139894712748912
1580422494.84844,-0.606210421911955,-0.390875104905776,0.420172426947431
1580422494.88065,-0.870374608987564,-0.274174105439842,1.09987029831388
1580422494.91285,-1.04859998474098,0.126222629129472,0.823498893720913
1580422494.94506,-0.697032120241092,0.170168612191958,0.903578240634776
1580422494.97727,-0.806897077897307,0.0139162279697871,0.599374380102237
1580422495.00947,-0.98268101014725,0.00903334096284425,0.802502479591059
1580422495.04168,-0.741954680704966,-0.151613641565575,0.183840695811398
1580422495.07389,-1.64773022049287,-0.127199206530861,0.591561760891128
1580422495.1061,-0.896742198825056,0.368413824673837,-0.0163576714732585
1580422495.1383,-0.716075379568169,-0.133546959639887,-0.176028076600289
1580422495.17051,-1.07936217288472,0.694590676737622,0.0598153658350498
1580422495.20272,-0.939711604486153,0.34253452353704,-0.0100099183642328
1580422495.23493,-1.04957656214237,0.0285648889906156,0.225833524071106
1580422495.26713,-0.984145876249332,-0.0471198596169984,0.157473105973907
1580422495.29934,-0.947524223697261,0.0720225833524069,0.0573739223315783
1580422495.33155,-0.906019684138247,0.289311055161363,0.0520027466239412
1580422495.36376,-0.903089951934081,0.300541695277332,0.0168459601739528
1580422495.39596,-0.835217822537576,0.294193942168306,-0.0158693827725642
1580422495.42817,-0.92115663385977,0.308842603189134,-0.0754406042572668
1580422495.46038,-0.937270160982681,0.158449683375295,-0.0949721522850382
1580422495.49259,-1.08863965819791,0.165285725185015,0.100343327992675
1580422495.52479,-1.06617837796597,0.150637064164187,0.149172198062104
1580422495.557,-1.05885404745556,0.190676737621118,0.0700694285496297
1580422495.58921,-1.0720378423743,0.192141603723201,-0.0515144579232469
1580422495.62142,-1.09254596780346,0.243900205996795,0.0407721065079727
1580422495.65369,-1.16481269550622,0.234134431982909,-0.0266117341878385
1580422495.68589,-1.23414969100481,0.191165026321812,-0.044678416113527
1580422495.7181,-1.31276417181659,0.196536202029449,0.246341649500266
1580422495.75031,-1.24733348592355,0.132570382238498,0.164309147783626
1580422495.78252,-0.970962081330587,-0.103761348897535,0.266849774929426
1580422495.81472,-1.33473716334783,-0.0954604409857325,0.157473105973907
1580422495.84693,-1.35524528877699,0.112550545510032,-0.515877012283513
1580422495.87914,-1.44069581139849,0.423102159151597,-0.128664072632944
1580422495.91135,-1.09108110170138,0.0622568093385212,0.0500495918211641
1580422495.94355,-0.948012512397955,0.0319829098954756,-0.0266117341878385
1580422495.97576,-0.874280918593119,0.114991989013504,0.0046387426565957
1580422496.00797,-0.666758220798046,0.034424353398947,0.0749523155565726
1580422496.04018,-0.558358129243915,-0.00366216525520713,-0.125734340428778
1580422496.07238,-0.475837338826581,0.162355992980849,-0.159914549477378
1580422496.10459,-0.527595941100175,-0.10083161669337,0.297123674372472
1580422496.1368,-0.969985503929198,-0.339116502632182,1.80886549172198
1580422496.16901,-1.13307392996109,-0.0720225833524069,1.11061264972915
1580422496.20121,-0.738536659800106,0.0168459601739528,0.137941557946135
1580422496.23342,-0.855725947966736,0.232669565880826,0.486579690241854
1580422496.26563,-0.995376516365301,-0.677988860914015,0.554451819638363
1580422496.29784,-1.53444724193179,-0.0300297550926985,0.756115053025102
1580422496.33004,-0.807873655298696,0.635996032654308,0.205325398641946
1580422496.36225,-0.675059128709849,0.219974059662775,-0.271732661936371
1580422496.39446,-1.16334782940413,0.430426489662011,0.0817883573662925
1580422496.42667,-1.00758373388266,0.246341649500266,0.0432135500114441
1580422496.45887,-1.04274052033265,-0.0896009765774011,0.204348821240558
1580422496.49108,-0.91090257114519,-0.489509422446021,0.189211871519035
1580422496.52329,-0.932875562676433,0.112062256809338,0.0842298008697639
1580422496.5555,-0.88014038300145,0.292240787365529,-0.0881361104753182
1580422496.5877,-0.913344014648661,0.370855268177309,-0.0490730144197755
1580422496.61991,-0.85963225757229,0.275638971541923,-0.0231937132829785
1580422496.65212,-0.894300755321584,0.211184863050278,-0.10083161669337
1580422496.68433,-0.966567483024338,0.0324711985961699,-0.127199206530861
1580422496.71653,-0.987563897154192,-0.0588387884336612,0.0700694285496297
1580422496.74874,-1.07106126497291,0.157961394674601,0.147219043259327
1580422496.78095,-1.08375677119097,0.259037155718318,0.139406424048218
1580422496.81316,-1.13990997177081,0.296147096971083,-0.0158693827725642
1580422496.84536,-1.1833676661326,0.326420996414129,0.114015411612115
1580422496.87757,-1.28834973678187,0.163332570382238,0.251224536507209
1580422496.90978,-1.35719844357977,0.222903791866941,0.0402838178072784
1580422496.94199,-1.1403982604715,-0.181399252307926,0.111573968108644
1580422496.97419,-1.28346684977493,-0.297611963073168,-0.0466315709163041
1580422497.0064,-1.33913176165408,0.239505607690546,-0.245853360799572
1580422497.03861,-1.30788128480964,0.451422903791865,-0.322026398107882
1580422497.07082,-1.21608300907912,0.212649729152361,0.0944838635843439
1580422497.10303,-1.06910811017014,-0.0227054245822842,0.0334477759975584
1580422497.13523,-0.904554818036164,-0.0588387884336612,0.0578622110322726
1580422497.16744,-0.734630350194552,-0.0734874494544897,0.144289311055161
1580422497.19965,-0.616952773327229,-0.0422369726100555,0.0534676127260241
1580422497.23186,-0.592538338292515,-0.0729991607537954,0.0559090562294955
1580422497.26407,-0.540291447318227,-0.0993667505912867,0.0856946669718468
1580422497.29627,-0.573983367666132,-0.214114595254443,0.175539787899595
1580422497.32848,-0.825940337224385,-0.108155947203784,0.913344014648661
1580422497.36069,-1.12037842374304,-0.0725108720531011,0.844983596551462
1580422497.3929,-0.719005111772335,-0.0500495918211641,0.91090257114519
1580422497.4251,-0.778576333257039,0.0129396505683985,0.459723811703668
1580422497.45731,-0.813733119707027,0.221927214465552,0.581307698176548
1580422497.48952,-0.934340428778516,0.108644235904478,0.164309147783626
1580422497.52173,-1.6018310826276,-0.121828030823224,0.394781414511328
1580422497.55394,-0.865003433279927,-0.0373540856031127,-0.0759288929579611
1580422497.58614,-0.744884412909132,-0.136964980544747,-0.0476081483176927
1580422497.61835,-1.07643244068055,0.658945601586939,0.117433432516975
1580422497.65056,-0.967055771725033,0.418707560845348,0.0476081483176927
1580422497.68277,-0.991958495460441,0.0544441901274126,0.231204699778743
1580422497.71498,-0.940199893186847,-0.00903334096284425,0.0910658426794839
1580422497.74718,-0.955825131609064,0.164797436484321,0.0383306630045013
1580422497.77939,-0.946547646295873,0.269779507133592,0.0373540856031127
1580422497.8116,-0.888441290913253,0.27417410543984,-0.00708018616006711
1580422497.84381,-0.861585412375067,0.27417410543984,-0.0300297550926985
1580422497.87602,-0.973891813534753,0.334721904325932,-0.0720225833524069
1580422497.90822,-0.994888227664607,0.0983901731898982,-0.0261234454871442
1580422497.94043,-1.03248645761807,-0.101808194094758,0.0974135957885096
1580422497.97264,-1.1233081559472,0.154543373769741,0.163332570382238
1580422498.00485,-1.01686121919585,0.271244373235675,0.00415045395590141
1580422498.03706,-1.09596398870832,0.27075608453498,0.0280766002899213
1580422498.06926,-1.04957656214237,0.261966887922483,0.0368657969024184
1580422498.10147,-1.16139467460136,0.171633478294041,-0.0925307087815668
1580422498.13368,-1.23659113450828,0.209719996948195,0.0227054245822842
1580422498.16589,-1.37526512550546,0.286381322957197,0.112062256809338
1580422498.1981,-1.20973525597009,0.00122072175173571,0.073975738155184
1580422498.23028,-1.0554360265507,-0.220462348363469,0.0358892195010299
1580422498.26249,-1.3884489204242,-0.0725108720531011,-0.228274967574578
1580422498.2947,-1.3112993057145,0.242923628595406,-0.218997482261386
1580422498.32691,-1.25416952773327,0.0583504997329669,0.0178225375753414
1580422498.35911,-1.07350270847639,0.0983901731898982,0.0793469138628211
1580422498.39132,-0.905531395437553,0.198977645532921,0.0207522697795071
1580422498.42353,-0.719981689173723,0.077393759060044,0.0988784618905925
1580422498.45574,-0.553475242236972,-0.027588311589227,0.041260395208667
1580422498.48794,-0.568123903257801,-0.0397955291065841,0.0461432822156098
1580422498.52015,-0.621347371633478,-0.0979018844892039,-0.00561532005798426
1580422498.55236,-0.602304112306401,-0.294193942168308,0.262455176623178
1580422498.58457,-0.764415960936905,-0.404058899824522,1.24928664072633
1580422498.61678,-0.865980010681316,-0.00561532005798426,0.724376287479974
1580422498.64898,-0.71168078126192,0.161379415579461,0.746349279011216
1580422498.68119,-0.860608834973679,0.148195620660715,0.579842832074466
1580422498.7134,-0.640878919661249,-0.0583504997329669,0.666758220798048
1580422498.7456,-1.11744869153887,-0.177492942702372,0.668711375600825
1580422498.77781,-0.959731441214618,-0.188723582818341,0.444586861982145
1580422498.81002,-1.00904859998474,-0.50757610437171,0.505622949568934
1580422498.84223,-0.85621423666743,-0.0368657969024184,0.0822766460669868
1580422498.87443,-0.980727855344472,0.460212100404362,-0.027588311589227
1580422498.90664,-1.12477302204929,1.0295567254139,0.0939955748836496
1580422498.93885,-0.978774700541695,0.33569848172732,0.0285648889906156
1580422498.97106,-1.04078736552987,-0.0856946669718468,0.191165026321812
1580422499.00326,-0.889906157015336,-0.398687724116884,-0.0139162279697871
1580422499.03547,-0.929945830472267,0.0612802319371326,-0.0407721065079727
1580422499.06768,-0.923598077363241,0.194583047226672,0.0187991149767299
1580422499.09989,-0.862073701075762,0.275150682841229,-0.0666514076447697
1580422499.13209,-0.863538567177844,0.309330891889829,-0.151125352864881
1580422499.1643,-0.971450370031281,0.210696574349583,-0.101808194094758
1580422499.19651,-1.01100175478752,-0.0788586251621268,0.136964980544747
1580422499.22872,-1.06569008926528,0.103273060196841,0.0949721522850382
1580422499.26092,-1.08668650339513,0.280033569848172,0.0466315709163041
1580422499.29313,-1.13307392996109,0.265384908827343,0.0461432822156098
1580422499.32534,-1.04859998474098,0.176028076600289,0.0109864957656214
1580422499.35755,-1.14528114747845,0.253177691309986,-0.0139162279697871
1580422499.38976,-1.24635690852216,0.292240787365529,0.0383306630045013
1580422499.42196,-1.3112993057145,0.241947051194018,0.150637064164187
1580422499.45417,-1.23121995880064,-0.141359578850995,0.110109102006561
1580422499.48638,-1.22487220569161,-0.0441901274128327,0.0441901274128327
1580422499.51858,-1.38112458991379,0.241458762493323,-0.190188448920424
1580422499.55079,-1.35133897917144,0.313237201495383,-0.389898527504387
1580422499.583,-1.30153353170062,0.0930189974822611,0.118898298619058
1580422499.61521,-1.05690089265278,-0.0524910353246355,0.0813000686655982
1580422499.64741,-0.897718776226444,-0.0158693827725642,0.0227054245822842
1580422499.67962,-0.677988860914015,0.00415045395590141,0.0866712443732354
1580422499.71183,-0.552986953536278,-0.01196307316701,0.0793469138628211
1580422499.74404,-0.566659037155718,-0.0397955291065841,0.0217288471808956
1580422499.77624,-0.538826581216144,-0.10083161669337,0.044678416113527
1580422499.80845,-0.564217593652247,-0.305912870984971,0.408941786831463
1580422499.84066,-0.783947508964676,-0.168215457389181,1.02174410620279
1580422499.87287,-1.06031891355764,0.0554207675288012,0.761486228732739
1580422499.90507,-0.740489814602883,0.044678416113527,0.725841153582056
1580422499.93728,-0.817151140611887,-0.0769054703593497,0.553963530937668
1580422499.96949,-0.666269932097352,-0.189211871519035,0.630136568245977
1580422500.0017,-0.956313420309758,-0.182375829709315,0.0319829098954756
1580422500.03391,-1.48757152666514,0.181887541008621,0.891859311818113
1580422500.06611,-0.868421454184787,0.211184863050278,0.429449912260623
1580422500.09832,-0.726329442282749,0.0407721065079727,-0.285404745555811
1580422500.13053,-1.05348287174792,0.175539787899595,0.185793850614175
1580422500.16273,-0.997329671168078,0.568123903257803,-0.107179369802395
1580422500.19494,-1.08326848249027,0.226810101472495,0.135011825741969
1580422500.22715,-1.01344319829099,0.0861829556725411,0.226321812771801
1580422500.25936,-0.906019684138247,0.0329594872968642,-0.048096437018387
1580422500.29156,-0.928480964370184,0.231692988479438,-0.0510261692225527
1580422500.32377,-0.938735027084764,0.279545281147477,-0.0104982070649271
1580422500.35598,-0.847913328755627,0.25024795910582,-0.0271000228885327
1580422500.38819,-0.914808880750744,0.320073243305103,-0.184328984512092
1580422500.42039,-0.959243152513924,0.129640650034332,-0.12475776302739
1580422500.4526,-1.06080720225834,0.102784771496147,0.167727168688486
1580422500.48481,-1.03395132372015,0.034424353398947,0.135500114442664
1580422500.51702,-1.06910811017014,0.150637064164187,0.0544441901274126
1580422500.54922,-1.12135500114443,0.253177691309986,-0.0139162279697871
1580422500.58143,-1.11110093842985,0.256595712214846,0.0920424200808725
1580422500.61364,-1.19703974975204,0.245365072098878,0.0588387884336612
1580422500.64585,-1.3371786068513,0.30493629358358,0.0656748302433812
1580422500.67805,-1.35231555657282,0.194583047226672,0.101808194094758
1580422500.71026,-1.10035858701457,-0.0393072404058898,0.0988784618905925
1580422500.74247,-1.14186312657359,-0.350835431448845,-0.123781185626001
1580422500.77468,-1.33571374074922,0.194094758525978,-0.333745326924545
1580422500.80688,-1.34206149385824,0.392828259708551,-0.0817883573662925
1580422500.83909,-1.17311360341802,0.0417486839093613,0.0842298008697639
1580422500.8713,-1.01881437399863,0.0734874494544897,0.0573739223315783
1580422500.90351,-0.860608834973679,0.126710917830167,0.0642099641412983
1580422500.93572,-0.729747463187609,0.0124513618677042,0.123292896925307
1580422500.96792,-0.561287861448081,-0.0627450980392155,0.0476081483176927
1580422501.00013,-0.595468070496681,-0.0642099641412983,0.0607919432364383
1580422501.03234,-0.611093308918898,-0.157961394674601,0.0476081483176927
1580422501.06455,-0.587655451285572,-0.280521858548868,0.516853589684903
1580422501.09676,-0.865491721980622,-0.206790264744029,1.07057297627222
1580422501.12896,-0.938735027084764,0.000732433051041426,0.964126039520867
1580422501.16117,-0.71851682307164,0.0993667505912867,0.675059128709851
1580422501.19338,-0.776134889753568,0.316166933699549,0.53247882810712
1580422501.22559,-0.915785458152133,-0.225345235370412,-0.103273060196841
1580422501.2578,-1.58620584420539,-0.0368657969024184,1.35866330968185
1580422501.29,-1.15846494239719,0.070557717250324,0.350347142748149
1580422501.32221,-0.560799572747387,-0.219974059662775,-0.256107423514154
1580422501.35442,-1.03053330281529,0.0734874494544897,0.416754406042571
1580422501.38663,-1.06227206836042,0.916762035553521,-0.105226214999618
1580422501.41884,-0.948989089799344,0.415777828641183,0.130617227435721
1580422501.45104,-0.983169298847944,-0.150637064164187,0.116456855115587
1580422501.48325,-0.965102616922255,-1.04225223163195,-0.303471427481499
1580422501.51546,-0.919203479056993,0.215579461356526,-0.00805676356145568
1580422501.54767,-0.932875562676433,0.372320134279391,-0.0158693827725642
1580422501.57988,-0.870374608987564,0.179446097505149,0.0158693827725642
1580422501.61208,-0.888929579613947,0.239505607690546,-0.00317387655451284
1580422501.64429,-0.942641336690318,0.236087586785686,-0.10424963759823
1580422501.6765,-1.01686121919585,0.123781185626001,-0.0437018387121384
1580422501.70871,-1.11549553673609,0.199465934233615,0.133546959639887
1580422501.74091,-1.10572976272221,0.251224536507209,0.158449683375295
1580422501.77312,-1.0637369344625,0.163820859082932,-0.034424353398947
1580422501.80533,-1.07057297627222,0.145754177157244,-0.000732433051041426
1580422501.83754,-1.16334782940413,0.200930800335698,0.0520027466239412
1580422501.86975,-1.27516594186313,0.156496528572518,0.0666514076447697
1580422501.90195,-1.33815518425269,0.225345235370412,0.192141603723201
1580422501.93416,-1.25514610513466,0.145754177157244,0.107179369802395
1580422501.96637,-1.02467383840696,-0.0251468680857556,0.113527122911421
1580422501.99858,-1.35378042267491,-0.211184863050278,-0.216067750057221
1580422502.03079,-1.33424887464714,0.355718318455786,-0.171145189593346
1580422502.06299,-1.30397497520409,0.25366598001068,0.0314946211947813
1580422502.09521,-1.11647211413748,0.106691081101701,0.0305180437933927
1580422502.12742,-0.930434119172961,0.115480277714198,0.0100099183642328
1580422502.15963,-0.743907835507743,0.073975738155184,0.0803234912642097
1580422502.19184,-0.551033798733501,-0.130617227435721,0.112550545510032
1580422502.22405,-0.526619363698787,-0.0837415121690697,0.0681162737468526
1580422502.25625,-0.492439154650187,-0.153566796368352,0.0534676127260241
1580422502.28846,-0.456794079499504,-0.244388494697489,0.168215457389181
1580422502.32067,-0.776623178454262,-0.23999389639124,1.00563057907988
1580422502.35288,-1.15065232318608,0.00122072175173571,0.812756542305639
1580422502.38509,-0.81519798580911,0.149660486762798,0.915785458152133
1580422502.41729,-0.716563668268863,0.0593270771343555,0.65552758068208
1580422502.4495,-0.848401617456322,-0.0114747844663157,0.56665903715572
1580422502.48171,-1.01637293049516,-0.131105516136415,0.241458762493323
1580422502.51392,-1.23854428931105,-0.044678416113527,0.795666437781339
1580422502.54613,-1.09840543221179,0.0822766460669868,0.270267795834286
1580422502.57833,-0.686289768825818,0.10424963759823,-0.358648050659953
1580422502.61054,-1.07936217288472,0.352300297550926,0.166750591287098
1580422502.64275,-1.03395132372015,0.545662623025866,-0.0466315709163041
1580422502.67496,-1.0642252231632,-0.00268558785381856,0.204348821240558
1580422502.70717,-0.973403524834058,-0.0720225833524069,0.166750591287098
1580422502.73937,-0.798596169985505,-0.145754177157244,-0.0280766002899213
1580422502.77158,-0.943129625391013,0.253177691309986,-0.0114747844663157
1580422502.80379,-0.899183642328527,0.28442816815442,0.0256351567864499
1580422502.836,-0.851819638361182,0.250736247806515,0.0554207675288012
1580422502.86821,-0.920668345159076,0.33228046082246,-0.0837415121690697
1580422502.90041,-0.969497215228504,0.207278553444723,-0.10083161669337
1580422502.93262,-1.01979095140002,0.0305180437933927,-0.044678416113527
1580422502.96483,-1.15700007629511,0.161867704280155,0.296147096971083
1580422502.99704,-1.10133516441596,0.213138017853055,0.0881361104753182
1580422503.02924,-1.1062180514229,0.146730754558632,-0.124269474326695
1580422503.06145,-1.09547570000763,0.156496528572518,0.160402838178072
1580422503.09366,-1.17750820172427,0.215579461356526,0.0075684748607614
1580422503.12587,-1.19899290455482,0.242923628595406,-0.031006332494087
1580422503.15808,-1.37380025940337,0.267826352330815,0.0832532234683754
1580422503.19028,-1.18532082093538,-0.0461432822156098,0.0212405584802013
1580422503.22249,-1.10475318532082,-0.254642557412071,-0.113527122911421
1580422503.2547,-1.49489585717556,0.0598153658350498,-0.205813687342641
1580422503.28691,-1.29567406729229,0.28101014724956,-0.352788586251622
1580422503.31912,-1.15358205539025,0.182375829709315,0.0441901274128327
1580422503.35133,-0.96217288471809,0.0461432822156098,0.0075684748607614
1580422503.38357,-0.879652094300756,0.0876478217746239,0.0168459601739528
1580422503.41578,-0.763439383535516,0.110597390707255,0.0651865415426869
1580422503.44799,-0.606210421911955,-0.0197756923781185,0.0402838178072784
1580422503.4802,-0.55542839703975,-0.0715342946517126,0.0554207675288012
1580422503.51241,-0.585702296482795,-0.125734340428778,0.110109102006561
1580422503.54462,-0.593514915693904,-0.12475776302739,0.143801022354467
1580422503.57683,-0.817151140611887,-0.262943465323874,0.735606927595942
1580422503.60903,-0.96217288471809,-0.172610055695429,0.806408789196613
1580422503.64124,-0.890882734416724,0.0490730144197755,0.981704432745861
1580422503.67345,-0.753673609521631,-0.0505378805218584,0.58716716258488
1580422503.70566,-0.946059357595178,-0.178957808804455,0.5769130998703
1580422503.73787,-0.981704432745861,-0.189700160219729,0.492439154650185
1580422503.77008,-1.09254596780346,0.154055085069047,0.43482108796826
1580422503.80228,-1.13014419775692,0.179446097505149,0.200442511635003
1580422503.83449,-0.774670023651485,-0.113038834210727,-0.290287632562753
1580422503.8667,-1.03150988021668,0.248783093003738,0.136964980544747
1580422503.89891,-1.0036774242771,0.62476539253834,0.0358892195010299
1580422503.93112,-0.995376516365301,0.153566796368352,0.222415503166246
1580422503.96333,-0.982192721446555,-0.096437018387121,0.209719996948195
1580422503.99553,-0.857190814068819,-0.00415045395590141,0.0236820019836728
1580422504.02774,-0.926039520866713,0.273685816739146,-0.0607919432364383
1580422504.05995,-0.931898985275044,0.406988632028686,-0.0207522697795071
1580422504.09216,-0.862561989776456,0.199954222934309,-0.01196307316701
1580422504.12437,-0.957289997711147,0.157961394674601,-0.0139162279697871
1580422504.15658,-0.984145876249332,0.0627450980392155,-0.0476081483176927
1580422504.18879,-1.11891355764095,-0.027588311589227,0.156008239871824
1580422504.22099,-1.09694056610971,0.254154268711375,0.252201113908598
1580422504.2532,-1.01539635309377,0.321049820706492,-0.151613641565575
1580422504.28541,-1.04859998474098,0.305912870984969,-0.146242465857938
1580422504.31762,-1.04322880903334,0.139894712748912,0.109132524605172
1580422504.34983,-1.19264515144579,0.0876478217746239,0.00903334096284425
1580422504.38204,-1.21120012207217,0.123781185626001,0.0505378805218584
1580422504.41424,-1.25416952773327,0.228763256275272,0.177004654001678
1580422504.44645,-1.2605172808423,0.140871290150301,0.0388189517051956
1580422504.47866,-1.13453879606317,-0.0881361104753182,-0.0187991149767299
1580422504.51087,-1.31715877012284,0.000732433051041426,-0.145754177157244
1580422504.54308,-1.32204165712978,0.174563210498206,-0.298100251773862
1580422504.57529,-1.25514610513466,0.155519951171129,-0.000732433051041426
1580422504.6075,-1.03492790112154,0.0422369726100555,0.194094758525978
1580422504.6397,-0.862561989776456,0.00952162966353853,0.0959487296864268
1580422504.67191,-0.777111467154956,0.00415045395590141,0.0852063782711525
1580422504.70411,-0.651621271076523,-0.0271000228885327,0.0681162737468526
1580422504.73632,-0.539803158617532,-0.0866712443732354,0.0520027466239412
1580422504.76853,-0.626718547341115,-0.0524910353246355,0.141359578850995
1580422504.80074,-0.623788815136949,-0.172121766994735,0.261478599221789
1580422504.83294,-0.624765392538338,-0.143312733653772,0.412848096437017
1580422504.86515,-0.956313420309758,-0.167238879987792,0.940199893186847
1580422504.89736,-1.08229190508888,-0.0476081483176927,1.26295872434577
1580422504.92957,-0.617441062027924,-0.0944838635843439,0.704356450751508
1580422504.96178,-0.880628671702144,-0.162355992980849,0.367437247272449
1580422504.99398,-0.874280918593119,-0.00219729915312428,0.609140154116123
1580422505.02619,-1.04957656214237,0.296635385671777,0.63501945525292
1580422505.0584,-1.5339589532311,0.343022812237734,0.480231937132828
1580422505.09061,-0.785900663767453,0.0866712443732354,-0.207278553444723
1580422505.12282,-0.843030441748684,-0.237552452887769,-0.01196307316701
1580422505.15503,-1.05934233615625,0.530037384603649,-0.0871595330739297
1580422505.18723,-1.01149004348821,0.301029983978026,0.0827649347676811
1580422505.21944,-1.03150988021668,0.00219729915312428,0.173586633096818
1580422505.25165,-0.919691767757687,-0.01196307316701,0.0847180895704582
1580422505.28386,-0.947524223697261,0.213138017853055,0.0832532234683754
1580422505.31606,-0.929945830472267,0.321538109407186,0.0358892195010299
1580422505.34827,-0.88355840390631,0.280033569848172,-0.0290531776913099
1580422505.38048,-0.858655680170902,0.235111009384298,-0.0075684748607614
1580422505.41269,-0.88355840390631,0.234622720683603,-0.0617685206378269
1580422505.4449,-0.990493629358358,0.152590218966964,-0.141847867551689
1580422505.4771,-1.00318913557641,0.044678416113527,-0.0158693827725642
1580422505.50931,-1.16090638590066,0.166750591287098,0.164797436484321
1580422505.54152,-1.14381628137636,0.265873197528038,0.113527122911421
1580422505.57373,-1.10914778362707,0.168215457389181,-0.0124513618677042
1580422505.60594,-1.14137483787289,0.187258716716258,0.0935072861829553
1580422505.63814,-1.25856412603952,0.254642557412069,-0.0451667048142212
1580422505.67035,-1.23024338139925,0.229251544975966,0.0930189974822611
1580422505.70256,-1.22340733958953,0.0710460059510183,0.0222171358815899
1580422505.73477,-1.05104142824445,-0.187747005416952,-0.0207522697795071
1580422505.76698,-1.30446326390478,-0.0690928511482412,-0.060303654535744
1580422505.79918,-1.42555886167697,0.297611963073166,-0.356206607156482
1580422505.83139,-1.25905241474022,0.300541695277332,-0.144777599755855
1580422505.8636,-1.13893339436942,0.148683909361409,0.117433432516975
1580422505.89581,-1.03248645761807,0.073975738155184,0.0900892652780954
1580422505.92802,-0.834729533836882,-0.0114747844663157,0.101808194094758
1580422505.96023,-0.593514915693904,-0.0905775539787896,0.0754406042572668
1580422505.99244,-0.476325627527276,-0.110597390707255,0.12133974212253
1580422506.02465,-0.499763485160601,-0.103273060196841,0.0754406042572668
1580422506.05686,-0.520271610589761,-0.119874876020447,0.0646982528419926
1580422506.08907,-0.713145647364003,-0.239505607690546,0.595468070496683
1580422506.12127,-1.05299458304723,-0.218997482261386,1.05152971694514
1580422506.15348,-0.993911650263218,-0.00268558785381856,1.06910811017014
1580422506.18569,-0.686289768825818,0.0168459601739528,0.612558175020983
1580422506.2179,-0.646738384069581,-0.0720225833524069,0.446540016784922
1580422506.25011,-1.04859998474098,-0.0466315709163041,0.3972228580148
1580422506.28232,-1.22536049439231,0.171633478294041,0.702891584649425
1580422506.31452,-1.18629739833677,0.060303654535744,0.336675059128709
1580422506.34673,-0.703379873350118,-0.113527122911421,-0.261966887922485
1580422506.37894,-0.916273746852827,0.0598153658350498,0.264408331425955
1580422506.41115,-1.07692072938125,0.671641107804991,0.00805676356145568
1580422506.44335,-0.95191882200351,0.227786678873883,0.224368657969023
1580422506.47556,-1.04420538643473,-0.0407721065079727,0.179934386205844
1580422506.50777,-0.92799267566949,0.0266117341878385,-0.0324711985961699
1580422506.53998,-1.03541618982223,0.40064087891966,0.0148928053711757
1580422506.57219,-0.943617914091707,0.329350728618294,0.00561532005798426
1580422506.60439,-0.870374608987564,0.299076829175249,-0.0314946211947813
1580422506.6366,-0.890882734416724,0.243900205996795,-0.00903334096284425
1580422506.66881,-0.960219729915313,0.178469520103761,-0.037842374303807
1580422506.70102,-0.943129625391013,-0.00610360875867855,0.0266117341878385
1580422506.73323,-1.11110093842985,0.185793850614175,0.152590218966964
1580422506.76543,-1.15065232318608,0.341557946135651,0.110109102006561
1580422506.79764,-1.08229190508888,0.211673151750972,-0.0183108262760356
1580422506.82985,-1.14283970397497,0.101808194094758,0.0544441901274126
1580422506.86206,-1.23121995880064,0.117433432516975,0.102784771496147
1580422506.89427,-1.23561455710689,0.166262302586404,0.0837415121690697
1580422506.92647,-1.25368123903258,0.261478599221789,0.0993667505912867
1580422506.95868,-1.17994964522774,0.0715342946517126,0.262943465323872
1580422506.99089,-1.21901274128328,-0.304448004882888,-0.142824444953078
1580422507.0231,-1.22291905088884,0.312260624093994,-0.316655222400245
1580422507.05531,-1.29713893339437,0.472907606622414,-0.119874876020447
1580422507.08751,-1.27516594186313,0.0661631189440754,0.0788586251621268
1580422507.11972,-1.12574959945067,0.0046387426565957,0.0798352025635154
1580422507.15193,-0.896253910124361,0.0173342488746471,0.0617685206378269
1580422507.18414,-0.720958266575112,-0.0290531776913099,0.0856946669718468
1580422507.21635,-0.610605020218204,-0.0466315709163041,0.0305180437933927
1580422507.24853,-0.544197756923781,-0.0212405584802013,-0.0222171358815899
1580422507.28074,-0.527107652399481,-0.0783703364614325,0.0397955291065841
1580422507.31295,-0.574959945067521,-0.258060578316931,0.371343556878003
1580422507.34516,-0.859143968871596,-0.316166933699551,1.06178377965972
1580422507.37736,-1.07740901808194,-0.0441901274128327,0.90748455024033
1580422507.40957,-0.782970931563288,0.070557717250324,0.651621271076525
1580422507.44178,-0.859143968871596,0.0783703364614325,0.708751049057756
1580422507.47399,-1.0212558175021,-0.0246585793850613,0.699961852445259
1580422507.50619,-0.862561989776456,-0.0529793240253298,0.162844281681544
1580422507.5384,-1.16969558251316,0.153566796368352,0.497322041657128
1580422507.57061,-1.05592431525139,0.261478599221789,0.108644235904478
1580422507.60282,-0.802014190890365,-0.132082093537804,-0.332768749523156
1580422507.63503,-1.09010452429999,0.266361486228732,0.333257038223849
1580422507.66723,-0.997817959868772,0.398199435416188,0.0432135500114441
1580422507.69944,-1.00611886778058,0.176516365300984,0.155031662470435
1580422507.73165,-0.879163805600061,0.0461432822156098,0.0905775539787896
1580422507.76385,-0.978286411841001,0.458258945601585,0.0578622110322726
1580422507.79606,-0.949477378500038,0.283451590753032,0.0368657969024184
1580422507.82827,-0.844495307850767,0.394781414511328,-0.0402838178072784
1580422507.86048,-0.818127718013276,0.295658808270389,-0.117433432516975
1580422507.89268,-0.983657587548638,0.236087586785686,-0.118410009918364
1580422507.92489,-1.15016403448539,0.0612802319371326,0.034424353398947
1580422507.9571,-1.14430457007706,-0.0236820019836728,0.218020904859998
1580422507.98931,-1.08570992599374,0.193606469825284,0.182375829709315
1580422508.02151,-1.07740901808194,0.278080415045395,-0.0817883573662925
1580422508.05372,-1.09840543221179,0.289311055161363,0.0451667048142212
1580422508.08593,-1.05983062485695,0.199954222934309,0.0583504997329669
1580422508.11814,-1.14821087968261,0.100343327992675,-0.101808194094758
1580422508.15034,-1.18825055313954,0.141847867551689,0.110109102006561
1580422508.18255,-1.28444342717632,0.269291218432897,0.198489356832226
1580422508.21476,-1.18434424353399,0.141847867551689,0.125734340428778
1580422508.24697,-1.12574959945067,-0.411383230334936,-0.167238879987792
1580422508.27917,-1.3117875944152,0.337651636530097,-0.354741741054399
1580422508.31138,-1.29713893339437,0.331792172121766,-0.0656748302433812
1580422508.34359,-1.25465781643397,0.0476081483176927,0.0979018844892039
1580422508.3758,-1.07692072938125,0.0437018387121384,0.0690928511482412
1580422508.408,-0.871839475089647,0.0876478217746239,0.0261234454871442
1580422508.44021,-0.704356450751506,0.0427252613107498,0.00805676356145568
1580422508.47242,-0.627206836041809,0.0139162279697871,-0.0114747844663157
1580422508.50463,-0.585214007782101,-0.0358892195010299,0.0368657969024184
1580422508.5369,-0.538826581216144,-0.166750591287098,0.070557717250324
1580422508.5691,-0.553475242236972,-0.238040741588463,0.594979781795988
1580422508.60131,-0.89381246662089,-0.221438925764858,1.05641260395209
1580422508.63352,-0.907972838941024,-0.0822766460669868,0.819592584115359
1580422508.66573,-0.788342107270925,0.0544441901274126,0.567147325856414
1580422508.69793,-0.865003433279927,-0.0192874036774242,0.682383459220265
1580422508.73014,-1.04176394293126,-0.154543373769741,0.937270160982681
1580422508.76235,-0.926527809567407,-0.130617227435721,0.355718318455786
1580422508.79456,-1.16578927290761,0.129640650034332,0.521736476691846
1580422508.82677,-0.918715190356298,0.273685816739146,0.129152361333638
1580422508.85897,-0.81519798580911,0.152590218966964,-0.222903791866941
1580422508.89118,-1.0808270389868,0.419195849546043,0.153566796368352
1580422508.92339,-0.957778286411841,0.263431754024566,0.0441901274128327
1580422508.9556,-1.05104142824445,-0.0329594872968642,0.221927214465552
1580422508.98781,-0.969985503929198,0.00561532005798426,0.154055085069047
1580422509.02002,-0.86305027847715,0.160891126878766,0.00219729915312428
1580422509.05222,-0.97242694743267,0.337651636530097,0.0144045166704814
1580422509.08443,-0.864515144579233,0.322514686808574,-0.0900892652780954
1580422509.11664,-0.831799801632716,0.294682230869,-0.131105516136415
1580422509.14885,-0.911390859845884,0.224856946669718,-0.200442511635003
1580422509.18105,-1.01832608529793,0.0939955748836496,-0.0451667048142212
1580422509.21326,-1.07057297627222,-0.0407721065079727,0.207278553444723
1580422509.24547,-1.09547570000763,0.205325398641946,0.129640650034332
1580422509.27768,-1.1150072480354,0.378179598687723,-0.0617685206378269
1580422509.30989,-1.10133516441596,0.295658808270389,0.0144045166704814
1580422509.34209,-1.15114061188678,0.23999389639124,0.0900892652780954
1580422509.3743,-1.24684519722286,0.136476691844052,0.0373540856031127
1580422509.40651,-1.3205767910277,0.25708400091554,0.167238879987792
1580422509.43872,-1.34206149385824,0.202395666437781,0.0993667505912867
1580422509.47093,-1.08570992599374,-0.0607919432364383,0.0813000686655982
1580422509.50313,-1.25709925993744,-0.482185091935607,-0.323979552910659
1580422509.53534,-1.2605172808423,0.405523765926603,-0.302983138780805
1580422509.56755,-1.26979476615549,0.380621042191194,-0.0290531776913099
1580422509.59976,-1.13795681696803,0.206790264744029,0.0559090562294955
1580422509.63197,-1.04176394293126,0.0935072861829553,0.150637064164187
1580422509.66417,-0.843518730449379,0.0222171358815899,0.0915541313801782
1580422509.69638,-0.700938429846646,-0.0622568093385212,0.11108567940795
1580422509.72859,-0.592050049591821,-0.0563973449301898,0.101319905394064
1580422509.7608,-0.56226443884947,-0.0725108720531011,0.0983901731898982
1580422509.79301,-0.552986953536278,-0.188723582818341,0.140383001449607
1580422509.82529,-0.570077058060578,-0.407965209430076,0.571541924162663
1580422509.85749,-0.808850232700085,-0.268802929732205,0.907972838941024
1580422509.8897,-0.920180056458381,-0.01196307316701,0.931898985275044
1580422509.92191,-0.690196078431372,0.0832532234683754,0.86646829938201
1580422509.95412,-0.913832303349356,0.0305180437933927,0.731700617990388
1580422509.98633,-1.14528114747845,0.176028076600289,0.641367208361945
1580422510.01853,-0.762951094834822,-0.198001068131532,0.361089494163423
1580422510.05074,-1.24098573281453,-0.316655222400245,0.60425726710918
1580422510.08295,-0.844495307850767,0.134523537041275,-0.0944838635843439
1580422510.11516,-0.865980010681316,0.201907377737086,-0.148195620660715
1580422510.14737,-1.10865949492637,0.795666437781339,0.00219729915312428
1580422510.17957,-0.985122453650721,0.323491264209963,0.0251468680857556
1580422510.21178,-1.04127565423056,0.0388189517051956,0.137453269245441
1580422510.24399,-0.922133211261158,-0.130128938735027,0.119874876020447
1580422510.2762,-0.915297169451438,0.0656748302433812,0.00952162966353853
1580422510.30841,-0.889906157015336,0.289799343862057,-0.00854505226214997
1580422510.34061,-0.863538567177844,0.25024795910582,-0.166262302586404
1580422510.37282,-0.889417868314641,0.233646143282215,-0.157473105973907
1580422510.40503,-1.05690089265278,0.176516365300984,-0.0407721065079727
1580422510.43724,-1.03590447852293,-0.0305180437933927,0.0969253070878153
1580422510.46945,-1.06813153276875,0.191165026321812,0.175051499198901
1580422510.50165,-1.10182345311665,0.208255130846112,0.00268558785381856
1580422510.53386,-1.08766308079652,0.277103837644006,-0.0861829556725411
1580422510.56607,-1.07106126497291,0.227298390173189,-0.0725108720531011
1580422510.59828,-1.19703974975204,0.189700160219729,-0.0227054245822842
1580422510.63049,-1.19459830624857,0.105714503700312,0.0466315709163041
1580422510.66269,-1.27223620965896,0.157473105973907,0.148195620660715
1580422510.6949,-1.26100556954299,-0.0500495918211641,-0.0822766460669868
1580422510.72711,-1.23170824750133,-0.041260395208667,-0.142336156252384
1580422510.75932,-1.33913176165408,0.232181277180132,-0.296635385671779
1580422510.79152,-1.18971541924163,0.232181277180132,-0.301518272678722
1580422510.82373,-1.09694056610971,0.160891126878766,0.10083161669337
1580422510.85594,-1.00563057907988,0.0842298008697639,0.0993667505912867
1580422510.88815,-0.895765621423667,0.0280766002899213,0.120851453421835
1580422510.92036,-0.748302433813992,-0.0261234454871442,0.102296482795452
1580422510.95256,-0.638437476157778,-0.0490730144197755,0.0949721522850382
1580422510.98477,-0.621347371633478,-0.0959487296864268,0.127687495231555
1580422511.01698,-0.653574425879301,-0.11108567940795,0.213626306553749
1580422511.04919,-0.605722133211261,-0.218020904859998,0.103273060196841
1580422511.0814,-0.69117265583276,-0.150637064164187,0.87672236209659
1580422511.11362,-1.00758373388266,-0.000244144350347142,0.936293583581293
1580422511.14582,-0.819592584115359,-0.0490730144197755,0.854261081864653
1580422511.17803,-0.873792629892424,0.120363164721141,0.517830167086291
1580422511.21024,-0.68433661402304,-0.0319829098954756,0.609140154116123
1580422511.24245,-0.782482642862593,-0.297611963073168,0.156008239871824
1580422511.27466,-1.12233157854581,0.133546959639887,0.656504158083468
1580422511.30686,-1.46852826733806,-0.0134279392690928,0.416754406042571
1580422511.33907,-0.667734798199435,-0.0695811398489354,-0.161379415579461
1580422511.37128,-0.973891813534753,0.0881361104753182,0.0573739223315783
1580422511.40349,-1.02516212710765,0.892835889219501,-0.160402838178072
1580422511.4357,-1.04322880903334,0.395269703212023,0.031006332494087
1580422511.4679,-1.01881437399863,-0.0407721065079727,0.135011825741969
1580422511.50011,-0.939711604486153,-0.0886243991760125,0.0129396505683985
1580422511.53232,-0.884046692607004,0.193606469825284,0.00317387655451284
1580422511.56453,-0.920668345159076,0.326420996414129,-0.096437018387121
1580422511.59674,-0.840588998245213,0.198977645532921,-0.138429846646829
1580422511.62894,-0.925062943465324,0.184817273212786,-0.145754177157244
1580422511.66115,-0.977798123140307,0.163820859082932,-0.0915541313801782
1580422511.69336,-1.05494773785,0.254642557412069,0.0534676127260241
1580422511.72557,-1.14186312657359,0.155519951171129,0.205325398641946
1580422511.75778,-1.13990997177081,0.122316319523918,-0.034424353398947
1580422511.78998,-1.13649195086595,0.148683909361409,-0.0173342488746471
1580422511.82219,-1.12428473334859,0.109132524605172,0.0900892652780954
1580422511.8544,-1.23024338139925,0.198001068131532,0.0373540856031127
1580422511.88661,-1.320088502327,0.360601205462729,0.111573968108644
1580422511.91882,-1.27077134355688,0.0114747844663157,-0.0842298008697639
1580422511.95102,-1.22829022659647,-0.296635385671779,-0.234622720683603
1580422511.98323,-1.24489204242008,0.209231708247501,-0.287357900358588
1580422512.01544,-1.2517280842298,0.384527351796748,-0.227298390173189
1580422512.04765,-1.25905241474022,0.25024795910582,0.0515144579232469
1580422512.07986,-1.04469367513542,0.0593270771343555,0.0822766460669868
1580422512.11206,-0.911390859845884,-0.0886243991760125,0.060303654535744
1580422512.14427,-0.77759975585565,-0.109132524605172,0.0427252613107498
1580422512.17648,-0.675547417410543,-0.136476691844052,0.0393072404058898
1580422512.20869,-0.583749141680018,-0.100343327992675,0.0852063782711525
1580422512.2409,-0.645273517967498,-0.121828030823224,0.239017318989852
1580422512.2731,-0.660410467689021,-0.226321812771801,0.155031662470435
1580422512.30531,-0.631601434348058,-0.160891126878766,0.60083924620432
1580422512.33752,-0.957289997711147,-0.0505378805218584,0.87330434119173
1580422512.36973,-0.730235751888303,-0.0368657969024184,0.912367437247273
1580422512.40192,-0.731700617990386,0.0300297550926985,0.520759899290457
1580422512.43412,-0.81519798580911,0.389898527504386,0.705333028152896
1580422512.46633,-0.955825131609064,-0.128664072632944,-0.048096437018387
1580422512.49854,-1.81081864652476,-0.110109102006561,1.11549553673609
1580422512.53075,-0.744884412909132,-0.0305180437933927,0.243900205996795
1580422512.56296,-0.630624856946669,-0.179934386205844,-0.301518272678722
1580422512.59516,-1.18580910963607,0.589120317387657,0.25366598001068
1580422512.62737,-0.974868390936141,0.690684367132068,-0.00952162966353853
1580422512.65958,-1.01686121919585,0.218997482261386,0.228274967574578
1580422512.69179,-0.746837567711909,-1.04176394293126,0.0104982070649271
1580422512.724,-0.956313420309758,0.027588311589227,0.0598153658350498
1580422512.7562,-0.96559090562295,0.157961394674601,-0.0134279392690928
1580422512.78841,-0.874280918593119,0.186770428015564,-0.0749523155565726
1580422512.82062,-0.81177996490425,0.238040741588463,-0.0827649347676811
1580422512.85283,-0.874769207293813,0.312260624093994,-0.190676737621118
1580422512.88504,-0.943129625391013,0.144777599755855,-0.0930189974822611
1580422512.91724,-1.10817120622568,0.0266117341878385,0.0144045166704814
1580422512.94945,-1.13160906385901,0.172121766994735,0.309330891889829
1580422512.98166,-1.11256580453193,0.202883955138475,0.0944838635843439
1580422513.01387,-1.17018387121385,0.206790264744029,-0.00415045395590141
1580422513.04607,-1.14186312657359,0.251712825207903,0.00512703135728998
1580422513.07828,-1.19411001754787,0.210208285648889,-0.0153810940718699
1580422513.11049,-1.32301823453117,0.296147096971083,0.115968566414892
1580422513.1427,-1.36501106279088,0.202395666437781,0.0583504997329669
1580422513.17491,-1.04811169604028,-0.0979018844892039,0.0075684748607614
1580422513.20711,-1.22096589608606,-0.154543373769741,-0.00610360875867855
1580422513.23932,-1.34938582436866,0.353276874952314,-0.403082322423133
1580422513.27153,-1.33229571984436,0.364019226367589,-0.0676279850461583
1580422513.30374,-1.16823071641108,-0.0280766002899213,0.132082093537804
1580422513.33595,-0.91090257114519,-0.10083161669337,0.0515144579232469
1580422513.36816,-0.784924086366065,-0.0461432822156098,0.0720225833524069
1580422513.40036,-0.672617685206378,0.0129396505683985,0.0349126420996413
1580422513.43257,-0.573983367666132,-0.0280766002899213,-0.0163576714732585
1580422513.46478,-0.564705882352941,-0.0358892195010299,0.0314946211947813
1580422513.49699,-0.587655451285572,0.00903334096284425,-0.0876478217746239
1580422513.52919,-0.71509880216678,-0.224368657969023,0.85279621576257
1580422513.5614,-0.981704432745861,-0.318608377203022,1.21022354467079
1580422513.59361,-0.793224994277868,0.0437018387121384,0.944106202792401
1580422513.62582,-0.865491721980622,0.186282139314869,0.419195849546043
1580422513.65803,-0.991958495460441,0.171145189593346,0.628671702143894
1580422513.69028,-0.810315098802167,-0.438239108873121,0.440192263675897
1580422513.72248,-1.33473716334783,-0.203372243839169,0.712169069962616
1580422513.75469,-0.89723048752575,0.167238879987792,0.183840695811398
1580422513.7869,-0.710704203860532,0.135011825741969,-0.302983138780805
1580422513.81911,-1.14283970397497,0.539803158617534,0.225345235370412
1580422513.85132,-0.991470206759747,0.507087815671017,0.0783703364614325
1580422513.88352,-1.06080720225834,0.130128938735027,0.189211871519035
1580422513.91573,-1.00904859998474,-0.128175783932249,0.114015411612115
1580422513.94794,-0.87330434119173,-0.0334477759975584,-0.0192874036774242
1580422513.98015,-0.920668345159076,0.216067750057221,-0.034424353398947
1580422514.01236,-0.914808880750744,0.292240787365529,-0.0593270771343555
1580422514.04456,-0.824475471122302,0.255130846112763,-0.0441901274128327
1580422514.07677,-0.884534981307699,0.28101014724956,-0.227298390173189
1580422514.10898,-0.960219729915313,0.226321812771801,-0.111573968108644
1580422514.14119,-1.10280003051804,0.10083161669337,0.0524910353246355
1580422514.1734,-1.09645227740902,0.063721675440604,0.259037155718318
1580422514.2056,-1.08815136949721,0.205325398641946,0.106691081101701
1580422514.23781,-1.11842526894026,0.220462348363469,-0.0383306630045013
1580422514.27002,-1.13942168307011,0.256595712214846,0.00366216525520713
1580422514.30223,-1.21608300907912,0.208255130846112,-0.0656748302433812
1580422514.33444,-1.27125963225757,0.214602883955138,0.0822766460669868
1580422514.36664,-1.31764705882353,0.259525444419012,0.168703746089875
1580422514.39885,-1.12526131074998,-0.112550545510032,0.0236820019836728
1580422514.43106,-1.1062180514229,-0.307377737087053,-0.161379415579461
1580422514.46327,-1.37624170290684,0.103761348897535,-0.348882276646068
1580422514.49548,-1.32399481193256,0.495857175555045,-0.122804608224612
1580422514.52768,-1.1750667582208,0.176028076600289,0.0793469138628211
1580422514.55989,-1.07008468757153,0.0910658426794839,0.110109102006561
1580422514.5921,-0.903089951934081,0.0778820477607383,0.0974135957885096
1580422514.62431,-0.7048447394522,-0.0207522697795071,0.143801022354467
1580422514.65652,-0.50415808346685,-0.10424963759823,0.103273060196841
1580422514.68872,-0.538826581216144,-0.0837415121690697,0.0290531776913099
1580422514.72093,-0.531990539406424,-0.00708018616006711,-0.0881361104753182
1580422514.75314,-0.568612191958495,-0.326909285114825,0.643320363164722
1580422514.78535,-0.888929579613947,-0.275150682841231,1.32106507972839
1580422514.81756,-0.940199893186847,-0.137453269245441,0.887953002212559
1580422514.84976,-0.733653772793163,0.0183108262760356,0.573006790264746
1580422514.88197,-0.722911421377889,0.104737926298924,0.37671473258564
1580422514.91418,-0.933852140077821,0.067139696345464,0.760997940032045
1580422514.94639,-1.09059281300069,-0.0461432822156098,0.245365072098878
1580422514.97861,-1.36842908369574,-0.171633478294041,0.391363393606468
1580422515.01081,-0.717051956969557,0.041260395208667,-0.244388494697489
1580422515.04302,-0.915297169451438,-0.01196307316701,0.0183108262760356
1580422515.07523,-1.10719462882429,0.612069886320288,0.0432135500114441
1580422515.10744,-1.04127565423056,0.307377737087052,0.0939955748836496
1580422515.13965,-1.02467383840696,-0.0466315709163041,0.199954222934309
1580422515.17186,-0.930434119172961,0.0266117341878385,0.0974135957885096
1580422515.20407,-0.865980010681316,0.178469520103761,-0.0134279392690928
1580422515.23627,-0.921644922560464,0.32544441901274,-0.0700694285496297
1580422515.26848,-0.910414282444496,0.289799343862057,0.0139162279697871
1580422515.30069,-0.850843060959793,0.267826352330815,-0.0778820477607383
1580422515.3329,-0.888929579613947,0.266849774929426,-0.180910963607232
1580422515.36511,-1.04859998474098,0.149660486762798,-0.142336156252384
1580422515.39732,-1.12721446555276,0.00366216525520713,0.322514686808574
1580422515.42952,-1.0466468299382,0.115968566414892,0.248783093003738
1580422515.46173,-1.08766308079652,0.213626306553749,-0.0544441901274126
1580422515.49394,-1.13307392996109,0.28442816815442,-0.0427252613107498
1580422515.52615,-1.18434424353399,0.294682230869,0.145265888456549
1580422515.55836,-1.26832990005341,0.192629892423895,0.0900892652780954
1580422515.59057,-1.26198214694438,0.171145189593346,0.192141603723201
1580422515.62278,-1.23317311360342,0.0539559014267184,-0.0158693827725642
1580422515.65498,-1.17311360341802,-0.141359578850995,-0.151125352864881
1580422515.68719,-1.40651560234989,-0.121828030823224,-0.318120088502328
1580422515.7194,-1.28786144808118,0.337163347829403,-0.196536202029449
1580422515.75161,-1.24391546501869,0.238529030289158,0.0256351567864499
1580422515.78382,-1.08522163729305,0.135500114442664,0.0734874494544897
1580422515.81603,-0.904554818036164,0.134523537041275,0.0646982528419926
1580422515.84823,-0.786388952468148,0.0490730144197755,0.115480277714198
1580422515.88044,-0.628183413443198,-0.0559090562294955,0.0676279850461583
1580422515.91265,-0.539314869916838,-0.106202792401007,0.0290531776913099
1580422515.94486,-0.612069886320286,-0.125734340428778,0.145265888456549
1580422515.97707,-0.620859082932784,-0.195071335927366,0.132570382238498
1580422516.00928,-0.667246509498741,-0.379156176089113,0.634042877851531
1580422516.04148,-0.904554818036164,-0.216556038757915,0.94166475928893
1580422516.07369,-0.943129625391013,0.12475776302739,0.978286411841001
1580422516.1059,-0.726329442282749,0.145265888456549,0.740978103303579
1580422516.13811,-0.71168078126192,0.196047913328755,0.489997711146714
1580422516.17032,-1.05397116044862,-0.073975738155184,0.164309147783626
1580422516.20253,-1.64870679789425,-0.073975738155184,1.07838559548333
1580422516.23474,-0.809338521400779,-0.217044327458609,0.213626306553749
1580422516.26691,-0.639414053559166,-0.312260624093996,-0.279545281147479
1580422516.29911,-1.16090638590066,0.593026626993211,0.271244373235675
1580422516.33132,-0.993911650263218,0.922621499961853,-0.0163576714732585
1580422516.36353,-0.950942244602121,0.178957808804455,0.156008239871824
1580422516.39574,-0.976821545738918,-0.179934386205844,0.151613641565575
1580422516.42795,-0.970473792629893,-0.00708018616006711,0.0227054245822842
1580422516.46015,-0.886488136110476,0.343999389639123,0.0803234912642097
1580422516.49236,-0.916762035553521,0.300053406576637,0.0163576714732585
1580422516.52457,-0.867933165484093,0.267826352330815,0.0183108262760356
1580422516.55678,-0.971450370031281,0.35620660715648,-0.0944838635843439
1580422516.58899,-0.968032349126421,0.0471198596169984,-0.067139696345464
1580422516.62119,-1.05006485084306,-0.115968566414892,0.0139162279697871
1580422516.6534,-1.13160906385901,0.109132524605172,0.156496528572518
1580422516.68561,-1.11354238193332,0.220462348363469,0.0305180437933927
1580422516.71782,-1.07154955367361,0.173098344396124,0.0134279392690928
1580422516.75003,-1.09840543221179,0.200442511635003,0.131105516136415
1580422516.78223,-1.15700007629511,0.251224536507209,-0.0183108262760356
1580422516.81444,-1.2429388876173,0.323491264209963,0.048096437018387
1580422516.84665,-1.2946974898909,0.288334477759975,0.0832532234683754
1580422516.87886,-1.11207751583123,-0.153078507667658,0.00317387655451284
1580422516.91107,-1.18239108873121,-0.171145189593346,-0.177004654001678
1580422516.94327,-1.33620202944991,0.319584954604409,-0.264408331425956
1580422516.97548,-1.32155336842908,0.225833524071106,-0.073975738155184
1580422517.00769,-1.22096589608606,0.0305180437933927,0.0544441901274126
1580422517.0399,-1.01930266269932,0.070557717250324,0.0681162737468526
1580422517.07211,-0.867444876783399,0.101808194094758,0.0769054703593497
1580422517.10431,-0.704356450751506,0.0187991149767299,0.0300297550926985
1580422517.13652,-0.614511329823758,-0.0158693827725642,0.0500495918211641
1580422517.16873,-0.599374380102235,-0.0554207675288012,0.125246051728084
1580422517.20094,-0.573006790264744,-0.177492942702372,0.123292896925307
1580422517.23314,-0.563241016250858,-0.326909285114825,0.436774242771037
1580422517.26535,-0.820080872816053,-0.207766842145418,0.974380102235447
1580422517.29756,-0.957778286411841,0.067139696345464,0.885511558709087
1580422517.32977,-0.795178149080645,0.0500495918211641,0.656992446784162
1580422517.36198,-0.779064621957733,-0.0339360646982527,0.551522087434197
1580422517.39418,-0.787365529869536,-0.155031662470435,0.722911421377891
1580422517.42639,-0.940199893186847,-0.205813687342641,0.237064164187075
1580422517.4586,-1.42848859388113,0.206301976043335,0.758556496528573
1580422517.49081,-0.918715190356298,0.182375829709315,0.378179598687723
1580422517.52302,-0.645761806668192,-0.221438925764858,-0.226810101472495
1580422517.55524,-0.991958495460441,0.221927214465552,0.305912870984969
1580422517.58744,-1.10231174181735,0.844495307850767,-0.0666514076447697
1580422517.61965,-0.993423361562524,0.28101014724956,0.120363164721141
1580422517.65186,-1.0041657129778,-0.0363775082017241,0.162355992980849
1580422517.68407,-0.92457465476463,-0.0139162279697871,0.0485847257190812
1580422517.71628,-0.908461127641718,0.259037155718318,0.037842374303807
1580422517.74848,-0.896742198825056,0.303959716182192,0.0075684748607614
1580422517.78069,-0.849866483558404,0.227298390173189,-0.044678416113527
1580422517.8129,-0.976821545738918,0.241947051194018,-0.0925307087815668
1580422517.84511,-1.02223239490349,0.0524910353246355,-0.0373540856031127
1580422517.87732,-1.10524147402151,-0.0397955291065841,0.164797436484321
1580422517.90952,-1.11451895933471,0.0769054703593497,0.200930800335698
1580422517.94173,-1.07057297627222,0.252201113908598,0.0305180437933927
1580422517.97394,-1.14723430228122,0.27075608453498,0.0402838178072784
1580422518.00615,-1.24635690852216,0.193118181124589,0.155519951171129
1580422518.03836,-1.24440375371939,0.0192874036774242,0.145754177157244
1580422518.07056,-1.31569390402075,0.115968566414892,0.139406424048218
1580422518.10277,-1.29762722209506,0.0251468680857556,-0.144777599755855
1580422518.13498,-1.28493171587701,0.0271000228885327,-0.385503929198139
1580422518.16719,-1.34938582436866,0.196536202029449,-0.166750591287098
1580422518.1994,-1.31276417181659,0.130128938735027,0.152590218966964
1580422518.2316,-1.14723430228122,0.034424353398947,0.131105516136415
1580422518.26381,-0.921644922560464,0.175051499198901,0.041260395208667
1580422518.29602,-0.762462806134128,0.111573968108644,0.0593270771343555
1580422518.32823,-0.614511329823758,-0.0549324788281069,0.0656748302433812
1580422518.36044,-0.582284275577935,-0.0915541313801782,0.0402838178072784
1580422518.39264,-0.602304112306401,-0.121828030823224,0.162844281681544
1580422518.42485,-0.592050049591821,-0.171145189593346,0.261966887922483
1580422518.45706,-0.581795986877241,-0.202883955138475,0.284916456855115
1580422518.48927,-0.781994354161899,-0.277103837644008,0.915785458152133
1580422518.52147,-0.99977111467155,-0.0363775082017241,0.834241245136187
1580422518.55368,-0.841565575646602,0.0524910353246355,0.920180056458381
1580422518.58589,-0.796643015182728,0.0134279392690928,0.500740062561992
1580422518.6181,-0.6877546349279,-0.0407721065079727,0.524177920195317
1580422518.65031,-1.05836575875486,-0.0397955291065841,0.552010376134891
1580422518.68251,-0.98951705195697,-0.0749523155565726,0.521736476691846
1580422518.71472,-1.3625696192874,-0.182864118410009,0.595956359197377
1580422518.74693,-0.753185320820936,-0.0544441901274126,-0.285893034256505
1580422518.77914,-0.85963225757229,0.0437018387121384,0.0104982070649271
1580422518.81135,-1.11989013504234,0.998794537270161,-0.0505378805218584
1580422518.84354,-0.997329671168078,0.387945372701608,0.0368657969024184
1580422518.87574,-1.03053330281529,-0.0256351567864499,0.183840695811398
1580422518.90795,-0.960219729915313,-0.130617227435721,0.0920424200808725
1580422518.94016,-0.924086366063936,0.216556038757915,0.0290531776913099
1580422518.97237,-0.908949416342413,0.324956130312046,-0.0144045166704814
1580422519.00458,-0.927016098268101,0.290775921263446,-0.0559090562294955
1580422519.03679,-0.93141069657435,0.174563210498206,-0.107179369802395
1580422519.06899,-0.965102616922255,0.142336156252384,-0.096437018387121
1580422519.1012,-1.14674601358053,0.0881361104753182,0.174563210498206
1580422519.13341,-1.00953688868544,0.070557717250324,0.133546959639887
1580422519.16562,-1.03102159151598,0.184817273212786,0.0642099641412983
1580422519.19783,-1.12916762035553,0.227298390173189,-0.00170901045242999
1580422519.23004,-1.11744869153887,0.144289311055161,0.178469520103761
1580422519.26225,-1.14528114747845,0.212161440451666,0.112062256809338
1580422519.29445,-1.23317311360342,0.23657587548638,0.00219729915312428
1580422519.32666,-1.3283894102388,0.342046234836346,0.126222629129472
1580422519.35887,-1.26735332265202,0.00268558785381856,0.060303654535744
1580422519.39108,-1.21852445258259,-0.167238879987792,-0.118410009918364
1580422519.42329,-1.33620202944991,0.250736247806515,-0.291264209964142
1580422519.4555,-1.36012817578393,0.207278553444723,-0.214602883955138
1580422519.4877,-1.24977492942702,-0.0661631189440754,0.0910658426794839
1580422519.51991,-1.04615854123751,-0.0754406042572668,0.031006332494087
1580422519.55212,-0.847425040054933,0.0500495918211641,0.0246585793850613
1580422519.58433,-0.710704203860532,0.0642099641412983,0.0866712443732354
1580422519.61654,-0.556404974441138,0.00170901045242999,0.0173342488746471
1580422519.64875,-0.546639200427252,-0.00561532005798426,0.0192874036774242
1580422519.68096,-0.589608606088349,-0.00659189745937283,0.103761348897535
1580422519.71316,-0.573006790264744,-0.214114595254443,0.362554360265506
1580422519.74537,-0.780529488059816,-0.260502021820402,1.25416952773327
1580422519.77758,-1.0212558175021,0.096437018387121,0.950453955901427
1580422519.80979,-0.748302433813992,0.0842298008697639,0.476813916227968
1580422519.842,-0.768322270542459,-0.161379415579461,0.3972228580148
1580422519.87421,-0.913832303349356,-0.328862439917602,0.435309376668954
1580422519.90641,-1.23610284580758,0.0109864957656214,0.686289768825819
1580422519.93862,-1.49440756847486,0.319096665903714,0.424078736552985
1580422519.97083,-0.633066300450141,0.0642099641412983,-0.312748912794691
1580422520.00304,-0.831799801632716,-0.120851453421835,0.106691081101701
1580422520.03525,-1.13990997177081,0.835217822537576,-0.0441901274128327
1580422520.06746,-0.980239566643778,0.37671473258564,0.0827649347676811
1580422520.09966,-1.00514229037919,-0.0769054703593497,0.159914549477378
1580422520.13199,-0.948012512397955,-0.0725108720531011,0.119874876020447
1580422520.1642,-0.911879148546578,0.132082093537804,0.0456549935149155
1580422520.1964,-0.955825131609064,0.312260624093994,-0.0168459601739528
1580422520.22861,-0.90064850843061,0.238040741588463,-0.0129396505683985
1580422520.26082,-0.84937819485771,0.233646143282215,-0.0168459601739528
1580422520.29303,-0.932875562676433,0.239505607690546,-0.146730754558632
1580422520.32524,-0.968520637827115,0.0905775539787896,-0.0822766460669868
1580422520.35745,-1.07154955367361,0.158449683375295,0.161867704280155
1580422520.38966,-1.11696040283818,0.129640650034332,0.149660486762798
1580422520.42186,-1.13551537346456,0.148683909361409,0.00170901045242999
1580422520.45407,-1.11012436102846,0.231204699778743,0.0285648889906156
1580422520.48628,-1.16871900511177,0.258060578316929,0.0075684748607614
1580422520.51849,-1.21705958648051,0.173098344396124,-0.00366216525520713
1580422520.5507,-1.27028305485618,0.151125352864881,0.138918135347524
1580422520.58291,-1.30153353170062,0.0534676127260241,0.0476081483176927
1580422520.61511,-1.12574959945067,-0.0388189517051956,-0.0754406042572668
1580422520.64732,-1.44948500801099,-0.01196307316701,-0.197512779430838
1580422520.67953,-1.31764705882353,0.276127260242617,-0.318120088502328
1580422520.71174,-1.22877851529717,0.218509193560692,0.0642099641412983
1580422520.74395,-1.0471351186389,0.00610360875867855,0.0847180895704582
1580422520.77616,-0.878675516899367,-0.0329594872968642,0.060303654535744
1580422520.80836,-0.710704203860532,-0.0124513618677042,0.151613641565575
1580422520.84057,-0.592050049591821,-0.0461432822156098,0.112062256809338
1580422520.87278,-0.518318455786984,-0.0500495918211641,0.0427252613107498
1580422520.90499,-0.562752727550164,-0.0544441901274126,0.152101930266269
1580422520.9372,-0.583749141680018,-0.0554207675288012,0.124269474326695
1580422520.96941,-0.763439383535516,-0.112550545510032,0.643320363164722
1580422521.00162,-0.956313420309758,-0.128664072632944,1.05250629434653
1580422521.03382,-0.888441290913253,0.00317387655451284,1.14821087968261
1580422521.06603,-0.753673609521631,0.0417486839093613,0.705821316853591
1580422521.09824,-0.86988632028687,-0.0300297550926985,0.562264438849471
1580422521.13045,-0.935805294880598,-0.201419089036392,0.51880674448768
1580422521.16266,-0.834729533836882,-0.254154268711376,0.683848325322348
1580422521.19487,-1.39040207522698,-0.174074921797512,0.481696803234911
1580422521.22707,-0.90406652933547,0.323979552910657,0.0832532234683754
1580422521.25928,-0.686778057526512,0.0744640268558783,-0.134523537041275
1580422521.29149,-0.998794537270161,0.598886091401543,0.113038834210727
1580422521.3237,-1.08424505989166,0.437262531471731,0.0866712443732354
1580422521.35591,-1.03736934462501,-0.0549324788281069,0.229739833676661
1580422521.38812,-0.960708018616007,-0.0910658426794839,0.122316319523918
1580422521.42038,-0.923109788662547,0.110109102006561,0.00903334096284425
1580422521.45259,-0.920180056458381,0.310795757991912,-0.00952162966353853
1580422521.4848,-0.850354772259099,0.243900205996795,-0.00170901045242999
1580422521.517,-0.819592584115359,0.264896620126649,0.0129396505683985
1580422521.54921,-0.943129625391013,0.352300297550926,-0.044678416113527
1580422521.58142,-0.938735027084764,0.168703746089875,-0.0358892195010299
1580422521.61363,-1.00611886778058,-0.0114747844663157,0.01196307316701
1580422521.64584,-1.23317311360342,0.0539559014267184,0.200442511635003
1580422521.67805,-1.10572976272221,0.185793850614175,0.0681162737468526
1580422521.71025,-1.11158922713054,0.306889448386357,-0.105714503700312
1580422521.74246,-1.06861982146944,0.258548867017623,0.0383306630045013
1580422521.77467,-1.12428473334859,0.252201113908598,-0.0729991607537954
1580422521.80688,-1.20582894636454,0.260990310521095,-0.00415045395590141
1580422521.83909,-1.27907225146868,0.302006561379415,0.151613641565575
1580422521.8713,-1.30104524299992,0.202883955138475,0.116456855115587
1580422521.90351,-1.14479285877775,-0.156008239871824,-0.0227054245822842
1580422521.93571,-1.10133516441596,-0.322514686808576,-0.375738155184253
1580422521.96792,-1.36501106279088,0.27417410543984,-0.229739833676661
1580422522.00013,-1.41237506675822,0.224368657969023,-0.115968566414892
1580422522.03234,-1.23659113450828,-0.00366216525520713,0.070557717250324
1580422522.06455,-0.991958495460441,0.0529793240253298,-0.0358892195010299
1580422522.09676,-0.815686274509805,0.0598153658350498,0.00512703135728998
1580422522.12896,-0.688242923628595,-0.0285648889906156,0.0612802319371326
1580422522.16117,-0.564217593652247,0.0129396505683985,-0.0227054245822842
1580422522.19338,-0.485114824139773,0.00170901045242999,0.0461432822156098
1580422522.22559,-0.511970702677958,-0.274662394140536,-0.0261234454871442
1580422522.2578,-0.730724040588997,-0.411383230334936,1.60134279392691
1580422522.29001,-0.810803387502862,0.000244144350347142,0.747325856412605
1580422522.32222,-0.724864576180666,0.285893034256503,0.377203021286334
1580422522.35442,-0.851331349660487,0.202883955138475,0.635507743953614
1580422522.38663,-0.644785229266803,-0.404547188525216,0.168703746089875
1580422522.41884,-1.48952468146792,-0.337651636530099,0.953871976806287
1580422522.45105,-1.14821087968261,-0.0217288471808956,0.350347142748149
1580422522.48326,-0.646738384069581,0.181887541008621,-0.212649729152361
1580422522.51547,-0.957778286411841,0.169680323491264,0.151125352864881
1580422522.54767,-1.11793698023957,0.737560082398719,0.131105516136415
1580422522.57988,-1.02613870450904,0.327397573815517,0.23999389639124
1580422522.61209,-0.969985503929198,-0.302494850080111,0.171633478294041
1580422522.6443,-0.951430533302815,0.0505378805218584,0.000732433051041426
1580422522.67651,-0.887464713511864,0.196047913328755,-0.0539559014267184
1580422522.70871,-0.940688181887541,0.30835431448844,-0.0178225375753414
1580422522.74092,-0.88014038300145,0.220462348363469,0.0324711985961699
1580422522.77313,-0.895765621423667,0.198001068131532,-0.0236820019836728
1580422522.80534,-0.894789044022279,0.199954222934309,-0.0832532234683754
1580422522.83754,-0.969985503929198,0.194583047226672,-0.0139162279697871
1580422522.86975,-1.09498741130693,0.226810101472495,0.114991989013504
1580422522.90196,-1.13307392996109,0.201419089036392,0.0324711985961699
1580422522.93417,-1.09889372091249,0.165774013885709,-0.00952162966353853
1580422522.96638,-1.10377660791943,0.146730754558632,0.0749523155565726
1580422522.99858,-1.15016403448539,0.285893034256503,-0.0769054703593497
1580422523.03079,-1.21559472037842,0.304448004882886,-0.0266117341878385
1580422523.063,-1.32155336842908,0.300053406576637,0.156984817273212
1580422523.09521,-1.22194247348745,0.0695811398489354,0.106202792401007
1580422523.12742,-1.00221255817502,-0.305424582284276,0.0944838635843439
1580422523.15963,-1.23610284580758,-0.220462348363469,-0.136964980544747
1580422523.19184,-1.37331197070268,0.240482185091935,-0.181887541008621
1580422523.22404,-1.42800030518044,0.204348821240558,-0.0437018387121384
1580422523.25625,-1.225848783093,0.037842374303807,0.0544441901274126
1580422523.28846,-0.94508278019379,0.182375829709315,0.024170290684367
1580422523.32067,-0.757091630426491,0.149660486762798,0.0617685206378269
1580422523.35288,-0.573983367666132,0.00903334096284425,0.0793469138628211
1580422523.38509,-0.522713054093233,-0.0407721065079727,-0.0524910353246355
1580422523.41729,-0.491462577248798,-0.0290531776913099,-0.0559090562294955
1580422523.4495,-0.510017547875181,-0.327397573815519,0.46900129701686
1580422523.48171,-0.89039444571603,-0.185305561913481,1.35622186617838
1580422523.51392,-1.05104142824445,0.024170290684367,0.821545738918136
1580422523.54613,-0.649179827573052,0.0158693827725642,0.546639200427254
1580422523.57834,-0.708751049057755,0.108644235904478,0.556893263141834
1580422523.61055,-0.812756542305639,-0.291752498664836,0.169192034790569
1580422523.64275,-1.34645609216449,0.0461432822156098,1.16139467460136
1580422523.67496,-1.18434424353399,0.145265888456549,0.240970473792629
1580422523.70717,-0.805920500495919,0.251224536507209,-0.218997482261386
1580422523.73938,-0.985610742351415,0.112062256809338,0.114991989013504
1580422523.77159,-0.98268101014725,0.64185549706264,0.0314946211947813
1580422523.8038,-1.04615854123751,0.29126420996414,0.0930189974822611
1580422523.836,-0.884046692607004,-0.067139696345464,0.215091172655832
1580422523.86821,-0.925062943465324,-0.179446097505149,0.0432135500114441
1580422523.90042,-0.901625085831999,0.166750591287098,-0.0222171358815899
1580422523.93263,-0.908949416342413,0.3972228580148,-0.0769054703593497
1580422523.96484,-0.825940337224385,0.380621042191194,-0.0725108720531011
1580422523.99716,-0.929457541771573,0.319584954604409,-0.132570382238498
1580422524.02937,-1.02467383840696,0.0920424200808725,-0.101319905394064
1580422524.06158,-1.05934233615625,-0.12475776302739,0.0632333867399097
1580422524.09379,-1.11305409323262,0.0944838635843439,0.119874876020447
1580422524.126,-1.12721446555276,0.370855268177309,-0.0202639810788128
1580422524.15821,-1.03590447852293,0.406500343327991,-0.128664072632944
1580422524.19041,-1.09059281300069,0.206790264744029,0.0271000228885327
1580422524.22262,-1.18776226443885,0.153078507667658,-0.103273060196841
1580422524.25483,-1.16285954070344,0.137941557946135,0.0100099183642328
1580422524.28704,-1.25954070344091,0.347905699244677,0.0798352025635154
1580422524.31925,-1.20192263675898,0.113038834210727,-0.0407721065079727
1580422524.35146,-1.10524147402151,-0.305912870984971,-0.048096437018387
1580422524.38367,-1.23121995880064,0.0388189517051956,-0.235111009384298
1580422524.41588,-1.28834973678187,0.188235294117646,-0.278568703746091
1580422524.44809,-1.31569390402075,0.125734340428778,-0.0476081483176927
1580422524.48029,-1.1750667582208,0.0627450980392155,0.0935072861829553
1580422524.5125,-0.984634164950027,0.060303654535744,0.0573739223315783
1580422524.54471,-0.824963759822996,-0.0075684748607614,0.0583504997329669
1580422524.57692,-0.624277103837644,-0.0407721065079727,0.00170901045242999
1580422524.60913,-0.608163576714732,-0.034424353398947,0.0778820477607383
1580422524.64134,-0.556893263141832,-0.096437018387121,0.0915541313801782
1580422524.67355,-0.472907606622416,-0.284916456855116,0.139406424048218
1580422524.70576,-0.598886091401541,-0.156496528572518,0.818127718013276
1580422524.73797,-1.01832608529793,0.0949721522850382,0.616464484626537
1580422524.77018,-0.809826810101473,0.0617685206378269,0.783947508964676
1580422524.80238,-0.741954680704966,-0.096437018387121,0.844007019150073
1580422524.83459,-0.861097123674373,-0.106691081101701,0.900160219729916
1580422524.8668,-0.997329671168078,-0.156984817273212,-0.115968566414892
1580422524.89901,-1.22047760738537,0.148195620660715,0.783459220263982
1580422524.93122,-1.04371709773404,-0.175051499198901,0.616952773327231
1580422524.96343,-0.703379873350118,-0.0520027466239412,-0.404058899824522
1580422524.99564,-1.04908827344167,0.266849774929426,0.340581368734263
1580422525.02785,-1.0378576333257,0.77759975585565,-0.0402838178072784
1580422525.06006,-1.0212558175021,0.223880369268329,0.157961394674601
1580422525.09226,-0.995864805065995,0.0354009308003356,0.187258716716258
1580422525.12447,-0.943617914091707,0.0217288471808956,0.0354009308003356
1580422525.15668,-0.942153047989624,0.188235294117646,-0.00854505226214997
1580422525.18889,-0.947524223697261,0.254154268711375,0.0549324788281069
1580422525.2211,-0.870374608987564,0.178469520103761,-0.0222171358815899
1580422525.25331,-0.93141069657435,0.235599298084992,-0.146242465857938
1580422525.28555,-0.990493629358358,0.226810101472495,-0.0236820019836728
1580422525.31776,-0.97242694743267,0.0715342946517126,0.123781185626001
1580422525.34997,-1.02711528191043,0.187747005416952,0.0788586251621268
1580422525.38218,-1.06031891355764,0.239505607690546,0.0358892195010299
1580422525.41439,-1.07350270847639,0.238529030289158,-0.0158693827725642
1580422525.4466,-1.08570992599374,0.185793850614175,-0.0441901274128327
1580422525.47881,-1.15114061188678,0.162844281681544,-0.00122072175173571
1580422525.51101,-1.24977492942702,0.161867704280155,0.073975738155184
1580422525.54322,-1.33131914244297,0.203860532539863,0.220950637064163
1580422525.57543,-1.22389562829023,0.0622568093385212,0.120851453421835
1580422525.60764,-1.0979171435111,-0.314213778896773,-0.110109102006561
1580422525.63985,-1.29958037689784,-0.037842374303807,-0.376714732585642
1580422525.67206,-1.29958037689784,0.390875104905774,-0.153566796368352
1580422525.70427,-1.24245059891661,0.118898298619058,0.10424963759823
1580422525.73648,-1.11110093842985,0.177492942702372,0.073975738155184
1580422525.76869,-0.973891813534753,0.149172198062104,0.0983901731898982
1580422525.80089,-0.73560692759594,-0.034424353398947,0.117433432516975
1580422525.8331,-0.636972610055695,-0.0954604409857325,0.108644235904478
1580422525.86531,-0.582284275577935,-0.105714503700312,0.127687495231555
1580422525.89752,-0.529060807202258,-0.266849774929428,0.137453269245441
1580422525.92973,-0.523201342793927,-0.223880369268329,0.329839017318989
1580422525.96194,-0.748790722514686,0.00512703135728998,0.754161898222325
1580422525.99415,-0.920668345159076,0.176516365300984,0.720958266575114
1580422526.02636,-0.758556496528573,0.0876478217746239,1.00758373388266
1580422526.05857,-0.776134889753568,-0.109132524605172,0.670176241702908
1580422526.09078,-0.875257495994507,-0.096437018387121,0.717051956969559
1580422526.12298,-0.907972838941024,-0.273197528038454,0.179446097505149
1580422526.15519,-1.27174792095827,-0.107179369802395,0.998794537270161
1580422526.1874,-1.03639276722362,0.316655222400243,0.327397573815517
1580422526.21961,-0.669199664301518,0.0881361104753182,-0.169192034790569
1580422526.25182,-1.13600366216525,0.344487678339817,0.23657587548638
1580422526.28403,-1.05983062485695,0.5427328908217,-0.0529793240253298
1580422526.31624,-1.03736934462501,0.073975738155184,0.161867704280155
1580422526.34845,-0.944594491493095,-0.207278553444723,0.0798352025635154
1580422526.38066,-1.07496757457847,0.998306248569467,0.236087586785686
1580422526.41286,-0.946547646295873,0.313237201495383,-0.0134279392690928
1580422526.44507,-0.90748455024033,0.31519035629816,-0.0349126420996413
1580422526.47728,-0.84596017395285,0.227786678873883,-0.0305180437933927
1580422526.50949,-0.92115663385977,0.201419089036392,-0.116945143816281
1580422526.5417,-0.956313420309758,0.110597390707255,-0.11450370031281
1580422526.57388,-1.01881437399863,0.0842298008697639,0.148683909361409
1580422526.60609,-1.05201800564584,0.184817273212786,0.0837415121690697
1580422526.6383,-1.12477302204929,0.260013733119706,0.0500495918211641
1580422526.67051,-1.13502708476387,0.162355992980849,0.0505378805218584
1580422526.70272,-1.11158922713054,0.166750591287098,0.0612802319371326
1580422526.73493,-1.22926680399786,0.229739833676661,0.00366216525520713
1580422526.76714,-1.30446326390478,0.245853360799572,0.0920424200808725
1580422526.79935,-1.26198214694438,0.117433432516975,0.114015411612115
1580422526.83155,-1.16334782940413,-0.0954604409857325,0.0939955748836496
1580422526.86376,-1.24586861982147,-0.320561532005799,-0.211673151750972
1580422526.89597,-1.39919127183948,0.121828030823224,-0.182864118410009
1580422526.92818,-1.30934615091173,0.290287632562752,-0.0642099641412983
1580422526.96039,-1.10182345311665,0.23315785458152,0.0349126420996413
1580422526.9926,-0.888441290913253,0.194094758525978,0.0578622110322726
1580422527.02481,-0.809338521400779,0.127199206530861,0.0876478217746239
1580422527.05702,-0.673105973907072,0.00170901045242999,0.116945143816281
1580422527.08922,-0.547127489127947,-0.0876478217746239,0.0598153658350498
1580422527.12143,-0.589120317387655,-0.0617685206378269,0.070557717250324
1580422527.15364,-0.632578011749446,-0.175539787899595,0.211673151750972
1580422527.18585,-0.590585183489738,-0.365972381170367,0.335210193026626
1580422527.21806,-0.824963759822996,-0.436285954070344,1.03932249942779
1580422527.25027,-1.09108110170138,0.0339360646982527,0.741466392004273
1580422527.28248,-0.862561989776456,0.138918135347524,0.950942244602121
1580422527.31469,-0.812756542305639,0.0383306630045013,0.571053635461968
1580422527.3469,-0.989028763256275,0.0280766002899213,0.682871747920959
1580422527.37911,-0.807873655298696,-0.0529793240253298,0.336186770428014
1580422527.41131,-1.21266498817426,-0.0993667505912867,0.489509422446019
1580422527.44352,-1.07447928587777,0.108155947203784,0.320073243305103
1580422527.47573,-0.791760128175785,0.0710460059510183,-0.195559624628061
1580422527.50794,-0.978286411841001,0.463630121309222,0.132082093537804
1580422527.54015,-0.974868390936141,0.568123903257803,-0.0222171358815899
1580422527.57236,-1.05152971694514,0.153078507667658,0.115968566414892
1580422527.60457,-1.00904859998474,-0.0271000228885327,0.152101930266269
1580422527.63678,-0.91090257114519,-0.0109864957656214,0.0954604409857325
1580422527.66899,-1.06910811017014,0.738048371099413,0.226321812771801
1580422527.7012,-0.93482871747921,0.2434119172961,0.0334477759975584
1580422527.7334,-0.829846646829939,0.275150682841229,-0.0183108262760356
1580422527.76561,-0.891371023117419,0.350835431448843,-0.0856946669718468
1580422527.79782,-0.895765621423667,0.2605020218204,-0.143801022354467
1580422527.83003,-0.961196307316701,0.0822766460669868,-0.0524910353246355
1580422527.8623,-1.14528114747845,0.0354009308003356,0.166750591287098
