Timestamp_seconds,Accel_X_g,Accel_Y_g,Accel_Z_g
1580422474.74544,-0.882093537804227,0.486579690241854,0.10424963759823
1580422474.77752,-0.878187228198673,0.496345464255739,0.113527122911421
1580422474.80961,-0.874769207293813,0.473884184023802,0.10424963759823
1580422474.84169,-0.880628671702144,0.483649958037688,0.0944838635843439
1580422474.87378,-0.880628671702144,0.476325627527274,0.0983901731898982
1580422474.90586,-0.891859311818113,0.474860761425191,0.10424963759823
1580422474.93795,-0.884534981307699,0.474372472724497,0.0979018844892039
1580422474.97003,-0.896742198825056,0.467048142214082,0.101808194094758
1580422475.00212,-0.894789044022279,0.45532921339742,0.096437018387121
1580422475.03421,-0.891371023117419,0.455817502098114,0.0954604409857325
1580422475.06629,-0.893324177920196,0.457282368200197,0.0900892652780954
1580422475.09838,-0.891371023117419,0.468024719615471,0.113527122911421
1580422475.13046,-0.881116960402839,0.470954451819637,0.114015411612115
1580422475.16255,-0.877210650797284,0.474860761425191,0.110597390707255
1580422475.19463,-0.877698939497979,0.467536430914777,0.115968566414892
1580422475.22672,-0.880628671702144,0.456794079499502,0.107179369802395
1580422475.2588,-0.892347600518807,0.448981460288394,0.132570382238498
1580422475.29089,-0.892347600518807,0.45191119249256,0.119386587319752
1580422475.32297,-0.882093537804227,0.478278782330051,0.110597390707255
1580422475.35506,-0.874769207293813,0.502204928664074,0.11792172121767
1580422475.38718,-0.875257495994507,0.502204928664074,0.115480277714198
1580422475.41926,-0.884534981307699,0.465094987411305,0.116945143816281
1580422475.45135,-0.878187228198673,0.442633707179368,0.126222629129472
1580422475.48343,-0.883070115205616,0.473395895323108,0.11450370031281
1580422475.51552,-0.877210650797284,0.508064393072406,0.11108567940795
1580422475.5476,-0.87330434119173,0.528572518501566,0.130128938735027
1580422475.57969,-0.88014038300145,0.506599526970323,0.102296482795452
1580422475.61177,-0.88697642481117,0.472907606622414,0.096437018387121
1580422475.64386,-0.892835889219501,0.42798504615854,0.0861829556725411
1580422475.67595,-0.895765621423667,0.418707560845348,0.0856946669718468
1580422475.70803,-0.892835889219501,0.444586861982145,0.096437018387121
1580422475.74012,-0.891371023117419,0.480720225833522,0.11450370031281
1580422475.7722,-0.882581826504921,0.486091401541159,0.130128938735027
1580422475.80429,-0.869398031586176,0.477790493629357,0.121828030823224
1580422475.83637,-0.885023270008393,0.460212100404362,0.116456855115587
1580422475.86846,-0.885511558709087,0.466071564812694,0.132570382238498
1580422475.90054,-0.881605249103533,0.468024719615471,0.112550545510032
1580422475.93263,-0.875257495994507,0.494392309452962,0.115480277714198
1580422475.96471,-0.877210650797284,0.501228351262686,0.130128938735027
1580422475.9968,-0.86988632028687,0.489021133745325,0.111573968108644
1580422476.02888,-0.88014038300145,0.480720225833522,0.100343327992675
1580422476.06097,-0.889906157015336,0.470466163118942,0.105714503700312
1580422476.09306,-0.885999847409781,0.47583733882658,0.100343327992675
1580422476.12514,-0.880628671702144,0.494392309452962,0.0974135957885096
1580422476.15723,-0.863538567177844,0.515877012283514,0.116945143816281
1580422476.18931,-0.870374608987564,0.519783321889069,0.132570382238498
1580422476.2214,-0.878187228198673,0.509529259174489,0.150148775463492
1580422476.25348,-0.888929579613947,0.486091401541159,0.155519951171129
1580422476.28557,-0.89381246662089,0.483161669336994,0.156984817273212
1580422476.31765,-0.885511558709087,0.496833752956434,0.130617227435721
1580422476.34974,-0.879652094300756,0.517830167086291,0.121828030823224
1580422476.38182,-0.882093537804227,0.5256427862974,0.123781185626001
1580422476.41391,-0.874280918593119,0.487067978942548,0.12475776302739
1580422476.44599,-0.877210650797284,0.45532921339742,0.114991989013504
1580422476.47808,-0.878675516899367,0.442145418478674,0.119386587319752
1580422476.51017,-0.867444876783399,0.437262531471731,0.118898298619058
1580422476.54225,-0.864026855878539,0.446051728084228,0.144777599755855
1580422476.57434,-0.898695353627833,0.429938200961317,0.204348821240558
1580422476.60642,-0.88697642481117,0.474372472724497,0.27417410543984
1580422476.63851,-0.899183642328527,0.450446326390477,0.209231708247501
1580422476.67056,-0.933363851377127,0.399664301518271,0.152101930266269
1580422476.70265,-0.961684596017395,0.25366598001068,-0.0300297550926985
1580422476.73473,-1.05006485084306,0.0559090562294955,-0.133546959639887
1580422476.76682,-1.07985046158541,-0.0207522697795071,0.00952162966353853
1580422476.7989,-0.925551232166018,0.375249866483557,0.0256351567864499
1580422476.83099,-0.795666437781339,0.629648279545282,-0.0822766460669868
1580422476.86308,-0.799084458686199,0.642832074464028,-0.0578622110322726
1580422476.89516,-0.88014038300145,0.428961623559928,-0.031006332494087
1580422476.92725,-1.00563057907988,0.183352407110704,0.00317387655451284
1580422476.95933,-1.03639276722362,0.113038834210727,0.0114747844663157
1580422476.99142,-1.01832608529793,0.268802929732203,0.00952162966353853
1580422477.0235,-0.904554818036164,0.481208514534217,-0.0187991149767299
1580422477.05559,-0.869398031586176,0.554940108339057,-0.118898298619058
1580422477.08767,-0.893324177920196,0.45874723430228,-0.145265888456549
1580422477.11976,-0.954848554207675,0.483649958037688,-0.260502021820402
1580422477.15184,-0.851819638361182,0.45532921339742,-0.398687724116884
1580422477.18393,-0.776134889753568,0.406012054627297,-0.311284046692608
1580422477.21601,-0.742931258106355,0.466559853513388,-0.492927443350881
1580422477.2481,-0.604257267109178,0.63501945525292,-0.522224765392538
1580422477.28018,-1.20729381246662,0.704356450751508,-0.298588540474556
1580422477.31227,-1.3205767910277,0.306889448386357,-0.0539559014267184
1580422477.34436,-1.35231555657282,0.501228351262686,0.00854505226214997
1580422477.37644,-1.13502708476387,0.398687724116883,0.573006790264746
1580422477.40853,-0.980727855344472,0.250736247806515,0.151125352864881
1580422477.44061,-0.84937819485771,0.613534752422371,-0.604257267109178
1580422477.4727,-0.824963759822996,0.608651865415428,0.0852063782711525
1580422477.50478,-0.659922178988326,0.365484092469671,-0.35034714274815
1580422477.53687,-0.621835660334172,0.0891126878767068,-0.453864347295339
1580422477.56895,-0.819104295414665,0.0837415121690697,-0.263920042725262
1580422477.60104,-0.763439383535516,0.301029983978026,-0.532967116807813
1580422477.63312,-0.585702296482795,0.955825131609064,-0.543221179522392
1580422477.66521,-0.403570611123827,1.01881437399863,-0.677012283512626
1580422477.6973,-0.625253681239032,0.241947051194018,-0.496833752956436
1580422477.72938,-1.51052109559777,0.168215457389181,-0.290775921263448
1580422477.76147,-0.782970931563288,1.07887388418402,-1.0295567254139
1580422477.79355,-1.04469367513542,0.853772793163959,-0.423102159151599
1580422477.82564,-1.54811932555123,-0.402594033722439,0.394293125810634
1580422477.85772,-1.17067215991455,-0.205325398641946,-0.529549095902953
1580422477.88981,-1.14869916838331,0.0749523155565726,-0.175539787899595
1580422477.92189,-1.03150988021668,-0.0471198596169984,-0.354253452353705
1580422477.95407,-1.06129549095903,0.228274967574578,-0.177004654001678
1580422477.98616,-0.903089951934081,0.235111009384298,-0.12133974212253
1580422478.01824,-0.884534981307699,0.237552452887769,-0.238529030289158
1580422478.05033,-0.824963759822996,0.259525444419012,-0.285404745555811
1580422478.08241,-0.949477378500038,0.221927214465552,-0.114991989013504
1580422478.1145,-1.01881437399863,0.195071335927366,-0.170656900892652
1580422478.14659,-0.98268101014725,0.102784771496147,-0.233646143282215
1580422478.17867,-0.893324177920196,0.0544441901274126,-0.315678644998856
1580422478.21076,-0.878187228198673,0.263431754024566,-0.37085526817731
1580422478.24284,-1.02565041580835,0.159426260776684,-0.427496757457847
1580422478.27493,-1.0300450141146,0.113527122911421,-0.0988784618905925
1580422478.30702,-0.992446784161135,0.251712825207903,-0.160891126878766
1580422478.3391,-0.913832303349356,0.324956130312046,-0.241458762493323
1580422478.37119,-0.823010605020219,0.446540016784922,-0.462653543907836
1580422478.40327,-0.706309605554283,0.591073472190434,-0.513435568780041
1580422478.43536,-0.82203402761883,0.662851911192494,-0.265384908827345
1580422478.46744,-1.11354238193332,0.400152590218966,0.178957808804455
1580422478.49953,-1.94949263752194,-0.172121766994735,-0.0568856336308841
1580422478.53162,-1.2942092011902,0.220462348363469,-0.177981231403066
1580422478.5637,-1.13795681696803,0.450446326390477,-0.169192034790569
1580422478.59579,-1.07496757457847,0.651621271076525,0.276615548943312
1580422478.62787,-0.936293583581293,0.362066071564811,0.153078507667658
1580422478.65996,-0.877210650797284,0.39380483710994,-0.263431754024568
1580422478.69205,-0.799084458686199,-0.280033569848174,-0.518806744487678
1580422478.72413,-1.09547570000763,-0.599374380102235,0.0900892652780954
1580422478.75622,-0.50074006256199,0.699961852445259,-0.0646982528419926
1580422478.7883,-0.573495078965438,0.577889677271688,-0.793713282978562
1580422478.82039,-0.748790722514686,0.62134737163348,-0.460212100404364
1580422478.85248,-0.604257267109178,0.947035934996567,-1.0383459220264
1580422478.88456,-0.650156404974441,0.197024490730143,-0.267826352330816
1580422478.91665,-1.26198214694438,0.0769054703593497,-0.178469520103761
1580422478.94873,-1.17701991302357,0.858655680170902,-0.384039063096056
1580422478.98082,-0.903089951934081,0.967544060425727,-0.625253681239032
1580422479.0129,-1.03102159151598,0.382574196993971,-0.366948958571756
1580422479.04499,-1.25026321812772,-0.56568245975433,0.213626306553749
1580422479.07708,-1.02516212710765,-0.0559090562294955,-0.32300297550927
1580422479.10916,-0.922621499961853,0.300541695277332,-0.336186770428016
1580422479.14125,-1.0896162355993,0.0817883573662925,-0.400640878919662
1580422479.17333,-1.06666666666667,0.0944838635843439,-0.0915541313801782
1580422479.20542,-0.899671931029221,0.210208285648889,-0.0949721522850382
1580422479.23743,-0.912367437247273,0.265384908827343,-0.284916456855116
1580422479.26951,-0.998794537270161,0.151125352864881,-0.115968566414892
1580422479.3016,-0.905043106736859,0.11108567940795,-0.0754406042572668
1580422479.33368,-0.990005340657664,0.0334477759975584,-0.0822766460669868
1580422479.36577,-1.07838559548333,0.0817883573662925,-0.156496528572518
1580422479.39785,-0.765880827038988,0.351812008850231,-0.311284046692608
1580422479.42994,-0.849866483558404,0.358159761959257,-0.228274967574578
1580422479.46202,-1.00514229037919,0.126710917830167,-0.468024719615473
1580422479.49411,-0.888441290913253,0.237552452887769,-0.152101930266269
1580422479.52619,-1.0036774242771,0.230716411078049,-0.116945143816281
1580422479.55828,-1.08180361638819,0.349858854047454,-0.307377737087053
1580422479.59037,-0.83228809033341,0.432867933165483,-0.419195849546044
1580422479.62245,-0.82203402761883,0.531990539406426,-0.458258945601587
1580422479.65454,-0.923598077363241,0.658945601586939,-0.348882276646068
1580422479.68662,-1.16139467460136,0.41089494163424,0.203860532539863
1580422479.71871,-1.84744029907683,-0.132082093537804,0.0168459601739528
1580422479.75079,-1.29176775768673,0.238529030289158,-0.153566796368352
1580422479.78288,-1.072526131075,0.378179598687723,-0.128664072632944
1580422479.81496,-0.983657587548638,0.472907606622414,0.0534676127260241
1580422479.84705,-0.949477378500038,0.405035477225908,0.195071335927366
1580422479.87913,-0.79810788128481,0.365972381170366,-0.067139696345464
1580422479.91122,-0.689219501029983,-0.140383001449607,-0.632089723048752
1580422479.94331,-0.954848554207675,-0.593026626993209,-0.0314946211947813
1580422479.97539,-0.74586099031052,0.526131074998094,-0.104737926298924
1580422480.00748,-0.70826276035706,0.284916456855115,-0.667734798199435
1580422480.03956,-0.777111467154956,1.06910811017014,-0.456794079499504
1580422480.07165,-0.447028305485619,1.11940184634165,-1.07154955367361
1580422480.10373,-0.665781643396658,0.314702067597466,-0.51441214618143
1580422480.13582,-1.26588845654994,-0.0617685206378269,-0.232181277180132
1580422480.1679,-1.19801632715343,0.251224536507209,-0.163820859082932
1580422480.19999,-0.725841153582055,1.20143434805829,-1.05445944914931
1580422480.23207,-1.05104142824445,0.487067978942548,-0.266361486228734
1580422480.26416,-1.16481269550622,-0.063721675440604,0.0856946669718468
1580422480.29624,-1.01686121919585,-0.113038834210727,-0.266361486228734
1580422480.32833,-0.981216144045167,0.127687495231555,-0.208255130846112
1580422480.36042,-1.00856031128405,0.0358892195010299,-0.322026398107882
1580422480.3925,-1.05690089265278,0.099855039291981,-0.270267795834288
1580422480.42459,-0.935805294880598,0.130617227435721,-0.0847180895704582
1580422480.45667,-0.888441290913253,0.291752498664835,-0.174074921797512
1580422480.48876,-0.928969253070878,0.204348821240558,-0.178469520103761
1580422480.52087,-0.978286411841001,0.137941557946135,-0.163820859082932
1580422480.55296,-0.985122453650721,0.0593270771343555,-0.0847180895704582
1580422480.58504,-1.13893339436942,-0.0510261692225527,-0.208743419546806
1580422480.61713,-0.869398031586176,0.25366598001068,-0.299565117875945
1580422480.64921,-0.823498893720913,0.498298619058517,-0.217532616159303
1580422480.6813,-1.00514229037919,0.190676737621118,-0.244388494697489
1580422480.71339,-0.962661173418784,0.060303654535744,-0.239505607690546
1580422480.74547,-0.805432211795225,0.195071335927366,-0.225345235370412
1580422480.77756,-0.98951705195697,0.333745326924543,-0.235599298084992
1580422480.80964,-0.980727855344472,0.486579690241854,-0.313725490196079
1580422480.84173,-0.7390249485008,0.47241931792172,-0.467536430914778
1580422480.87381,-0.908949416342413,0.719493400473031,-0.352788586251622
1580422480.9059,-0.953871976806287,0.47925535973144,-0.0300297550926985
1580422480.93798,-1.65993743801022,0.0422369726100555,0.220950637064163
1580422480.97007,-1.5935301747158,0.070557717250324,-0.294193942168308
1580422481.00215,-1.22243076218814,0.302983138780803,-0.0744640268558783
1580422481.03424,-1.13649195086595,0.303959716182192,-0.0285648889906156
1580422481.06633,-1.04615854123751,0.405035477225908,0.103761348897535
1580422481.09841,-0.872816052491036,0.512947280079349,0.299076829175249
1580422481.1305,-0.700938429846646,0.222415503166246,-0.481208514534218
1580422481.16258,-0.737071793698023,-0.295658808270391,-0.453864347295339
1580422481.19467,-1.05201800564584,-0.0510261692225527,0.261478599221789
1580422481.22675,-0.54859235523003,0.529549095902954,-0.49048599984741
1580422481.25884,-0.709727626459143,0.558358129243917,-0.712169069962615
1580422481.29092,-0.751232166018159,0.782482642862593,-0.452399481193256
1580422481.32301,-0.561287861448081,0.925551232166018,-0.912367437247273
1580422481.35509,-0.848889906157016,0.172121766994735,-0.472419317921721
1580422481.38718,-1.22243076218814,0.262455176623178,-0.23657587548638
1580422481.41927,-0.911879148546578,0.721934843976502,-0.311284046692608
1580422481.45135,-0.754161898222325,0.964614328221561,-0.925062943465324
1580422481.48344,-1.14576943617914,0.237552452887769,-0.12133974212253
1580422481.51552,-1.23121995880064,-0.44946974898909,0.00561532005798426
1580422481.54761,-1.19264515144579,-0.317143511100939,-0.229739833676661
1580422481.57969,-1.06569008926528,0.464606698710611,-0.304448004882888
1580422481.61178,-0.879163805600061,0.246341649500266,-0.198489356832226
1580422481.64386,-1.04762340733959,0.0944838635843439,-0.185793850614175
1580422481.67595,-0.98268101014725,0.133058670939192,-0.209719996948195
1580422481.70803,-0.920180056458381,0.194094758525978,-0.169192034790569
1580422481.74012,-0.957289997711147,0.108155947203784,-0.0935072861829553
1580422481.7722,-0.892347600518807,0.0549324788281069,-0.137453269245441
1580422481.80432,-0.916273746852827,0.0173342488746471,-0.153566796368352
1580422481.83641,-1.05690089265278,0.214114595254443,-0.180910963607232
1580422481.86849,-0.899671931029221,0.42798504615854,-0.144289311055161
1580422481.90058,-0.906996261539636,0.325932707713434,-0.217532616159303
1580422481.93266,-1.01100175478752,0.0402838178072784,-0.425055313954376
1580422481.96475,-0.906507972838941,0.0993667505912867,-0.160402838178072
1580422481.99684,-1.05397116044862,0.182864118410009,-0.0173342488746471
1580422482.02892,-0.995864805065995,0.237552452887769,-0.231204699778743
1580422482.06101,-0.836194399938964,0.358648050659951,-0.397222858014802
1580422482.09309,-0.833752956435493,0.502693217364769,-0.447516594186313
1580422482.12518,-0.851331349660487,0.705821316853591,-0.347417410543985
1580422482.15727,-0.914808880750744,0.500251773861297,0.131105516136415
1580422482.18935,-1.73757534142061,-0.0285648889906156,0.251712825207903
1580422482.22144,-1.40846875715267,0.390875104905774,-0.213626306553749
1580422482.25352,-1.32692454413672,0.180422674906538,-0.0295414663920042
1580422482.28561,-1.11842526894026,0.38355077439536,-0.0471198596169984
1580422482.31769,-1.00563057907988,0.452399481193254,0.115968566414892
1580422482.34978,-0.851331349660487,0.406500343327991,-0.0993667505912867
1580422482.38187,-0.79127183947509,0.205325398641946,-0.232181277180132
1580422482.41395,-0.816174563210499,-0.392339971007859,-0.368902113374533
1580422482.44604,-1.04811169604028,-0.123781185626001,0.150637064164187
1580422482.47812,-0.472907606622416,0.463141832608528,-0.52124818799115
1580422482.51021,-0.703868162050812,0.458258945601585,-0.729747463187609
1580422482.5423,-0.781506065461205,0.963637750820173,-0.335698481727322
1580422482.57438,-0.37769130998703,1.05445944914931,-1.02858014801251
1580422482.60647,-0.78785381857023,0.306401159685663,-0.423102159151599
1580422482.63855,-1.61696803234913,-0.00708018616006711,-0.0793469138628211
1580422482.67064,-0.870862897688259,0.62134737163348,-0.724864576180666
1580422482.70273,-0.966079194323644,0.779064621957733,-0.486579690241856
1580422482.73481,-1.10719462882429,0.190676737621118,-0.0153810940718699
1580422482.7669,-1.0124666208896,-0.151125352864881,-0.00903334096284425
1580422482.79898,-1.0212558175021,0.133546959639887,-0.186282139314869
1580422482.83107,-1.09987029831388,0.00268558785381856,-0.349858854047456
1580422482.86315,-0.993911650263218,0.00561532005798426,-0.525642786297398
1580422482.89524,-0.97926298924239,0.186282139314869,-0.0837415121690697
1580422482.92733,-0.932387273975738,0.238529030289158,-0.10083161669337
1580422482.95941,-0.964126039520867,0.233646143282215,-0.144777599755855
1580422482.9915,-0.960708018616007,0.156496528572518,-0.0852063782711525
1580422483.02358,-0.939223315785458,0.148195620660715,-0.0515144579232469
1580422483.05567,-1.00660715648127,0.141847867551689,-0.0324711985961699
1580422483.08774,-1.09596398870832,0.0363775082017241,-0.0617685206378269
1580422483.11982,-0.993911650263218,0.070557717250324,-0.216067750057221
1580422483.15191,-0.824963759822996,0.254154268711375,-0.309819180590525
1580422483.184,-0.903089951934081,0.155519951171129,-0.461188677805753
1580422483.21608,-1.02516212710765,0.102296482795452,-0.239505607690546
1580422483.24817,-0.903578240634776,0.264896620126649,-0.213138017853055
1580422483.28025,-0.990493629358358,0.342046234836346,-0.174563210498206
1580422483.31234,-1.00318913557641,0.389410238803691,-0.322026398107882
1580422483.34442,-0.833752956435493,0.555916685740446,-0.406012054627299
1580422483.37651,-0.799572747386893,0.645761806668194,-0.319096665903716
1580422483.4086,-0.839612420843824,0.511482413977266,-0.00659189745937283
1580422483.44068,-1.62136263065537,0.0363775082017241,0.160891126878766
1580422483.47277,-1.60134279392691,0.188723582818341,-0.354253452353705
1580422483.50485,-1.34010833905547,0.207766842145418,0.0227054245822842
1580422483.53694,-1.15602349889372,0.323002975509269,-0.139406424048218
1580422483.56903,-1.0207675288014,0.57349507896544,0.0349126420996413
1580422483.60111,-0.896742198825056,0.513923857480737,0.109620813305867
1580422483.6332,-0.799572747386893,0.399664301518271,-0.0661631189440754
1580422483.66528,-0.669687953002212,-0.0900892652780954,-0.355718318455787
1580422483.69737,-1.01539635309377,-0.730235751888303,-0.256595712214848
1580422483.72946,-0.735118638895246,0.413824673838405,0.0920424200808725
1580422483.76154,-0.656015869382772,0.3288624399176,-0.86988632028687
1580422483.79363,-0.731700617990386,0.974868390936141,-0.599862668802929
1580422483.82571,-0.484138246738384,1.11012436102846,-1.05836575875486
1580422483.8578,-0.608163576714732,0.395269703212023,-0.434332799267567
1580422483.88988,-1.29030289158465,0.0124513618677042,-0.113527122911421
1580422483.92197,-1.06276035706111,0.465583276112,-0.49390402075227
1580422483.95406,-0.928480964370184,0.969985503929198,-0.518318455786984
1580422483.98614,-1.19459830624857,0.0861829556725411,-0.133546959639887
1580422484.01823,-1.13356221866178,-0.314702067597468,0.201419089036392
1580422484.05031,-0.992446784161135,0.106202792401007,-0.294682230869002
1580422484.0824,-0.947035934996567,0.242435339894712,-0.344975967040513
1580422484.11449,-1.10328831921874,-0.0451667048142212,-0.372320134279393
1580422484.14657,-0.992446784161135,0.136964980544747,-0.137453269245441
1580422484.17866,-0.879163805600061,0.201419089036392,-0.128175783932249
1580422484.21074,-0.91773861295491,0.248783093003738,-0.205325398641946
1580422484.24283,-0.979751277943084,0.107179369802395,-0.153566796368352
1580422484.27492,-0.938735027084764,0.0979018844892039,-0.141359578850995
1580422484.307,-1.06520180056458,0.0896009765774011,-0.00610360875867855
1580422484.33909,-1.11207751583123,0.0495613031204698,-0.0598153658350498
1580422484.37125,-0.834729533836882,0.187747005416952,-0.298588540474556
1580422484.40333,-0.801037613488976,0.340093080033569,-0.462653543907836
1580422484.43542,-1.01393148699168,0.218997482261386,-0.265384908827345
1580422484.4675,-0.967544060425727,0.221927214465552,-0.198977645532921
1580422484.49959,-0.880628671702144,0.282963302052337,-0.152590218966964
1580422484.53167,-0.959243152513924,0.257572289616235,-0.389410238803693
1580422484.56376,-0.811291676203556,0.499763485160599,-0.584237430380712
1580422484.59585,-0.777111467154956,0.613534752422371,-0.473884184023804
1580422484.62793,-0.864026855878539,0.854261081864653,-0.167727168688486
1580422484.66002,-1.37868314641032,0.266849774929426,0.255619134813458
1580422484.6921,-1.73122758831159,0.0529793240253298,-0.138918135347524
1580422484.72419,-1.37770656900893,0.278080415045395,-0.218997482261386
1580422484.75628,-1.27858396276799,0.244876783398183,-0.0427252613107498
1580422484.78836,-1.07447928587777,0.474860761425191,0.0295414663920042
1580422484.82045,-0.923109788662547,0.334233615625237,-0.0876478217746239
1580422484.85253,-0.809826810101473,0.323002975509269,-0.0520027466239412
1580422484.88462,-0.742931258106355,-0.0837415121690697,-0.287846189059282
1580422484.91671,-1.0129549095903,-0.325932707713436,-0.0837415121690697
1580422484.94879,-0.731700617990386,0.545662623025866,0.148195620660715
1580422484.98088,-0.424567025253682,0.429938200961317,-0.866956588082704
1580422485.01296,-0.879652094300756,0.603768978408485,-0.584237430380712
1580422485.04505,-0.636484321355001,0.96559090562295,-0.84254215304799
1580422485.07714,-0.468513008316167,0.756603341725796,-0.725841153582055
1580422485.10922,-1.0129549095903,0.0939955748836496,-0.237552452887769
1580422485.14131,-1.48366521705959,0.160891126878766,-0.0837415121690697
1580422485.17339,-0.704356450751506,0.664316777294577,-0.638925764858472
1580422485.20548,-0.963149462119478,0.677012283512628,-0.530525673304341
1580422485.23757,-1.22829022659647,0.256107423514152,0.0100099183642328
1580422485.26965,-0.983657587548638,-0.218997482261386,-0.141359578850995
1580422485.30174,-0.925062943465324,0.0944838635843439,-0.222903791866941
1580422485.33382,-0.993423361562524,0.135988403143358,-0.180910963607232
1580422485.36591,-1.00611886778058,0.0544441901274126,-0.443610284580759
1580422485.39799,-1.03248645761807,0.0510261692225527,-0.201907377737086
1580422485.43008,-0.984145876249332,0.221438925764858,-0.107179369802395
1580422485.46217,-0.973891813534753,0.280521858548866,-0.182375829709315
1580422485.49425,-0.96217288471809,0.165285725185015,-0.123781185626001
1580422485.52634,-0.944106202792401,0.101319905394064,-0.120363164721141
1580422485.55842,-1.0295567254139,0.10083161669337,-0.0661631189440754
1580422485.59051,-1.09254596780346,0.135011825741969,-0.0129396505683985
1580422485.6226,-0.933852140077821,0.106691081101701,-0.120363164721141
1580422485.65472,-0.812268253604945,0.160402838178072,-0.39136339360647
1580422485.68681,-0.961684596017395,0.126222629129472,-0.469001297016861
1580422485.7189,-0.915297169451438,0.161867704280155,-0.333745326924545
1580422485.75098,-0.832776379034105,0.23315785458152,-0.289311055161365
1580422485.78307,-0.991958495460441,0.386480506599526,-0.238529030289158
1580422485.81516,-0.988052185854887,0.591073472190434,-0.297123674372473
1580422485.84724,-0.809826810101473,0.567635614557108,-0.453864347295339
1580422485.87933,-0.826428625925079,0.730235751888305,-0.486579690241856
1580422485.91141,-0.941176470588236,0.547615777828643,-0.109620813305867
1580422485.9435,-1.71218432898451,-0.0554207675288012,0.0817883573662925
1580422485.97559,-1.54323643854429,-0.0144045166704814,-0.294682230869002
1580422486.00767,-1.35231555657282,0.25366598001068,-0.0417486839093613
1580422486.03976,-1.0979171435111,0.298588540474555,-0.11108567940795
1580422486.07185,-0.912367437247273,0.625253681239034,-0.041260395208667
1580422486.10393,-0.836194399938964,0.606210421911957,0.0925307087815668
1580422486.13602,-0.697032120241092,0.343999389639123,0.111573968108644
1580422486.16811,-0.717540245670252,-0.0778820477607383,-0.644296940566109
1580422486.20019,-1.11061264972915,-0.603280689707789,-0.127199206530861
1580422486.23228,-0.752697032120242,0.560311284046694,-0.00268558785381856
1580422486.26436,-0.635507743953612,0.373785000381474,-0.755138475623713
1580422486.29645,-0.762951094834822,0.889417868314641,-0.53492027161059
1580422486.32854,-0.553963530937667,0.987075608453498,-0.980727855344472
1580422486.36062,-0.671641107804989,0.4484931715877,-0.36401922636759
1580422486.39271,-1.42507057297627,0.129152361333638,-0.136964980544747
1580422486.4248,-0.806408789196613,0.452399481193254,-0.776623178454262
1580422486.45688,-1.03395132372015,0.548592355230031,-0.385503929198139
1580422486.48897,-1.18727397573815,0.180422674906538,-0.190676737621118
1580422486.52106,-0.966079194323644,0.0529793240253298,-0.0686045624475469
1580422486.55314,-0.866956588082704,0.374273289082169,-0.513923857480735
1580422486.58523,-0.989028763256275,-0.063721675440604,-0.281986724650951
1580422486.61731,-1.17262531471733,-0.138429846646829,-0.312260624093996
1580422486.6494,-1.00856031128405,0.0764171816586554,-0.183840695811398
1580422486.68149,-0.888929579613947,0.24682993820096,-0.115480277714198
1580422486.71357,-0.886488136110476,0.377691309987028,-0.119874876020447
1580422486.74566,-0.96559090562295,0.239505607690546,-0.161867704280155
1580422486.77775,-1.00856031128405,0.114991989013504,-0.140383001449607
1580422486.80983,-1.03590447852293,0.117433432516975,-0.157961394674601
1580422486.84192,-0.887953002212559,0.0485847257190812,-0.305424582284276
1580422486.87401,-0.831799801632716,0.214602883955138,-0.388433661402305
1580422486.90609,-0.933852140077821,0.295658808270389,-0.330815594720379
1580422486.93832,-0.87672236209659,0.237552452887769,-0.301518272678722
1580422486.97041,-0.944106202792401,0.167238879987792,-0.0607919432364383
1580422487.0025,-0.988540474555581,0.239505607690546,-0.185305561913481
1580422487.03458,-0.967544060425727,0.317143511100937,-0.346440833142596
1580422487.06667,-0.650644693675135,0.491462577248797,-0.592538338292515
1580422487.09876,-0.902601663233387,0.788342107270925,-0.457770656900893
1580422487.13084,-1.0979171435111,0.656504158083468,-0.0178225375753414
1580422487.16293,-1.61843289845121,-0.0256351567864499,0.177981231403066
1580422487.19502,-1.49880216678111,0.168215457389181,-0.0866712443732354
1580422487.2271,-1.30153353170062,0.357671473258563,-0.151125352864881
1580422487.25919,-1.13649195086595,0.291752498664835,-0.154055085069047
1580422487.29128,-0.971938658731975,0.603768978408485,-0.0148928053711757
1580422487.32337,-0.77759975585565,0.429449912260623,-0.067139696345464
1580422487.35545,-0.827893492027162,0.23999389639124,-0.11108567940795
1580422487.38754,-0.814221408407722,-0.141359578850995,-0.358648050659953
1580422487.41963,-0.822522316319525,-0.319096665903716,-0.356694895857176
1580422487.45171,-0.848889906157016,0.390875104905774,0.274662394140535
1580422487.4838,-0.425055313954376,0.636484321355002,-0.880628671702144
1580422487.51589,-0.674570840009155,0.768810559243153,-0.667246509498741
1580422487.54797,-0.694102388036926,0.860608834973679,-0.746349279011215
1580422487.58006,-0.495857175555047,0.618905928130008,-0.769298847943848
1580422487.61215,-1.02858014801251,0.290287632562752,-0.322026398107882
1580422487.64423,-1.26198214694438,0.199465934233615,-0.169192034790569
1580422487.67632,-0.753185320820936,0.710704203860534,-0.855725947966736
1580422487.70841,-1.04078736552987,0.35620660715648,-0.260502021820402
1580422487.74049,-1.22780193789578,0.123781185626001,0.0329594872968642
1580422487.77258,-1.05787747005417,0.0559090562294955,-0.164309147783626
1580422487.80467,-1.03150988021668,0.178469520103761,-0.197024490730143
1580422487.83676,-1.0642252231632,-0.0529793240253298,-0.306401159685665
1580422487.86884,-1.00953688868544,-0.0109864957656214,-0.396734569314107
1580422487.90093,-0.902601663233387,0.0837415121690697,-0.102784771496147
1580422487.93302,-0.888929579613947,0.219485770962081,-0.131593804837109
1580422487.9651,-0.932875562676433,0.226321812771801,-0.0632333867399097
1580422487.99719,-0.973403524834058,0.190676737621118,-0.080811779964904
1580422488.02928,-1.03346303501946,0.0744640268558783,-0.0104982070649271
1580422488.06136,-1.07594415197986,0.044678416113527,-0.0495613031204698
1580422488.09345,-0.994399938963912,0.063721675440604,-0.230228122377355
1580422488.12554,-0.813733119707027,0.251712825207903,-0.461188677805753
1580422488.15762,-0.917250324254216,0.305424582284274,-0.379156176089113
1580422488.18971,-0.854261081864653,0.206790264744029,-0.286869611657893
1580422488.22183,-1.06276035706111,0.244876783398183,0.0334477759975584
1580422488.25392,-0.961196307316701,0.255130846112763,-0.0515144579232469
1580422488.28601,-0.974380102235447,0.247318226901655,-0.237064164187075
1580422488.31809,-0.819592584115359,0.365484092469671,-0.445563439383536
1580422488.35018,-0.843030441748684,0.500251773861297,-0.498298619058518
1580422488.38227,-0.812756542305639,0.710704203860534,-0.291752498664836
1580422488.41435,-1.37868314641032,0.415777828641183,0.187258716716258
1580422488.44644,-1.7644312199588,0.255130846112763,-0.0217288471808956
1580422488.47853,-1.25856412603952,0.340093080033569,-0.23315785458152
1580422488.51061,-1.18629739833677,0.219974059662775,0.0539559014267184
1580422488.5427,-0.970962081330587,0.409430075532157,-0.0349126420996413
1580422488.57479,-1.00172426947433,0.355718318455786,0.0954604409857325
1580422488.60687,-0.83912413214313,0.370855268177309,-0.128175783932249
1580422488.63896,-0.752697032120242,0.0622568093385212,-0.368902113374533
1580422488.67105,-0.821545738918136,-0.610116731517509,-0.267826352330816
1580422488.70314,-1.17799649042496,0.122804608224612,0.461676966506445
1580422488.73522,-0.400640878919662,0.619882505531397,-1.02272068360418
1580422488.76731,-0.720958266575112,0.786388952468148,-0.478767071030747
1580422488.79939,-0.866956588082704,0.621835660334174,-0.578377965972381
1580422488.83148,-0.467536430914778,0.855725947966736,-0.687266346227206
1580422488.86357,-0.951430533302815,0.23315785458152,-0.330815594720379
1580422488.89566,-1.40651560234989,0.0690928511482412,-0.241458762493323
1580422488.92774,-0.776623178454262,0.588143739986268,-0.658945601586938
1580422488.95983,-0.921644922560464,0.863538567177844,-0.692149233234149
1580422488.99192,-1.08863965819791,-0.186282139314869,0.122316319523918
1580422489.024,-0.984634164950027,0.031006332494087,-0.367925535973145
1580422489.05609,-0.944106202792401,0.436285954070343,-0.167727168688486
1580422489.08818,-1.03443961242084,-0.0173342488746471,-0.439703974975204
1580422489.12026,-1.09596398870832,0.0485847257190812,-0.307866025787748
1580422489.15235,-0.986587319752804,0.0954604409857325,-0.0485847257190812
1580422489.18444,-0.968520637827115,0.168215457389181,-0.160402838178072
1580422489.21652,-0.956313420309758,0.214602883955138,-0.0842298008697639
1580422489.24861,-0.932387273975738,0.194094758525978,-0.0539559014267184
1580422489.2807,-0.977309834439613,0.109132524605172,-0.110597390707255
1580422489.31278,-1.01881437399863,0.104737926298924,-0.204837109941252
1580422489.34487,-1.01100175478752,0.0217288471808956,-0.172610055695429
1580422489.37696,-0.93824673838407,0.200930800335698,-0.32983901731899
1580422489.40904,-0.927504386968796,0.295170519569695,-0.339604791332876
1580422489.44113,-0.91432059205005,0.217044327458609,-0.364995803768979
1580422489.47322,-0.956801709010453,0.252689402609292,-0.144777599755855
1580422489.5054,-1.01490806439307,0.261966887922483,-0.116456855115587
1580422489.53749,-1.04371709773404,0.282963302052337,-0.256595712214848
1580422489.56957,-0.821057450217442,0.34937056534676,-0.427496757457847
1580422489.60166,-0.762462806134128,0.533455405508509,-0.474372472724498
1580422489.63375,-0.763439383535516,0.717051956969559,-0.354741741054399
1580422489.66583,-1.00074769207294,0.4143129625391,0.0783703364614325
1580422489.69792,-1.86306553749905,-0.0407721065079727,0.146730754558632
1580422489.73001,-1.40846875715267,0.24682993820096,-0.228274967574578
1580422489.7621,-1.28053711757076,0.173586633096818,-0.0476081483176927
1580422489.79418,-1.03443961242084,0.419684138246737,0.00610360875867855
1580422489.82627,-0.952895399404898,0.548104066529337,0.0202639810788128
1580422489.85836,-0.83912413214313,0.593514915693905,0.0329594872968642
1580422489.89044,-0.83228809033341,0.214602883955138,-0.331792172121768
1580422489.92253,-1.11207751583123,-0.714122224765392,-0.041260395208667
1580422489.95462,-0.632089723048752,0.568612191958497,0.114015411612115
1580422489.9867,-0.479255359731441,0.352300297550926,-0.74927901121538
1580422490.01879,-0.938735027084764,0.797619592584116,-0.332280460822462
1580422490.05088,-0.617441062027924,0.867933165484093,-0.977798123140307
1580422490.08296,-0.421149004348822,0.703379873350119,-0.437262531471733
1580422490.11505,-1.15211718928817,0.0144045166704814,-0.202395666437781
1580422490.14714,-1.21461814297703,0.182864118410009,-0.430426489662013
1580422490.17922,-0.982192721446555,0.798596169985505,-0.601815823605707
1580422490.21131,-0.862073701075762,0.626718547341117,-0.328862439917602
1580422490.2434,-1.26686503395132,-0.421637293049516,0.205325398641946
1580422490.27549,-1.11793698023957,0.0476081483176927,-0.427496757457847
1580422490.30757,-1.00660715648127,0.185793850614175,-0.146242465857938
1580422490.33966,-1.01100175478752,-0.00854505226214997,-0.374761577782865
1580422490.37175,-0.980727855344472,0.0524910353246355,-0.156496528572518
1580422490.40383,-0.860120546272984,0.230716411078049,-0.0593270771343555
1580422490.43592,-0.93824673838407,0.270267795834286,-0.105226214999618
1580422490.46801,-0.968032349126421,0.210696574349583,-0.105226214999618
1580422490.50009,-0.969497215228504,0.141847867551689,-0.0661631189440754
1580422490.53218,-1.03443961242084,0.0632333867399097,-0.155031662470435
1580422490.56427,-1.19801632715343,-0.0144045166704814,-0.183840695811398
1580422490.59635,-0.813244831006333,0.210696574349583,-0.35718318455787
1580422490.62844,-0.809826810101473,0.311284046692606,-0.50415808346685
1580422490.66053,-0.839612420843824,0.327885862516212,-0.385015640497445
1580422490.69262,-0.577889677271687,0.346929121843289,-0.40161745632105
1580422490.7247,-0.762462806134128,0.531990539406426,-0.501228351262684
1580422490.75679,-1.06520180056458,0.449469748989088,-0.356206607156482
1580422490.78885,-1.04225223163195,0.59742122529946,-0.350835431448845
1580422490.82094,-1.01393148699168,0.819592584115359,0.0144045166704814
1580422490.85302,-1.52907606622415,0.325932707713434,0.234134431982909
1580422490.88511,-1.55886167696651,0.285893034256503,-0.101319905394064
1580422490.9172,-1.23707942320897,0.370366979476614,-0.293217364766919
1580422490.94928,-1.21998931868467,0.230228122377355,-0.0876478217746239
1580422490.98137,-0.990981918059052,0.229251544975966,-0.129640650034332
1580422491.01346,-0.814221408407722,0.38696879530022,0.145265888456549
1580422491.04554,-0.790295262073702,0.297611963073166,-0.143801022354467
1580422491.07763,-0.686778057526512,0.251224536507209,-0.39136339360647
1580422491.10972,-0.656504158083466,0.0451667048142212,-0.32983901731899
1580422491.1418,-0.91432059205005,0.0563973449301898,-0.0402838178072784
1580422491.17389,-0.765392538338293,0.381597619592583,-0.363042648966202
1580422491.20598,-0.601815823605707,0.534920271610591,-0.826428625925079
1580422491.23806,-0.548104066529335,0.909925993743801,-0.688242923628595
1580422491.27015,-0.574959945067521,0.810803387502862,-0.736583504997329
1580422491.30224,-0.763439383535516,0.444586861982145,-0.502693217364767
1580422491.33432,-1.08131532768749,0.224856946669718,-0.362554360265507
1580422491.36641,-1.06715495536736,0.211184863050278,-0.285893034256505
1580422491.3985,-0.887464713511864,1.10572976272221,-1.09401083390555
1580422491.43058,-0.861585412375067,0.42114900434882,-0.246341649500266
1580422491.46267,-1.40505073624781,-0.453376058594644,0.290775921263446
1580422491.49476,-0.915297169451438,0.0627450980392155,-0.433844510566873
1580422491.52685,-0.856702525368124,0.303471427481497,-0.371831845578699
1580422491.55893,-1.05787747005417,-0.0129396505683985,-0.369390402075227
1580422491.59102,-1.08326848249027,0.103273060196841,-0.238040741588463
1580422491.62311,-0.941176470588236,0.154055085069047,-0.10083161669337
1580422491.65519,-0.946059357595178,0.165285725185015,-0.183840695811398
1580422491.68728,-1.01637293049516,0.208743419546806,-0.108155947203784
1580422491.71937,-0.930434119172961,0.217532616159303,-0.0393072404058898
1580422491.75145,-0.969985503929198,0.140871290150301,-0.0759288929579611
1580422491.78354,-1.04908827344167,0.0759288929579611,-0.194094758525978
1580422491.81563,-0.979751277943084,-0.0153810940718699,-0.235599298084992
1580422491.84771,-0.810315098802167,0.270267795834286,-0.314702067597468
1580422491.8798,-0.894300755321584,0.364507515068283,-0.262455176623179
1580422491.91189,-0.947524223697261,0.181887541008621,-0.194583047226672
1580422491.94397,-0.98609903105211,0.192629892423895,-0.133058670939192
1580422491.97606,-1.06813153276875,0.218997482261386,-0.0837415121690697
1580422492.00815,-1.06617837796597,0.207278553444723,-0.238040741588463
1580422492.04024,-0.873792629892424,0.308842603189134,-0.396734569314107
1580422492.07236,-0.824475471122302,0.472907606622414,-0.42554360265507
1580422492.10444,-0.773205157549402,0.558358129243917,-0.283451590753033
1580422492.13653,-0.988540474555581,0.368413824673837,0.113527122911421
1580422492.16862,-1.56032654306859,-0.0187991149767299,0.119386587319752
1580422492.2007,-1.35085069047074,0.340581368734263,-0.298588540474556
1580422492.23279,-1.27907225146868,0.221438925764858,-0.0554207675288012
1580422492.26488,-1.18043793392843,0.30493629358358,-0.034424353398947
1580422492.29696,-1.05348287174792,0.573006790264746,0.0896009765774011
1580422492.32905,-0.903089951934081,0.60767528801404,-0.127199206530861
1580422492.36114,-0.855725947966736,0.368413824673837,-0.135500114442664
1580422492.39322,-0.797131303883422,-0.130617227435721,-0.396734569314107
1580422492.42531,-1.06031891355764,-0.77418173495079,-0.23657587548638
1580422492.4574,-0.871839475089647,0.497322041657128,0.34937056534676
1580422492.48949,-0.429449912260624,0.709727626459145,-1.00123598077363
1580422492.52157,-0.614511329823758,0.805432211795225,-0.566659037155718
1580422492.55366,-0.742931258106355,0.602792401007097,-0.872327763790341
1580422492.58575,-0.540291447318227,0.63160143434806,-0.385015640497445
1580422492.61783,-1.39284351873045,0.344487678339817,-0.315190356298162
1580422492.64992,-0.858655680170902,0.320073243305103,-0.588632028686961
1580422492.68201,-1.12477302204929,0.82887006942855,-0.540779736018921
1580422492.71409,-1.07057297627222,0.0485847257190812,-0.185305561913481
1580422492.74618,-1.04908827344167,-0.193606469825284,0.0676279850461583
1580422492.77827,-0.973403524834058,0.482185091935605,-0.379156176089113
1580422492.81035,-1.01051346608682,0.0422369726100555,-0.39478141451133
1580422492.84244,-1.10133516441596,-0.0139162279697871,-0.349858854047456
1580422492.87453,-0.885023270008393,0.118410009918364,-0.167238879987792
1580422492.90662,-0.952407110704204,0.122804608224612,-0.143801022354467
1580422492.9387,-0.955825131609064,0.205813687342641,-0.120851453421835
1580422492.97079,-0.981216144045167,0.168215457389181,-0.0559090562294955
1580422493.00287,-0.943617914091707,0.0954604409857325,-0.0554207675288012
1580422493.03496,-0.995376516365301,0.182375829709315,-0.132570382238498
1580422493.06705,-0.95875486381323,0.144289311055161,-0.209231708247501
1580422493.09914,-0.959731441214618,0.204837109941252,-0.344975967040513
1580422493.13122,-0.928480964370184,0.245853360799572,-0.302006561379416
1580422493.16331,-0.90064850843061,0.102784771496147,-0.414801251239796
1580422493.1954,-0.916273746852827,0.192629892423895,-0.273197528038454
1580422493.22748,-0.972915236133364,0.313725490196077,-0.0925307087815668
1580422493.25957,-0.978286411841001,0.387457084000914,-0.267338063630122
1580422493.29166,-0.929457541771573,0.37329671168078,-0.447516594186313
1580422493.32374,-0.829846646829939,0.481208514534217,-0.479743648432136
1580422493.35587,-0.785412375066759,0.731212329289693,-0.40503547722591
1580422493.38795,-1.21168841077287,0.265873197528038,0.207766842145418
1580422493.42004,-1.93289082169833,-0.126222629129472,0.209719996948195
1580422493.45213,-1.28834973678187,0.278080415045395,-0.315678644998856
1580422493.48421,-1.22047760738537,0.268314641031509,-0.144777599755855
1580422493.5163,-0.928480964370184,0.568123903257803,-0.0754406042572668
1580422493.54839,-0.963637750820173,0.606210421911957,0.169192034790569
1580422493.58048,-0.858655680170902,0.477302204928662,0.0676279850461583
1580422493.61256,-0.792736705577173,0.134035248340581,-0.110597390707255
1580422493.64465,-0.756603341725796,-0.724376287479972,-0.72877088578622
1580422493.67674,-1.11012436102846,0.0324711985961699,0.337163347829403
1580422493.70883,-0.455329213397421,0.531013962005037,-0.864026855878539
1580422493.74091,-0.83228809033341,0.754161898222325,-0.416754406042573
1580422493.773,-0.671152819104295,1.08424505989166,-0.777111467154956
1580422493.80509,-0.264896620126651,0.785900663767453,-0.846448462653544
1580422493.83717,-1.09498741130693,0.139894712748912,-0.254154268711376
1580422493.86926,-1.337666895552,-0.0485847257190812,-0.173098344396124
1580422493.90135,-0.733165484092469,0.940199893186847,-0.923598077363241
1580422493.93344,-1.29372091248951,0.52222476539254,-0.153566796368352
1580422493.96552,-0.94850080109865,-0.191165026321812,-0.140383001449607
1580422493.99761,-0.94166475928893,0.073975738155184,-0.285893034256505
1580422494.0297,-0.97584496833753,0.169680323491264,-0.291752498664836
1580422494.06179,-1.00123598077363,-0.00952162966353853,-0.424567025253682
1580422494.09387,-1.05055313954376,0.0983901731898982,-0.253177691309988
1580422494.12596,-0.942641336690318,0.193118181124589,-0.0910658426794839
1580422494.15805,-0.976333257038224,0.244388494697489,-0.129152361333638
1580422494.19014,-0.980727855344472,0.218997482261386,-0.0925307087815668
1580422494.22222,-0.949965667200733,0.129152361333638,-0.103273060196841
1580422494.25431,-0.947524223697261,0.0617685206378269,-0.141359578850995
1580422494.2864,-1.07545586327916,0.119386587319752,-0.144289311055161
1580422494.31849,-0.975356679636835,0.103761348897535,-0.153078507667658
1580422494.35057,-0.81861600671397,0.225833524071106,-0.405523765926604
1580422494.38266,-0.954848554207675,0.273685816739146,-0.316166933699551
1580422494.41475,-0.949477378500038,0.145265888456549,-0.277103837644008
1580422494.44683,-0.944594491493095,0.173098344396124,-0.206301976043335
1580422494.47892,-1.01686121919585,0.248294804303043,-0.114991989013504
1580422494.51101,-1.1067063401236,0.300053406576637,-0.217532616159303
1580422494.5431,-0.750255588616771,0.360601205462729,-0.49390402075227
1580422494.57518,-0.778576333257039,0.572030212863357,-0.48023193713283
1580422494.60727,-0.877698939497979,0.64185549706264,-0.354741741054399
1580422494.63934,-1.15407034409094,0.295658808270389,0.116456855115587
1580422494.67143,-1.76589608606088,-0.126222629129472,0.322514686808574
1580422494.70352,-1.29713893339437,0.289799343862057,-0.262455176623179
1580422494.73561,-1.22096589608606,0.303959716182192,-0.172610055695429
1580422494.76769,-0.999282825970855,0.519783321889069,-0.0549324788281069
1580422494.79978,-0.889906157015336,0.655039291981385,0.0495613031204698
1580422494.83187,-0.830334935530633,0.54956893263142,-0.0222171358815899
1580422494.86395,-0.852307927061876,0.222903791866941,-0.048096437018387
1580422494.89604,-0.685313191424429,-0.48706797894255,-0.867933165484093
1580422494.92813,-1.07057297627222,-0.781994354161899,-0.0363775082017241
1580422494.96022,-0.910414282444496,0.574471656366828,0.125734340428778
1580422494.9923,-0.580331120775158,0.585702296482797,-0.947524223697261
1580422495.02439,-0.672129396505683,1.08717479209583,-0.458258945601587
1580422495.05648,-0.53492027161059,1.05104142824445,-0.992446784161135
1580422495.08856,-0.689219501029983,0.322514686808574,-0.500251773861295
1580422495.12065,-1.43434805828946,0.096437018387121,-0.220462348363469
1580422495.15274,-0.752697032120242,0.485114824139771,-0.557869840543221
1580422495.18483,-1.10328831921874,0.738048371099413,-0.582284275577935
1580422495.21691,-1.27907225146868,0.0109864957656214,0.0139162279697871
1580422495.249,-1.03883421072709,-0.262455176623179,0.0388189517051956
1580422495.28109,-0.86646829938201,0.109132524605172,-0.385015640497445
1580422495.31318,-0.954360265506981,0.109132524605172,-0.203860532539863
1580422495.34526,-1.12819104295415,-0.0461432822156098,-0.360112916762036
1580422495.37735,-0.949477378500038,0.164309147783626,-0.196047913328755
1580422495.40944,-0.94508278019379,0.205813687342641,-0.120851453421835
1580422495.44153,-0.964126039520867,0.197512779430838,-0.183840695811398
1580422495.47361,-0.953383688105593,0.161867704280155,-0.165285725185015
1580422495.5057,-0.89723048752575,0.181399252307926,-0.130617227435721
1580422495.53779,-0.997329671168078,0.221927214465552,-0.0798352025635154
1580422495.56988,-1.04957656214237,0.125734340428778,-0.0944838635843439
1580422495.60196,-0.98609903105211,0.138429846646829,-0.255619134813459
1580422495.63405,-0.826428625925079,0.276615548943312,-0.383062485694667
1580422495.66614,-0.95191882200351,0.141847867551689,-0.327885862516213
1580422495.69823,-0.976333257038224,0.0246585793850613,-0.358159761959259
1580422495.73031,-0.976821545738918,0.139406424048218,-0.0793469138628211
1580422495.7624,-1.07106126497291,0.26392004272526,-0.0793469138628211
1580422495.79449,-1.11549553673609,0.336675059128709,-0.198977645532921
1580422495.82657,-0.932387273975738,0.404547188525214,-0.383062485694667
1580422495.85866,-0.767833981841765,0.50513466086824,-0.526619363698787
1580422495.89075,-0.537361715114061,0.816174563210499,-0.677988860914015
1580422495.92282,-0.81519798580911,0.349858854047454,0.0510261692225527
1580422495.95491,-2.22195773250935,-0.128175783932249,0.53247882810712
1580422495.98699,-1.31374074921798,0.0534676127260241,-0.86988632028687
1580422496.01908,-1.29713893339437,0.259525444419012,-0.0788586251621268
1580422496.05117,-1.08619821469444,0.453864347295337,0.168703746089875
1580422496.08326,-0.987075608453498,0.51538872358282,0.256107423514152
1580422496.11535,-0.927504386968796,0.459235523002974,0.0432135500114441
1580422496.14743,-0.805432211795225,-0.134523537041275,-0.35034714274815
1580422496.17952,-1.39577325093462,-0.842053864347296,0.264408331425955
1580422496.21161,-0.330327306019685,0.748790722514688,-0.56568245975433
1580422496.24369,-0.671152819104295,0.323002975509269,-0.282963302052339
1580422496.27578,-1.11696040283818,0.351812008850231,-0.316655222400245
1580422496.30787,-0.302006561379416,1.55007248035401,-1.31667048142214
1580422496.33996,-0.790295262073702,0.326420996414129,-0.307377737087053
1580422496.37204,-1.73562218661784,-0.628671702143892,0.063721675440604
1580422496.40413,-1.20827038986801,0.892835889219501,-1.00172426947433
1580422496.43622,-0.713145647364003,0.666758220798048,-0.256595712214848
1580422496.4683,-1.11744869153887,-0.0866712443732354,0.177981231403066
1580422496.50039,-1.03981078812848,0.113038834210727,-0.188235294117646
1580422496.53248,-0.974380102235447,0.112550545510032,-0.257084000915542
1580422496.56457,-1.0720378423743,-0.0959487296864268,-0.327397573815519
1580422496.59665,-0.930922407873656,0.162355992980849,-0.388921950102999
1580422496.62874,-0.881116960402839,0.205813687342641,-0.188723582818341
1580422496.66083,-0.937758449683376,0.218509193560692,-0.173098344396124
1580422496.69292,-1.01344319829099,0.201419089036392,-0.0715342946517126
1580422496.725,-0.976333257038224,0.157473105973907,-0.0114747844663157
1580422496.75709,-0.988052185854887,0.0549324788281069,-0.067139696345464
1580422496.78918,-1.08229190508888,-0.034424353398947,-0.131105516136415
1580422496.82127,-0.90406652933547,0.0290531776913099,-0.319096665903716
1580422496.85335,-0.713633936064697,0.41773098344396,-0.345952544441902
1580422496.88544,-0.84937819485771,0.38355077439536,-0.258060578316931
1580422496.91753,-0.913832303349356,0.210696574349583,-0.326909285114825
1580422496.94962,-1.04371709773404,0.291752498664835,-0.253177691309988
1580422496.9817,-0.99635309376669,0.327885862516212,-0.384039063096056
1580422497.01379,-0.882581826504921,0.485603112840465,-0.482185091935607
1580422497.04588,-0.783947508964676,0.664316777294577,-0.55201037613489
1580422497.07796,-1.01197833218891,0.473395895323108,0.0300297550926985
1580422497.11005,-1.41628137636378,0.158449683375295,0.334721904325932
1580422497.14214,-1.58718242160677,0.0329594872968642,-0.465094987411307
1580422497.17423,-1.33180743114366,0.293705653467612,-0.0505378805218584
1580422497.20642,-1.19069199664301,0.331792172121766,-0.0944838635843439
1580422497.23851,-1.06276035706111,0.437750820172425,0.0368657969024184
1580422497.27059,-0.967544060425727,0.449958037689782,0.0173342488746471
1580422497.30268,-0.865003433279927,0.419684138246737,0.0749523155565726
1580422497.33477,-0.71851682307164,0.0515144579232469,-0.559334706645304
1580422497.36686,-0.892835889219501,-0.585214007782101,-0.289311055161365
1580422497.39894,-0.96900892652781,0.455817502098114,0.557869840543223
1580422497.43103,-0.443610284580759,0.443121995880063,-0.892347600518807
1580422497.46312,-0.706797894254978,0.866956588082704,-0.519295033188373
1580422497.49521,-0.80836194399939,0.664316777294577,-0.740978103303577
1580422497.52729,-0.543709468223087,0.661387045090411,-0.522713054093233
1580422497.55938,-1.03492790112154,0.249759670405126,-0.291264209964142
1580422497.59147,-1.21168841077287,0.286869611657892,-0.255130846112765
1580422497.62356,-0.90748455024033,0.665293354695965,-0.673105973907072
1580422497.65564,-1.17604333562219,0.391363393606468,-0.336186770428016
1580422497.68773,-1.12623788815137,-0.403082322423133,0.31519035629816
1580422497.71982,-1.02320897230488,0.189700160219729,-0.406988632028687
1580422497.7519,-0.828381780727856,0.313725490196077,-0.328374151216908
1580422497.78399,-1.03053330281529,-0.0798352025635154,-0.371831845578699
1580422497.81608,-0.989028763256275,0.0769054703593497,-0.242435339894712
1580422497.84817,-0.969497215228504,0.159426260776684,-0.122804608224612
1580422497.88025,-1.00611886778058,0.263431754024566,-0.108155947203784
1580422497.91234,-0.977309834439613,0.198001068131532,-0.0715342946517126
1580422497.94443,-0.923109788662547,0.127199206530861,-0.128175783932249
1580422497.97652,-0.982192721446555,0.122316319523918,-0.148195620660715
1580422498.0086,-1.01783779659724,0.153078507667658,-0.169680323491264
1580422498.04069,-0.955825131609064,0.112550545510032,-0.216067750057221
1580422498.07278,-0.927016098268101,0.149660486762798,-0.271244373235676
1580422498.10487,-0.940688181887541,0.227298390173189,-0.337651636530099
1580422498.13695,-0.79810788128481,0.195071335927366,-0.359136339360647
1580422498.16904,-0.964614328221561,0.201419089036392,-0.165774013885709
1580422498.20113,-1.08131532768749,0.275150682841229,-0.0632333867399097
1580422498.23321,-1.01832608529793,0.320561532005797,-0.158449683375295
1580422498.2653,-0.863538567177844,0.435797665369648,-0.356694895857176
1580422498.29739,-0.918715190356298,0.53589684901198,-0.413824673838407
1580422498.32948,-0.805920500495919,0.674570840009157,-0.405523765926604
1580422498.36156,-0.908461127641718,0.357671473258563,0.0305180437933927
1580422498.39365,-1.82790875104906,-0.141359578850995,0.258548867017623
1580422498.42574,-1.38307774471656,0.174074921797512,-0.336186770428016
1580422498.45783,-1.27028305485618,0.186770428015564,-0.0686045624475469
1580422498.48993,-1.06276035706111,0.419195849546043,-0.0891126878767068
1580422498.52202,-0.867444876783399,0.734142061493859,0.067139696345464
1580422498.5541,-0.71851682307164,0.605722133211263,0.129152361333638
1580422498.58619,-0.797131303883422,0.156496528572518,-0.265384908827345
1580422498.61828,-0.95533684290837,-0.561776150148775,-0.412359807736324
1580422498.65036,-0.969497215228504,0.0139162279697871,0.0427252613107498
1580422498.68245,-0.52808422980087,0.449958037689782,-0.720958266575112
1580422498.71454,-0.734142061493857,0.628671702143894,-0.571053635461967
1580422498.74663,-0.696055542839703,0.773693446250096,-0.613046463721675
1580422498.77871,-0.414801251239796,1.00611886778058,-0.86305027847715
1580422498.8108,-0.83912413214313,0.354253452353703,-0.379644464789807
1580422498.84289,-1.2688181887541,0.0817883573662925,-0.485603112840467
1580422498.87498,-0.71168078126192,0.547127489127949,-0.539314869916838
1580422498.90706,-0.738536659800106,0.809826810101473,-0.778088044556345
1580422498.93915,-1.09449912260624,0.241458762493323,0.00659189745937283
1580422498.97124,-1.1750667582208,-0.219974059662775,-0.0148928053711757
1580422499.00333,-1.0300450141146,0.25708400091554,-0.54175631342031
1580422499.03541,-1.02027924010071,0.240970473792629,-0.234134431982909
1580422499.0675,-1.07154955367361,-0.0354009308003356,-0.222903791866941
1580422499.09959,-1.10963607232776,-0.0822766460669868,-0.256595712214848
1580422499.13168,-0.910414282444496,0.144777599755855,-0.155031662470435
1580422499.16376,-0.97926298924239,0.208255130846112,-0.073975738155184
1580422499.19585,-0.996841382467384,0.205813687342641,0.0500495918211641
1580422499.22794,-0.955825131609064,0.152590218966964,-0.109132524605172
1580422499.26003,-0.885511558709087,0.151613641565575,-0.158449683375295
1580422499.29211,-0.991470206759747,0.00415045395590141,-0.227298390173189
1580422499.3242,-0.956313420309758,0.0607919432364383,-0.290775921263448
1580422499.35629,-0.814221408407722,0.357183184557869,-0.396734569314107
1580422499.38837,-0.813733119707027,0.306889448386357,-0.365484092469673
1580422499.42046,-0.988052185854887,0.226810101472495,-0.135988403143358
1580422499.45255,-1.05201800564584,0.257572289616235,-0.0954604409857325
1580422499.48464,-1.0300450141146,0.308842603189134,-0.217044327458609
1580422499.51672,-0.903089951934081,0.378667887388417,-0.36060120546273
1580422499.54881,-0.742931258106355,0.476813916227968,-0.516853589684901
1580422499.5809,-0.828381780727856,0.691660944533457,-0.400152590218967
1580422499.61298,-0.996841382467384,0.41089494163424,0.00610360875867855
1580422499.64507,-1.87869077592126,0.0397955291065841,0.00122072175173571
1580422499.67716,-1.41921110856794,0.24682993820096,-0.282963302052339
1580422499.70925,-1.36403448538949,0.206301976043335,-0.0271000228885327
1580422499.74133,-1.11158922713054,0.378667887388417,0.0256351567864499
1580422499.77347,-0.969985503929198,0.551033798733503,0.0749523155565726
1580422499.80555,-0.759533073929962,0.613534752422371,0.153566796368352
1580422499.83764,-0.714610513466086,0.208743419546806,-0.479743648432136
1580422499.86973,-0.944106202792401,-0.661875333791103,-0.484138246738384
1580422499.90182,-1.04029907682918,0.0627450980392155,0.290775921263446
1580422499.9339,-0.529060807202258,0.525154497596706,-0.670664530403601
1580422499.96599,-0.703868162050812,0.755626764324408,-0.519295033188373
1580422499.99808,-0.70826276035706,0.902601663233387,-0.757091630426491
1580422500.03017,-0.621835660334172,0.696543831540399,-0.642343785763332
1580422500.06225,-0.901625085831999,0.106691081101701,-0.273197528038454
1580422500.09434,-1.40163271534295,0.23999389639124,-0.315190356298162
1580422500.12643,-0.729747463187609,0.738536659800108,-0.594979781795987
1580422500.15852,-0.977309834439613,0.829846646829939,-0.594003204394598
1580422500.1906,-1.05690089265278,0.0363775082017241,-0.119386587319752
1580422500.22269,-1.15358205539025,-0.302494850080111,-0.0432135500114441
1580422500.25478,-1.00172426947433,0.276615548943312,-0.240970473792629
1580422500.28686,-1.0129549095903,0.177004654001678,-0.224368657969023
1580422500.31895,-1.03297474631876,0.0549324788281069,-0.343022812237736
1580422500.35104,-0.985610742351415,-0.0168459601739528,-0.275638971541925
1580422500.38313,-0.956801709010453,0.122804608224612,-0.120851453421835
1580422500.41521,-0.990493629358358,0.189211871519035,-0.0476081483176927
1580422500.4473,-1.00660715648127,0.186770428015564,-0.0520027466239412
1580422500.47939,-0.961196307316701,0.152590218966964,-0.0559090562294955
1580422500.51148,-0.997329671168078,0.168703746089875,-0.119386587319752
1580422500.54356,-0.952895399404898,0.0578622110322726,-0.184817273212786
1580422500.57565,-0.909925993743801,0.177492942702372,-0.285404745555811
1580422500.60774,-0.871839475089647,0.25024795910582,-0.267338063630122
1580422500.63982,-0.954848554207675,0.116456855115587,-0.38452735179675
1580422500.67191,-0.956313420309758,0.161379415579461,-0.287357900358588
1580422500.704,-0.971938658731975,0.266361486228732,-0.176028076600289
1580422500.73609,-0.980727855344472,0.410406652933546,-0.286381322957199
1580422500.76817,-0.958266575112535,0.42798504615854,-0.412359807736324
1580422500.80026,-0.83228809033341,0.531990539406426,-0.467536430914778
1580422500.83235,-0.809826810101473,0.745860990310522,-0.291264209964142
1580422500.86444,-1.07985046158541,0.207278553444723,0.173586633096818
1580422500.89652,-1.82888532845045,-0.11450370031281,-0.037842374303807
1580422500.92861,-1.31520561532006,0.312260624093994,-0.271244373235676
1580422500.9607,-1.225848783093,0.202883955138475,-0.0827649347676811
1580422500.99279,-1.02174410620279,0.511482413977266,-0.0690928511482412
1580422501.02487,-0.941176470588236,0.580819409475854,0.0856946669718468
1580422501.05698,-0.820569161516747,0.487556267643242,0.0290531776913099
1580422501.08906,-0.763439383535516,0.0832532234683754,-0.510505836575875
1580422501.12115,-0.90064850843061,-0.546150911726558,-0.32642099641413
1580422501.15324,-1.09645227740902,0.225345235370412,0.417242694743265
1580422501.18532,-0.485603112840467,0.47925535973144,-0.822522316319525
1580422501.21741,-0.759044785229268,0.743907835507745,-0.504646372167544
1580422501.2495,-0.729259174486915,0.690196078431374,-0.693125810635538
1580422501.28159,-0.43921568627451,0.822522316319525,-0.580331120775158
1580422501.31367,-0.856702525368124,0.300053406576637,-0.277592126344702
1580422501.34576,-1.38258945601587,0.0817883573662925,-0.402594033722439
1580422501.37785,-1.07496757457847,0.712657358663311,-0.703868162050812
1580422501.40994,-0.812268253604945,0.740001525902191,-0.45972381170367
1580422501.44202,-1.25856412603952,-0.620370794232089,0.43482108796826
1580422501.47411,-1.12428473334859,0.037842374303807,-0.575936522468909
1580422501.5062,-0.919203479056993,0.370366979476614,-0.42896162355993
1580422501.53829,-1.08033875028611,-0.0959487296864268,-0.311284046692608
1580422501.57037,-1.05983062485695,0.0627450980392155,-0.0783703364614325
1580422501.60246,-0.940688181887541,0.183352407110704,-0.0427252613107498
1580422501.63455,-0.88014038300145,0.241947051194018,-0.115480277714198
1580422501.66664,-0.887464713511864,0.218020904859998,-0.242435339894712
1580422501.69872,-0.909925993743801,0.109620813305867,-0.162355992980849
1580422501.73081,-1.01881437399863,0.129640650034332,-0.0271000228885327
1580422501.7629,-1.0637369344625,0.133546959639887,-0.112062256809338
1580422501.79498,-0.94166475928893,0.163820859082932,-0.280033569848174
1580422501.82707,-0.843518730449379,0.275638971541923,-0.37769130998703
1580422501.85916,-0.985610742351415,0.203372243839169,-0.327885862516213
1580422501.89125,-0.980727855344472,0.100343327992675,-0.254154268711376
1580422501.92333,-0.940688181887541,0.130128938735027,-0.195559624628061
1580422501.95542,-1.00318913557641,0.243900205996795,-0.155031662470435
1580422501.98751,-1.04957656214237,0.344975967040511,-0.31958495460441
1580422502.0196,-0.845471885252156,0.474860761425191,-0.518318455786984
1580422502.05168,-0.780041199359122,0.642832074464028,-0.492439154650187
1580422502.08377,-0.704356450751506,0.693125810635539,-0.305424582284276
1580422502.11586,-1.30592813000687,0.201419089036392,0.150637064164187
1580422502.14794,-1.95193408102541,-0.100343327992675,-0.0354009308003356
1580422502.18003,-1.33327229724575,0.209719996948195,-0.283939879453728
1580422502.21212,-1.16774242771038,0.315678644998854,-0.0744640268558783
1580422502.24421,-0.973891813534753,0.652597848477914,0.0354009308003356
1580422502.27629,-0.856702525368124,0.541756313420311,0.0456549935149155
1580422502.30838,-0.800061036087587,0.232181277180132,-0.0148928053711757
1580422502.34048,-0.694102388036926,-0.173586633096818,-0.586190585183489
1580422502.37257,-0.959243152513924,-0.52124818799115,-0.0520027466239412
1580422502.40466,-0.709727626459143,0.575448233768217,0.116456855115587
1580422502.43675,-0.535896849011978,0.415777828641183,-0.929457541771573
1580422502.46883,-0.79468986037995,0.807873655298696,-0.581307698176547
1580422502.50092,-0.542732890821698,1.05983062485695,-1.05445944914931
1580422502.53301,-0.635507743953612,0.454352635996031,-0.506111238269627
1580422502.5651,-1.32252994583047,0.300541695277332,-0.266361486228734
1580422502.59718,-0.937758449683376,0.324956130312046,-0.458747234302281
1580422502.62927,-0.95875486381323,0.805920500495919,-0.718028534370946
1580422502.66136,-1.27223620965896,0.293705653467612,0.0471198596169984
1580422502.69344,-1.07447928587777,-0.379156176089113,0.0192874036774242
1580422502.72553,-0.993423361562524,0.213138017853055,-0.306401159685665
1580422502.75762,-0.973403524834058,0.200442511635003,-0.263920042725262
1580422502.78971,-1.13405050736248,-0.0510261692225527,-0.363042648966202
1580422502.82179,-0.98609903105211,-0.000244144350347142,-0.232181277180132
1580422502.85388,-0.869398031586176,0.139406424048218,-0.130617227435721
1580422502.88597,-0.92457465476463,0.215091172655832,-0.172610055695429
1580422502.91806,-0.956313420309758,0.25366598001068,-0.0354009308003356
1580422502.95014,-0.901136797131304,0.244876783398183,-0.109132524605172
1580422502.98223,-0.99635309376669,0.132570382238498,-0.135011825741969
1580422503.01432,-1.10524147402151,0.0944838635843439,-0.169192034790569
1580422503.0464,-0.916762035553521,0.188235294117646,-0.211184863050278
1580422503.07849,-0.834241245136187,0.333257038223849,-0.288334477759976
1580422503.11058,-1.02662699320974,0.0969253070878153,-0.403082322423133
1580422503.14267,-0.970962081330587,0.0212405584802013,-0.351323720149539
1580422503.17475,-0.939711604486153,0.168215457389181,-0.129640650034332
1580422503.20684,-1.03639276722362,0.323979552910657,-0.108644235904478
1580422503.23893,-0.978286411841001,0.392339971007857,-0.280033569848174
1580422503.27102,-0.795178149080645,0.480720225833522,-0.430426489662013
1580422503.3031,-0.846936751354239,0.564705882352943,-0.37769130998703
1580422503.33519,-0.818127718013276,0.54615091172656,-0.0871595330739297
1580422503.36728,-1.63845273517967,0.183840695811398,0.286381322957197
1580422503.39937,-1.53981841763943,0.273685816739146,-0.220950637064163
1580422503.43145,-1.24098573281453,0.223880369268329,-0.070557717250324
1580422503.46354,-1.07008468757153,0.331792172121766,-0.0373540856031127
1580422503.49563,-0.95533684290837,0.498298619058517,0.0642099641412983
1580422503.52771,-0.940688181887541,0.476813916227968,0.0881361104753182
1580422503.5598,-0.819104295414665,0.355718318455786,-0.106691081101701
1580422503.59189,-0.719005111772335,-0.0490730144197755,-0.415777828641184
1580422503.62405,-0.926039520866713,-0.620859082932784,-0.262943465323874
1580422503.65614,-0.944594491493095,0.343511100938429,0.186770428015564
1580422503.68823,-0.535896849011978,0.329839017318989,-0.761974517433433
1580422503.72032,-0.672617685206378,1.02711528191043,-0.628671702143892
1580422503.7524,-0.649179827573052,1.01637293049516,-0.733165484092469
1580422503.78449,-0.618417639429312,0.519783321889069,-0.676523994811932
1580422503.81658,-1.11061264972915,0.144777599755855,-0.343999389639125
1580422503.84867,-1.25758754863813,0.249759670405126,-0.206790264744029
1580422503.88076,-0.889906157015336,0.852307927061876,-0.878675516899367
1580422503.91284,-1.05104142824445,0.458258945601585,-0.154055085069047
1580422503.94493,-1.28444342717632,-0.0173342488746471,0.165285725185015
1580422503.97702,-0.999282825970855,-0.00952162966353853,-0.220950637064163
1580422504.00911,-0.853284504463264,0.257572289616235,-0.437750820172427
1580422504.04119,-0.945571068894484,-0.0314946211947813,-0.433844510566873
1580422504.07328,-1.06129549095903,-0.0139162279697871,-0.303959716182193
1580422504.10537,-0.93824673838407,0.139894712748912,-0.0959487296864268
1580422504.13746,-0.948989089799344,0.3117723353933,-0.130617227435721
1580422504.16955,-0.951430533302815,0.337651636530097,-0.0549324788281069
1580422504.20163,-0.96217288471809,0.143801022354467,-0.127687495231555
1580422504.23372,-1.01686121919585,0.0285648889906156,-0.140871290150301
1580422504.26581,-0.998794537270161,0.0695811398489354,-0.256595712214848
1580422504.2979,-0.824963759822996,0.216067750057221,-0.36743724727245
1580422504.32998,-0.936293583581293,0.359136339360646,-0.248783093003738
1580422504.36207,-1.02418554970626,0.208255130846112,-0.277592126344702
1580422504.39416,-0.970473792629893,0.0954604409857325,-0.132082093537804
1580422504.42625,-0.870374608987564,0.172121766994735,-0.11108567940795
1580422504.45834,-1.03443961242084,0.208255130846112,-0.176516365300984
1580422504.49042,-1.03736934462501,0.249271381704432,-0.240970473792629
1580422504.52251,-0.768322270542459,0.489997711146714,-0.407965209430076
1580422504.5546,-0.864026855878539,0.557869840543223,-0.423102159151599
1580422504.58669,-0.698496986343175,0.755138475623713,-0.338139925230793
1580422504.61877,-1.06666666666667,0.406988632028686,0.121828030823224
1580422504.65086,-1.74831769283589,0.249759670405126,0.0612802319371326
1580422504.68295,-1.44118410009918,0.3288624399176,-0.258548867017625
1580422504.71504,-1.27418936446174,0.183840695811398,-0.0339360646982527
1580422504.74713,-0.970473792629893,0.449469748989088,-0.048096437018387
1580422504.77921,-0.862073701075762,0.474860761425191,0.0163576714732585
1580422504.8113,-0.762951094834822,0.375249866483557,-0.0642099641412983
1580422504.84339,-0.76392767223621,0.104737926298924,-0.303959716182193
1580422504.87548,-0.801037613488976,-0.343022812237736,-0.472907606622416
1580422504.90756,-1.06520180056458,-0.363530937666896,0.00952162966353853
1580422504.93965,-0.848401617456322,0.622812237735562,0.0485847257190812
1580422504.97174,-0.604257267109178,0.606210421911957,-1.17848477912566
1580422505.00383,-0.631601434348058,1.05494773785,-0.407476920729382
1580422505.03591,-0.552986953536278,0.807385366598002,-1.0554360265507
1580422505.068,-0.755626764324408,0.209719996948195,-0.393804837109942
1580422505.10009,-1.43923094529641,0.177004654001678,-0.149172198062104
1580422505.13218,-0.86988632028687,0.665293354695965,-0.498786907759213
1580422505.16427,-1.02809185931182,0.88697642481117,-0.605722133211261
1580422505.19636,-1.07594415197986,-0.0144045166704814,0.124269474326695
1580422505.22844,-1.14674601358053,-0.363530937666896,-0.0725108720531011
1580422505.26053,-0.944594491493095,0.174563210498206,-0.181399252307926
1580422505.29262,-1.03883421072709,0.00561532005798426,-0.275150682841231
1580422505.32471,-1.06080720225834,-0.0144045166704814,-0.410894941634242
1580422505.3568,-0.923109788662547,0.156496528572518,-0.152590218966964
1580422505.38889,-0.916762035553521,0.211184863050278,-0.160402838178072
1580422505.42097,-0.929457541771573,0.184328984512092,-0.218997482261386
1580422505.45306,-0.958266575112535,0.168703746089875,-0.174074921797512
1580422505.48515,-0.945571068894484,0.133546959639887,-0.0847180895704582
1580422505.51724,-1.06324864576181,0.0544441901274126,0.0285648889906156
1580422505.54933,-1.08229190508888,0.129152361333638,-0.111573968108644
1580422505.58142,-0.937758449683376,0.165774013885709,-0.213626306553749
1580422505.6135,-0.774670023651485,0.294682230869,-0.498786907759213
1580422505.64559,-0.982192721446555,0.218997482261386,-0.183840695811398
1580422505.67768,-0.895765621423667,0.255619134813458,-0.258060578316931
1580422505.70977,-0.957289997711147,0.27417410543984,-0.169680323491264
1580422505.74186,-1.06324864576181,0.305912870984969,-0.188235294117646
1580422505.77394,-0.967055771725033,0.37671473258564,-0.359136339360647
1580422505.80603,-0.785412375066759,0.442633707179368,-0.42212558175021
1580422505.83812,-0.77076371404593,0.723399710078585,-0.373296711680782
1580422505.87021,-0.907972838941024,0.506599526970323,0.11108567940795
1580422505.9023,-1.74001678492409,-0.0144045166704814,0.168215457389181
1580422505.93439,-1.34694438086519,0.360601205462729,-0.397222858014802
1580422505.96648,-1.32155336842908,0.179446097505149,-0.165285725185015
1580422505.99856,-1.20436408026245,0.234622720683603,0.00219729915312428
1580422506.03065,-1.02809185931182,0.500740062561992,0.111573968108644
1580422506.06274,-0.772716868848708,0.512947280079349,-0.167727168688486
1580422506.09483,-0.684824902723735,0.36987869077592,-0.150148775463492
1580422506.12692,-0.680430304417486,-0.299076829175251,-0.421149004348822
1580422506.159,-1.13258564126039,-0.440192263675899,0.0222171358815899
1580422506.19119,-0.620370794232089,0.573983367666134,-0.166262302586404
1580422506.22328,-0.574471656366827,0.60425726710918,-0.752697032120242
1580422506.25537,-0.76392767223621,0.905043106736859,-0.54175631342031
1580422506.28746,-0.450934615091173,0.936781872281987,-1.05787747005417
1580422506.31955,-0.738048371099412,0.206301976043335,-0.307377737087053
1580422506.35163,-1.46266880292973,0.194583047226672,-0.145265888456549
1580422506.38372,-0.812756542305639,0.60425726710918,-0.759044785229268
1580422506.41581,-0.99977111467155,0.675059128709851,-0.402594033722439
1580422506.4479,-1.16774242771038,0.144777599755855,-0.0202639810788128
1580422506.47999,-1.1233081559472,-0.261478599221791,-0.0495613031204698
1580422506.51207,-0.879652094300756,0.396246280613411,-0.399664301518273
1580422506.54416,-0.895765621423667,0.105226214999618,-0.448981460288396
1580422506.57625,-1.09987029831388,-0.0646982528419926,-0.404547188525216
1580422506.60834,-1.10328831921874,0.123781185626001,-0.0837415121690697
1580422506.64043,-1.01588464179446,0.255130846112763,-0.0661631189440754
1580422506.67252,-0.961196307316701,0.290287632562752,-0.0461432822156098
1580422506.7046,-0.896253910124361,0.224856946669718,-0.190676737621118
1580422506.73669,-0.905043106736859,0.0993667505912867,-0.237552452887769
1580422506.76878,-1.02516212710765,0.0861829556725411,-0.144289311055161
1580422506.80087,-1.07399099717708,0.0627450980392155,-0.113038834210727
1580422506.83296,-0.817151140611887,0.210208285648889,-0.343022812237736
1580422506.86505,-0.863538567177844,0.366948958571754,-0.366460669871062
1580422506.89713,-0.96559090562295,0.231692988479438,-0.328374151216908
1580422506.92922,-0.892347600518807,0.145265888456549,-0.31958495460441
1580422506.96131,-0.952407110704204,0.197512779430838,-0.198977645532921
1580422506.9934,-1.09254596780346,0.324956130312046,-0.261478599221791
1580422507.02549,-0.856702525368124,0.495368886854351,-0.446540016784924
1580422507.05758,-0.759533073929962,0.596932936598765,-0.42212558175021
1580422507.08966,-0.80494392309453,0.605722133211263,-0.255130846112765
1580422507.12175,-1.20485236896315,0.195559624628061,0.0607919432364383
1580422507.15384,-1.6189211871519,0.0407721065079727,-0.206301976043335
1580422507.18593,-1.45632104982071,0.293705653467612,-0.113527122911421
1580422507.21802,-1.2688181887541,0.249271381704432,-0.0778820477607383
1580422507.2501,-1.12526131074998,0.452399481193254,0.0432135500114441
1580422507.28219,-0.930434119172961,0.497322041657128,-0.0139162279697871
1580422507.31428,-0.805920500495919,0.398199435416188,0.0451667048142212
1580422507.34637,-0.790295262073702,0.0476081483176927,-0.253665980010682
1580422507.37846,-0.887464713511864,-0.429938200961319,-0.290287632562753
1580422507.41055,-0.875257495994507,0.221438925764858,0.246341649500266
1580422507.44263,-0.512458991378653,0.477302204928662,-0.807873655298696
1580422507.47473,-0.726329442282749,0.682871747920959,-0.611093308918898
1580422507.50682,-0.790783550774396,0.835217822537576,-0.700938429846646
1580422507.53891,-0.499763485160601,0.823498893720913,-0.73218890669108
1580422507.571,-1.04957656214237,0.249759670405126,-0.401129167620356
1580422507.60308,-1.21657129777981,0.268314641031509,-0.208743419546806
1580422507.63517,-0.855725947966736,0.785900663767453,-0.865491721980622
1580422507.66726,-1.28444342717632,0.127199206530861,-0.129152361333638
1580422507.69935,-1.11598382543679,0.0397955291065841,-0.138918135347524
1580422507.73144,-0.903089951934081,0.135500114442664,0.00903334096284425
1580422507.76353,-1.02516212710765,0.183840695811398,-0.314702067597468
1580422507.79561,-0.984634164950027,0.0402838178072784,-0.393316548409247
1580422507.8277,-0.990981918059052,-0.112062256809338,-0.463630121309224
1580422507.85979,-0.911390859845884,0.0437018387121384,-0.0798352025635154
1580422507.89188,-1.03102159151598,0.261478599221789,-0.128664072632944
1580422507.92397,-0.98609903105211,0.264896620126649,0.000732433051041426
1580422507.95605,-0.91090257114519,0.178957808804455,-0.10766765850309
1580422507.98814,-0.89723048752575,0.127199206530861,-0.173586633096818
1580422508.02023,-0.937758449683376,0.206301976043335,-0.247318226901655
1580422508.05232,-1.03053330281529,0.169192034790569,-0.259037155718319
1580422508.08441,-0.987075608453498,0.237552452887769,-0.328374151216908
1580422508.1165,-0.971450370031281,0.215091172655832,-0.290775921263448
1580422508.14858,-0.897718776226444,0.116456855115587,-0.385503929198139
1580422508.18067,-0.948012512397955,0.150148775463492,-0.184328984512092
1580422508.21276,-0.967544060425727,0.247318226901655,-0.102784771496147
1580422508.24485,-1.02711528191043,0.281986724650949,-0.193606469825284
1580422508.27694,-0.870862897688259,0.35278858625162,-0.365484092469673
1580422508.30903,-0.830823224231327,0.570565346761274,-0.419684138246739
1580422508.34111,-0.726329442282749,0.733165484092471,-0.50757610437171
1580422508.3732,-0.98268101014725,0.149172198062104,0.0871595330739297
1580422508.40529,-1.87136644541085,-0.0793469138628211,0.00610360875867855
1580422508.43738,-1.40260929274434,0.392339971007857,-0.214602883955138
1580422508.46947,-1.30543984130617,0.132082093537804,-0.0822766460669868
1580422508.50156,-1.06569008926528,0.54615091172656,0.0368657969024184
1580422508.53364,-0.882581826504921,0.5769130998703,-0.00170901045242999
1580422508.56573,-0.807385366598002,0.34937056534676,0.0236820019836728
1580422508.59782,-0.817151140611887,-0.0690928511482412,-0.40161745632105
1580422508.62991,-0.922133211261158,-0.458258945601587,-0.157961394674601
1580422508.662,-0.748302433813992,0.420172426947431,0.229251544975966
1580422508.69409,-0.46655985351339,0.43482108796826,-0.797131303883422
1580422508.72617,-0.825940337224385,0.680430304417488,-0.412359807736324
1580422508.75836,-0.712169069962615,0.774670023651485,-0.78101777676051
1580422508.79045,-0.522224765392538,0.727794308384833,-0.650644693675135
1580422508.82254,-1.15455863279164,0.285404745555809,-0.397711146715496
1580422508.85463,-1.12721446555276,0.364995803768977,-0.32300297550927
1580422508.88671,-0.802990768291753,0.920668345159076,-0.87672236209659
1580422508.9188,-1.15700007629511,0.191165026321812,-0.248783093003738
1580422508.95089,-1.22340733958953,-0.0832532234683754,-0.0749523155565726
1580422508.98298,-0.916762035553521,0.112062256809338,-0.198001068131532
1580422509.01507,-0.90064850843061,0.31860837720302,-0.279056992446785
1580422509.04716,-1.05104142824445,0.0109864957656214,-0.260502021820402
1580422509.07924,-1.0300450141146,0.0139162279697871,-0.412848096437019
1580422509.11133,-0.916762035553521,0.0529793240253298,-0.221438925764858
1580422509.14342,-0.944594491493095,0.185305561913481,-0.180910963607232
1580422509.17551,-1.03492790112154,0.190676737621118,-0.0339360646982527
1580422509.2076,-0.96900892652781,0.179934386205844,0.00219729915312428
1580422509.23969,-0.933852140077821,0.120363164721141,-0.0500495918211641
1580422509.27177,-1.01100175478752,0.0280766002899213,-0.110597390707255
1580422509.30386,-0.982192721446555,0.0393072404058898,-0.264896620126651
1580422509.33595,-0.888929579613947,0.241458762493323,-0.382574196993973
1580422509.36804,-0.929945830472267,0.307377737087052,-0.296147096971085
1580422509.40013,-0.985610742351415,0.29810025177386,-0.189211871519035
1580422509.43221,-0.885511558709087,0.247806515602349,-0.248783093003738
1580422509.4643,-1.01441977569238,0.183352407110704,-0.305912870984971
1580422509.49639,-0.997817959868772,0.237552452887769,-0.386968795300222
1580422509.52848,-0.846936751354239,0.490974288548102,-0.489997711146716
1580422509.56057,-0.891859311818113,0.671641107804991,-0.388921950102999
1580422509.59266,-0.869398031586176,0.786388952468148,-0.132082093537804
1580422509.62474,-1.34840924696727,-0.206301976043335,0.418707560845348
1580422509.65683,-1.53786526283665,0.184817273212786,-0.281498435950256
1580422509.68892,-1.20534065766384,0.406988632028686,-0.340581368734265
1580422509.72101,-1.26100556954299,0.118898298619058,-0.0803234912642097
1580422509.7531,-1.04762340733959,0.670664530403602,0.0490730144197755
1580422509.78519,-0.976333257038224,0.459723811703668,-0.0930189974822611
1580422509.81728,-0.884534981307699,0.351323720149537,-0.0500495918211641
1580422509.84936,-0.777111467154956,-0.0178225375753414,-0.349858854047456
1580422509.88145,-0.758556496528573,-0.38794537270161,-0.592050049591821
1580422509.91354,-0.998794537270161,0.246341649500266,0.337651636530097
1580422509.94563,-0.551033798733501,0.507576104371712,-0.656992446784161
1580422509.97772,-0.531013962005035,0.710704203860534,-0.78101777676051
1580422510.0098,-0.70142671854734,0.605722133211263,-0.645273517967498
1580422510.04187,-0.610605020218204,0.734630350194553,-0.709727626459143
1580422510.07396,-1.04225223163195,0.53931486991684,-0.45288776989395
1580422510.10605,-1.08717479209583,0.386480506599526,-0.286381322957199
1580422510.13814,-0.756115053025102,0.904554818036164,-0.941176470588236
1580422510.17022,-1.23366140230411,0.0988784618905925,-0.159426260776684
1580422510.20231,-1.17994964522774,-0.226810101472495,-0.155031662470435
1580422510.2344,-1.00611886778058,0.121828030823224,-0.190676737621118
1580422510.26649,-1.03981078812848,0.229251544975966,-0.238529030289158
1580422510.29858,-1.01441977569238,0.10766765850309,-0.2434119172961
1580422510.33067,-1.04957656214237,0.0202639810788128,-0.266849774929428
1580422510.36276,-0.928969253070878,0.060303654535744,-0.192141603723201
1580422510.39485,-0.916273746852827,0.156984817273212,-0.194583047226672
1580422510.42693,-0.926039520866713,0.225345235370412,-0.0910658426794839
1580422510.45902,-0.963149462119478,0.148195620660715,-0.0524910353246355
1580422510.49111,-0.97584496833753,0.0695811398489354,-0.0383306630045013
1580422510.5232,-1.06324864576181,0.048096437018387,-0.184328984512092
1580422510.55529,-0.904554818036164,0.198001068131532,-0.309330891889831
1580422510.58738,-0.790295262073702,0.372808422980086,-0.381597619592585
1580422510.61947,-0.963149462119478,0.231204699778743,-0.213138017853055
1580422510.65156,-1.01051346608682,0.195559624628061,-0.0432135500114441
1580422510.68365,-0.958266575112535,0.196536202029449,-0.0852063782711525
1580422510.71573,-1.05152971694514,0.165774013885709,-0.209719996948195
1580422510.74782,-0.777111467154956,0.304448004882886,-0.441168841077287
1580422510.77991,-0.646250095368886,0.472907606622414,-0.463630121309224
1580422510.812,-0.971450370031281,0.708262760357062,-0.261966887922485
1580422510.84409,-1.35817502098116,0.41773098344396,0.244876783398183
1580422510.87618,-1.52956435492485,0.127199206530861,0.0383306630045013
1580422510.90827,-1.20387579156176,0.40064087891966,-0.250736247806516
1580422510.94035,-1.20192263675898,0.305912870984969,-0.0676279850461583
1580422510.97244,-1.09254596780346,0.331792172121766,-0.0231937132829785
1580422511.00453,-0.98951705195697,0.404547188525214,-0.0539559014267184
1580422511.03662,-0.860608834973679,0.365972381170366,-0.128664072632944
1580422511.06871,-0.87330434119173,0.198977645532921,-0.270756084534982
1580422511.1008,-0.754650186923019,-0.142824444953078,-0.456794079499504
1580422511.13289,-1.07985046158541,-0.729747463187609,-0.176028076600289
1580422511.16498,-0.927504386968796,0.760509651331351,0.41089494163424
1580422511.19706,-0.399176012817579,0.747325856412605,-1.13795681696803
1580422511.22915,-0.681895170519569,0.778088044556345,-0.523689631494621
1580422511.26124,-0.829846646829939,0.625253681239034,-0.696543831540398
1580422511.29333,-0.618417639429312,0.639414053559168,-0.596444647898069
1580422511.32544,-0.919691767757687,0.198001068131532,-0.297123674372473
1580422511.35753,-1.30885786221103,0.113038834210727,-0.176516365300984
1580422511.38962,-0.843030441748684,0.699473563744565,-0.788830395971619
1580422511.42171,-0.992446784161135,0.803479056992447,-0.45630579079881
1580422511.45379,-1.04420538643473,-0.194094758525978,0.0285648889906156
1580422511.48588,-1.15211718928817,-0.198001068131532,-0.285893034256505
1580422511.51797,-0.994399938963912,0.28784618905928,-0.198977645532921
1580422511.55006,-1.03443961242084,-0.0700694285496297,-0.433844510566873
1580422511.58215,-1.06471351186389,0.0515144579232469,-0.169192034790569
1580422511.61424,-0.960708018616007,0.130128938735027,-0.0905775539787896
1580422511.64633,-0.921644922560464,0.215091172655832,-0.110597390707255
1580422511.67841,-1.00270084687572,0.163332570382238,-0.113038834210727
1580422511.7105,-0.923109788662547,0.113038834210727,-0.0700694285496297
1580422511.74259,-1.0554360265507,0.0349126420996413,0.00512703135728998
1580422511.77468,-1.072526131075,0.0769054703593497,-0.156496528572518
1580422511.80677,-0.752208743419548,0.386480506599526,-0.315190356298162
1580422511.83886,-0.881116960402839,0.330327306019683,-0.381597619592585
1580422511.87095,-1.00563057907988,0.0935072861829553,-0.33667505912871
1580422511.90304,-0.92115663385977,0.261966887922483,-0.119874876020447
1580422511.93512,-0.829358358129245,0.326909285114823,-0.205813687342641
1580422511.96721,-0.912855725947967,0.386480506599526,-0.331792172121768
1580422511.9993,-0.937270160982681,0.387945372701608,-0.392339971007859
1580422512.03139,-0.93824673838407,0.494880598153657,-0.349858854047456
1580422512.06348,-0.91773861295491,0.506599526970323,-0.00561532005798426
1580422512.09557,-1.39382009613184,0.305912870984969,0.25708400091554
1580422512.12766,-1.49489585717556,0.495857175555045,-0.136964980544747
1580422512.15975,-1.34840924696727,0.329839017318989,-0.140871290150301
1580422512.19184,-1.18141451132982,0.224856946669718,-0.0422369726100555
1580422512.22392,-1.00465400167849,0.32544441901274,-0.0559090562294955
1580422512.25601,-0.894789044022279,0.289799343862057,-0.0827649347676811
1580422512.2881,-0.81861600671397,0.251224536507209,-0.0969253070878153
1580422512.32019,-0.810315098802167,0.0383306630045013,-0.419684138246739
1580422512.35228,-0.915297169451438,-0.324467841611353,-0.341069657434959
1580422512.38437,-1.30446326390478,0.156008239871824,0.595468070496683
1580422512.41646,-0.448004882887007,0.654062714579997,-0.954848554207675
1580422512.44855,-0.51441214618143,0.730235751888305,-0.432867933165484
1580422512.48063,-0.838147554741742,0.414801251239794,-0.596444647898069
1580422512.51272,-0.596444647898069,0.778088044556345,-0.634042877851529
1580422512.54481,-0.899183642328527,0.387457084000914,-0.257572289616236
1580422512.5769,-1.28053711757076,0.261966887922483,-0.37427328908217
1580422512.6091,-0.916762035553521,0.823987182421607,-0.981216144045167
1580422512.64119,-0.991470206759747,0.358159761959257,-0.142824444953078
1580422512.67328,-1.20729381246662,-0.574959945067521,0.257572289616235
1580422512.70537,-1.04176394293126,0.25024795910582,-0.43921568627451
1580422512.73745,-0.959243152513924,0.273685816739146,-0.279545281147479
1580422512.76954,-1.0129549095903,-0.0124513618677042,-0.432867933165484
1580422512.80163,-0.916762035553521,0.166262302586404,-0.23657587548638
1580422512.83372,-0.936293583581293,0.173098344396124,-0.099855039291981
1580422512.86581,-1.00465400167849,0.148195620660715,-0.113527122911421
1580422512.8979,-0.973891813534753,0.112550545510032,-0.0622568093385212
1580422512.92999,-0.98609903105211,0.0847180895704582,0.0222171358815899
1580422512.96208,-1.05201800564584,0.096437018387121,0.0300297550926985
1580422512.99416,-1.00318913557641,0.0886243991760125,-0.123781185626001
1580422513.02625,-0.878187228198673,0.116456855115587,-0.342046234836348
1580422513.05834,-0.860120546272984,0.358648050659951,-0.55542839703975
1580422513.09043,-0.901136797131304,0.289799343862057,-0.364995803768979
1580422513.12252,-0.940199893186847,0.177004654001678,-0.281498435950256
1580422513.15461,-1.06764324406805,0.232181277180132,-0.0969253070878153
1580422513.1867,-1.03395132372015,0.312260624093994,-0.224856946669718
1580422513.21879,-0.920180056458381,0.415289539940488,-0.346440833142596
1580422513.25087,-0.874769207293813,0.572030212863357,-0.390386816205082
1580422513.28296,-0.71509880216678,0.723887998779279,-0.488044556343938
1580422513.31505,-0.833752956435493,0.463141832608528,0.00317387655451284
1580422513.34714,-1.76736095216297,0.0837415121690697,0.207766842145418
1580422513.37923,-1.50173189898528,0.215579461356526,-0.430426489662013
1580422513.41132,-1.33864347295338,0.128175783932249,-0.0983901731898982
1580422513.44341,-1.07154955367361,0.264896620126649,-0.096437018387121
1580422513.4755,-1.0212558175021,0.345464255741206,0.108644235904478
1580422513.50758,-0.824963759822996,0.504646372167546,0.0554207675288012
1580422513.53967,-0.7219348439765,0.30835431448844,-0.0217288471808956
1580422513.57176,-0.860120546272984,-0.430426489662013,-0.441168841077287
1580422513.60385,-1.16871900511177,0.115480277714198,0.252689402609292
1580422513.63594,-0.455817502098116,0.322514686808574,-0.88014038300145
1580422513.66803,-0.819104295414665,0.446540016784922,-0.284916456855116
1580422513.70012,-0.88697642481117,0.694102388036928,-0.53492027161059
1580422513.73221,-0.314213778896773,1.28737315938048,-0.990493629358358
1580422513.76429,-0.919203479056993,0.482673380636299,-0.424567025253682
1580422513.79638,-1.37477683680476,-0.063721675440604,-0.145265888456549
1580422513.82847,-0.826428625925079,0.733653772793165,-0.930922407873656
1580422513.86056,-0.964614328221561,0.349858854047454,-0.193606469825284
1580422513.8927,-1.20485236896315,-0.142824444953078,-0.0109864957656214
1580422513.92479,-1.00123598077363,0.240970473792629,-0.249759670405126
1580422513.95688,-0.89381246662089,0.374273289082169,-0.397222858014802
1580422513.98897,-1.08522163729305,-0.0632333867399097,-0.319096665903716
1580422514.02106,-1.03639276722362,-0.0661631189440754,-0.343999389639125
1580422514.05315,-0.942153047989624,-0.0139162279697871,-0.134035248340581
1580422514.08523,-0.96900892652781,0.133058670939192,-0.119386587319752
1580422514.11732,-1.01149004348821,0.241947051194018,0.00708018616006711
1580422514.14941,-0.937270160982681,0.202395666437781,-0.0393072404058898
1580422514.1815,-0.922133211261158,0.177004654001678,-0.0891126878767068
1580422514.21359,-1.03395132372015,0.115480277714198,-0.0847180895704582
1580422514.24568,-0.997329671168078,0.031006332494087,-0.212649729152361
1580422514.27777,-0.882581826504921,0.233646143282215,-0.413336385137713
1580422514.30986,-0.835217822537576,0.304448004882886,-0.37769130998703
1580422514.34195,-0.931898985275044,0.210208285648889,-0.315678644998856
1580422514.37404,-1.00953688868544,0.260990310521095,-0.115480277714198
1580422514.40613,-1.04029907682918,0.243900205996795,-0.111573968108644
1580422514.43822,-0.943617914091707,0.341557946135651,-0.398687724116884
1580422514.47031,-0.821545738918136,0.481696803234911,-0.461676966506447
1580422514.50239,-0.80494392309453,0.582284275577937,-0.471931029221027
1580422514.53448,-0.893324177920196,0.64185549706264,-0.122804608224612
1580422514.56657,-1.50173189898528,-0.0520027466239412,0.227786678873883
1580422514.59866,-1.52224002441443,0.181887541008621,-0.257572289616236
1580422514.63075,-1.35231555657282,0.240970473792629,-0.12475776302739
1580422514.66284,-1.14869916838331,0.293217364766917,-0.213138017853055
1580422514.69493,-1.03541618982223,0.639902342259862,-0.0271000228885327
1580422514.72702,-0.91090257114519,0.553963530937668,0.0339360646982527
1580422514.75911,-0.803967345693142,0.40405889982452,-0.0544441901274126
1580422514.7912,-0.705333028152895,-0.0744640268558783,-0.448004882887007
1580422514.82329,-1.15065232318608,-0.739513237201495,-0.180910963607232
1580422514.85538,-0.601815823605707,0.805432211795225,0.099855039291981
1580422514.88747,-0.489997711146716,0.667734798199437,-0.673105973907072
1580422514.91955,-0.841565575646602,0.602792401007097,-0.563241016250858
1580422514.95164,-0.610116731517509,0.856702525368124,-1.03932249942779
1580422514.98373,-0.677012283512626,0.489997711146714,-0.328862439917602
1580422515.01582,-1.1833676661326,0.252201113908598,-0.217532616159303
1580422515.04791,-0.94850080109865,0.519295033188374,-0.585702296482795
1580422515.08,-0.948989089799344,0.786388952468148,-0.567635614557107
1580422515.11209,-1.13551537346456,0.129152361333638,-0.123292896925307
1580422515.14418,-1.16920729381247,-0.457770656900893,0.145265888456549
1580422515.1763,-0.933852140077821,0.319096665903714,-0.448493171587701
1580422515.20839,-0.95533684290837,0.153078507667658,-0.275638971541925
1580422515.24048,-1.14576943617914,-0.0295414663920042,-0.403082322423133
1580422515.27257,-1.05055313954376,-0.0271000228885327,-0.218509193560692
1580422515.30466,-0.949965667200733,0.10424963759823,-0.193118181124589
1580422515.33675,-0.937270160982681,0.218020904859998,-0.148683909361409
1580422515.36883,-0.949477378500038,0.280521858548866,-0.0109864957656214
1580422515.40092,-0.948012512397955,0.178957808804455,-0.0588387884336612
1580422515.43301,-0.96217288471809,0.138918135347524,-0.136476691844052
1580422515.4651,-1.01393148699168,0.0349126420996413,-0.106691081101701
1580422515.49719,-1.01783779659724,0.135988403143358,-0.366948958571756
1580422515.52928,-0.80836194399939,0.3801327534905,-0.38452735179675
1580422515.56137,-0.939223315785458,0.247806515602349,-0.283451590753033
1580422515.59346,-0.968032349126421,0.156496528572518,-0.330327306019685
1580422515.62555,-0.956313420309758,0.219485770962081,-0.158449683375295
1580422515.65764,-0.992446784161135,0.346929121843289,-0.325444419012742
1580422515.68973,-0.902601663233387,0.405523765926603,-0.481208514534218
1580422515.72182,-0.686778057526512,0.576424811169606,-0.510017547875181
1580422515.75391,-0.895765621423667,0.759044785229268,-0.216067750057221
1580422515.786,-1.24733348592355,0.288822766460669,0.252201113908598
1580422515.81808,-1.81667811093309,-0.129152361333638,0.0529793240253298
1580422515.85017,-1.31715877012284,0.265384908827343,-0.351812008850233
1580422515.88226,-1.32350652323186,0.162355992980849,-0.0192874036774242
1580422515.91435,-0.981216144045167,0.463141832608528,-0.111573968108644
1580422515.94644,-0.912367437247273,0.555916685740446,0.00952162966353853
1580422515.97853,-0.831799801632716,0.475349050125885,-0.0666514076447697
1580422516.01062,-0.847425040054933,0.288822766460669,0.0173342488746471
1580422516.04271,-0.741954680704966,-0.158937972075989,-0.539803158617532
1580422516.0748,-0.959731441214618,-0.556893263141832,-0.331792172121768
1580422516.10689,-0.909437705043107,0.527107652399483,0.317143511100937
1580422516.13898,-0.513435568780041,0.615976195925843,-0.99977111467155
1580422516.17107,-0.684824902723735,0.901625085831999,-0.495368886854353
1580422516.20316,-0.636484321355001,0.790295262073702,-0.862561989776456
1580422516.23524,-0.613534752422369,0.498298619058517,-0.417242694743267
1580422516.26733,-1.30055695429923,0.331303883421072,-0.303471427481499
1580422516.29942,-0.936781872281987,0.481696803234911,-0.729747463187609
1580422516.33151,-0.96900892652781,0.58033112077516,-0.465094987411307
1580422516.3636,-1.16969558251316,-0.0612802319371326,0.00268558785381856
1580422516.39569,-1.18922713054093,-0.368413824673839,-0.0114747844663157
1580422516.42778,-0.894789044022279,0.565194171053637,-0.571541924162661
1580422516.45996,-0.875745784695201,0.151613641565575,-0.332768749523156
1580422516.49205,-1.17262531471733,-0.0373540856031127,-0.188235294117646
1580422516.52414,-1.02223239490349,0.105226214999618,-0.0876478217746239
1580422516.55623,-0.933363851377127,0.23999389639124,-0.189700160219729
1580422516.58832,-0.894789044022279,0.233646143282215,-0.168215457389181
1580422516.62041,-0.940688181887541,0.154543373769741,-0.165774013885709
1580422516.6525,-0.959243152513924,0.130617227435721,-0.167727168688486
1580422516.68458,-1.11940184634165,0.147707331960021,-0.034424353398947
1580422516.71667,-0.960219729915313,0.0954604409857325,-0.134035248340581
1580422516.74876,-0.894300755321584,0.133546959639887,-0.313725490196079
1580422516.78085,-0.952895399404898,0.193606469825284,-0.362066071564813
1580422516.81294,-0.932875562676433,0.146730754558632,-0.399664301518273
1580422516.84503,-0.796643015182728,0.212161440451666,-0.265873197528039
1580422516.87712,-0.95875486381323,0.406500343327991,-0.12475776302739
1580422516.90921,-1.02760357061112,0.45874723430228,-0.235111009384298
1580422516.9413,-0.850843060959793,0.447028305485617,-0.402594033722439
1580422516.97339,-0.805920500495919,0.549080643930726,-0.403570611123827
1580422517.00548,-0.836682688639659,0.584725719081408,-0.130617227435721
1580422517.03757,-1.34499122606241,-0.01196307316701,0.152101930266269
1580422517.06966,-1.63308155947204,0.0520027466239412,-0.185793850614175
1580422517.10174,-1.33327229724575,0.351323720149537,-0.144289311055161
1580422517.13383,-1.24733348592355,0.183352407110704,-0.0212405584802013
1580422517.16592,-1.04225223163195,0.527107652399483,-0.00903334096284425
1580422517.19801,-0.913832303349356,0.573006790264746,0.0114747844663157
1580422517.2301,-0.795666437781339,0.447028305485617,-0.0256351567864499
1580422517.26219,-0.750743877317465,0.0842298008697639,-0.420660715648127
1580422517.29428,-0.865491721980622,-0.399664301518273,-0.328862439917602
1580422517.32637,-1.02418554970626,0.0642099641412983,0.268314641031509
1580422517.35846,-0.530525673304341,0.46216525520714,-0.802990768291753
1580422517.39055,-0.673594262607766,0.831311512932022,-0.48023193713283
1580422517.42264,-0.668711375600823,0.862561989776456,-0.708751049057755
1580422517.45473,-0.537850003814755,0.626230258640422,-0.721446555275806
1580422517.48682,-0.887953002212559,0.193606469825284,-0.368413824673839
1580422517.5189,-1.27272449835966,0.252201113908598,-0.267338063630122
1580422517.55099,-0.867444876783399,0.732188906691082,-0.642343785763332
1580422517.58308,-0.912367437247273,0.5940032043946,-0.571053635461967
1580422517.61517,-1.10963607232776,0.0642099641412983,-0.0456549935149155
1580422517.64726,-1.14137483787289,-0.288334477759976,-0.0402838178072784
1580422517.67935,-1.05006485084306,0.290775921263446,-0.242923628595406
1580422517.71144,-0.929457541771573,0.32544441901274,-0.395757991912719
1580422517.74353,-1.01686121919585,0.0935072861829553,-0.36743724727245
1580422517.77562,-1.09059281300069,0.0046387426565957,-0.0187991149767299
1580422517.80771,-0.970473792629893,0.185305561913481,-0.105226214999618
1580422517.8398,-0.940199893186847,0.222903791866941,-0.193606469825284
1580422517.87189,-0.95875486381323,0.140383001449607,-0.0393072404058898
1580422517.90398,-0.949965667200733,0.138918135347524,-0.0588387884336612
1580422517.93607,-1.01881437399863,0.203860532539863,-0.143312733653772
1580422517.96816,-0.972915236133364,0.150637064164187,-0.240482185091935
1580422518.00025,-0.843518730449379,0.189700160219729,-0.383550774395362
1580422518.03234,-0.954360265506981,0.204837109941252,-0.427985046158541
1580422518.06443,-0.89723048752575,0.135500114442664,-0.397711146715496
1580422518.09652,-0.738048371099412,0.251712825207903,-0.303959716182193
1580422518.12861,-0.893324177920196,0.459723811703668,-0.366948958571756
1580422518.1607,-0.953871976806287,0.575936522468911,-0.379644464789807
1580422518.19279,-0.78785381857023,0.636972610055697,-0.388433661402305
1580422518.22488,-1.04859998474098,0.604745555809874,-0.0397955291065841
1580422518.25696,-1.56569771877623,0.256107423514152,0.147219043259327
1580422518.28905,-1.54763103685054,0.109620813305867,-0.147219043259327
1580422518.32114,-1.35671015487907,0.320561532005797,-0.156984817273212
1580422518.35323,-1.1237964446479,0.331792172121766,-0.0710460059510183
1580422518.38532,-0.90064850843061,0.582284275577937,-0.0539559014267184
1580422518.41741,-0.815686274509805,0.436774242771037,-0.110597390707255
1580422518.4495,-0.852307927061876,0.301029983978026,-0.0485847257190812
1580422518.48159,-0.817639429312582,0.00366216525520713,-0.249271381704432
1580422518.51368,-0.739513237201495,-0.166262302586404,-0.36743724727245
1580422518.54577,-0.905043106736859,-0.141359578850995,-0.0866712443732354
1580422518.57786,-0.775646601052873,0.484626535439077,-0.106202792401007
1580422518.60995,-0.631113145647364,0.673594262607768,-0.988540474555581
1580422518.64204,-0.621347371633478,0.926039520866713,-0.474860761425193
1580422518.67413,-0.579842832074464,0.85621423666743,-0.866956588082704
1580422518.70622,-0.713633936064697,0.419195849546043,-0.546150911726558
1580422518.73831,-1.12526131074998,0.275638971541923,-0.313725490196079
1580422518.7704,-0.98268101014725,0.197512779430838,-0.237064164187075
1580422518.80249,-0.851819638361182,0.970473792629893,-1.05494773785
1580422518.83458,-0.972915236133364,0.47925535973144,-0.325444419012742
1580422518.86667,-1.2346379797055,-0.33667505912871,0.224856946669718
1580422518.89876,-1.10280003051804,-0.031006332494087,-0.379644464789807
1580422518.93085,-0.98268101014725,0.300053406576637,-0.211184863050278
1580422518.96294,-0.983657587548638,0.0202639810788128,-0.401129167620356
1580422518.99503,-1.1150072480354,0.000732433051041426,-0.269291218432899
1580422519.02713,-1.0036774242771,0.11450370031281,-0.048096437018387
1580422519.05922,-0.908949416342413,0.201419089036392,-0.152590218966964
1580422519.09131,-0.919203479056993,0.162355992980849,-0.114991989013504
1580422519.1234,-0.959731441214618,0.178957808804455,-0.144777599755855
1580422519.15549,-0.949477378500038,0.214114595254443,-0.102296482795452
1580422519.18758,-1.03688105592432,0.138429846646829,-0.0515144579232469
1580422519.21967,-1.14528114747845,0.149660486762798,-0.188235294117646
1580422519.25176,-0.844495307850767,0.206301976043335,-0.377203021286336
1580422519.28385,-0.896742198825056,0.00854505226214997,-0.447516594186313
1580422519.31594,-0.930434119172961,0.180422674906538,-0.265384908827345
1580422519.34803,-0.803967345693142,0.433356221866177,-0.169192034790569
1580422519.38012,-0.968520637827115,0.446051728084228,-0.167238879987792
1580422519.41221,-1.03443961242084,0.431891355764094,-0.344487678339819
1580422519.4443,-0.756603341725796,0.476325627527274,-0.477302204928664
1580422519.47639,-0.797131303883422,0.602792401007097,-0.354253452353705
1580422519.50847,-1.01930266269932,0.353765163653009,-0.0256351567864499
1580422519.54057,-1.76345464255741,0.0588387884336612,0.11792172121767
1580422519.57265,-1.47194628824292,0.181887541008621,-0.326909285114825
1580422519.60474,-1.3459678034638,0.195559624628061,-0.0661631189440754
1580422519.63683,-1.11012436102846,0.358648050659951,0.0305180437933927
1580422519.66892,-0.936781872281987,0.574471656366828,0.110597390707255
1580422519.70101,-0.857190814068819,0.597909514000154,0.0856946669718468
1580422519.7331,-0.819104295414665,0.338628213931486,-0.0524910353246355
1580422519.76519,-0.781994354161899,-0.440680552376593,-0.532478828107118
1580422519.79728,-1.14576943617914,-0.423102159151599,0.101808194094758
1580422519.82937,-0.560799572747387,0.478767071030745,-0.468024719615473
1580422519.86146,-0.737560082398717,0.57349507896544,-0.451911192492561
1580422519.89355,-0.644785229266803,1.07301441977569,-0.551033798733501
1580422519.92564,-0.433356221866179,0.893324177920196,-0.939711604486153
1580422519.95773,-0.87672236209659,0.0173342488746471,-0.254154268711376
1580422519.98982,-1.65017166399634,-0.0422369726100555,-0.127199206530861
1580422520.02191,-0.850354772259099,0.943129625391013,-1.05641260395209
1580422520.054,-1.0036774242771,0.980727855344472,-0.440192263675899
1580422520.08609,-1.05641260395209,-0.0617685206378269,0.280033569848172
1580422520.11818,-1.17262531471733,-0.239017318989852,-0.285404745555811
1580422520.15027,-0.95191882200351,0.332768749523154,-0.237064164187075
1580422520.18236,-0.967544060425727,-0.0305180437933927,-0.504646372167544
1580422520.21445,-1.10231174181735,0.000244144350347142,-0.262943465323874
1580422520.24654,-0.93141069657435,0.170656900892652,-0.0422369726100555
1580422520.27863,-0.925551232166018,0.296147096971083,-0.125734340428778
1580422520.31076,-0.966567483024338,0.208743419546806,-0.126710917830167
1580422520.34285,-0.983657587548638,0.143312733653772,-0.115480277714198
1580422520.37494,-0.976821545738918,0.0959487296864268,-0.0324711985961699
1580422520.40703,-1.09645227740902,0.0866712443732354,-0.0583504997329669
1580422520.43912,-1.00758373388266,0.110109102006561,-0.224856946669718
1580422520.47121,-0.788830395971619,0.278080415045395,-0.343022812237736
1580422520.5033,-0.892347600518807,0.281986724650949,-0.406988632028687
1580422520.53539,-0.977309834439613,0.0993667505912867,-0.312748912794691
1580422520.56748,-0.920180056458381,0.249759670405126,-0.219974059662775
1580422520.59957,-0.997329671168078,0.230716411078049,-0.192629892423895
1580422520.63166,-0.933363851377127,0.311284046692606,-0.319096665903716
1580422520.66375,-0.735118638895246,0.512458991378654,-0.453864347295339
1580422520.69584,-0.792248416876479,0.670664530403602,-0.324467841611353
1580422520.72793,-0.997329671168078,0.714610513466088,-0.0559090562294955
1580422520.76002,-1.60964370183871,0.118898298619058,0.302983138780803
1580422520.79211,-1.60036621652552,0.155519951171129,-0.290287632562753
1580422520.82419,-1.20729381246662,0.290287632562752,-0.241947051194018
1580422520.85628,-1.1833676661326,0.228274967574578,-0.0861829556725411
1580422520.88838,-1.00465400167849,0.4484931715877,-0.0129396505683985
1580422520.92046,-0.858655680170902,0.495857175555045,0.0622568093385212
1580422520.95255,-0.821545738918136,0.418707560845348,-0.153078507667658
1580422520.98464,-0.731700617990386,0.0749523155565726,-0.210208285648889
1580422521.01673,-0.756603341725796,-0.43237964446479,-0.539803158617532
1580422521.04882,-1.01490806439307,0.00708018616006711,-0.0236820019836728
1580422521.08091,-0.629159990844586,0.4314030670634,-0.494880598153658
1580422521.113,-0.612558175020981,0.837170977340353,-0.864026855878539
1580422521.14509,-0.77759975585565,0.868909742885482,-0.473884184023804
1580422521.17718,-0.484626535439078,0.935805294880598,-0.890882734416724
1580422521.20927,-0.723887998779277,0.344975967040511,-0.525642786297398
1580422521.24136,-1.23952086671244,0.23315785458152,-0.288334477759976
1580422521.27345,-0.891371023117419,0.301029983978026,-0.392828259708553
1580422521.30554,-0.901625085831999,0.96217288471809,-0.945571068894484
1580422521.33763,-1.09010452429999,0.296147096971083,0.0314946211947813
1580422521.36972,-1.14869916838331,-0.302983138780805,-0.0632333867399097
1580422521.40181,-0.860120546272984,0.368902113374531,-0.355230029755093
1580422521.4339,-1.0041657129778,0.223880369268329,-0.205325398641946
1580422521.46599,-1.15260547798886,-0.0939955748836496,-0.37769130998703
1580422521.49808,-1.08326848249027,-0.0686045624475469,-0.291752498664836
1580422521.53017,-1.04225223163195,0.111573968108644,-0.119874876020447
1580422521.56226,-0.95533684290837,0.292729076066223,-0.125734340428778
1580422521.59442,-0.855237659266042,0.283939879453726,-0.0588387884336612
1580422521.62651,-0.885511558709087,0.259037155718318,-0.0158693827725642
1580422521.6586,-0.989028763256275,0.0798352025635154,-0.135500114442664
1580422521.69069,-1.05348287174792,0.0642099641412983,-0.34009308003357
1580422521.72278,-0.961684596017395,0.102784771496147,-0.178469520103761
1580422521.75487,-0.864515144579233,0.230228122377355,-0.348882276646068
1580422521.78696,-1.00807202258335,0.207766842145418,-0.359624628061342
1580422521.81905,-0.932875562676433,0.160402838178072,-0.303959716182193
1580422521.85114,-0.980727855344472,0.153566796368352,-0.151613641565575
1580422521.88323,-1.07985046158541,0.242435339894712,-0.0222171358815899
1580422521.91532,-1.07008468757153,0.319584954604409,-0.188723582818341
1580422521.94741,-0.822522316319525,0.394781414511328,-0.38794537270161
1580422521.9795,-0.833264667734799,0.566170748455026,-0.420660715648127
1580422522.01159,-0.740978103303577,0.536873426413369,-0.423590447852293
1580422522.04368,-0.870862897688259,0.517341878385597,-0.0305180437933927
1580422522.07577,-1.7043717097734,-0.235111009384298,0.241458762493323
1580422522.10786,-1.49587243457694,0.30835431448844,-0.365484092469673
1580422522.13995,-1.31081101701381,0.257572289616235,-0.220462348363469
1580422522.17204,-1.19801632715343,0.305424582284274,0.0920424200808725
1580422522.20413,-0.984634164950027,0.651621271076525,0.123781185626001
1580422522.23621,-0.858167391470207,0.728282597085528,0.151613641565575
1580422522.2683,-0.877698939497979,0.337651636530097,-0.11108567940795
1580422522.3004,-0.988540474555581,-0.844495307850767,-0.381597619592585
1580422522.33248,-0.561776150148775,0.616952773327231,0.0227054245822842
1580422522.36457,-0.50757610437171,0.358648050659951,-0.704356450751506
1580422522.39666,-1.07887388418402,0.415289539940488,-0.253665980010682
1580422522.42875,-0.479743648432136,1.1574883649958,-1.27223620965896
1580422522.46084,-0.477302204928664,0.65210955977722,-0.199954222934309
1580422522.49293,-1.2693064774548,-0.0134279392690928,-0.152101930266269
1580422522.52502,-1.04176394293126,0.277103837644006,-0.668223086900129
1580422522.55711,-0.947524223697261,1.00758373388266,-0.654551003280689
1580422522.5892,-0.891371023117419,0.203372243839169,0.0124513618677042
1580422522.62129,-1.30202182040131,-0.295658808270391,0.0622568093385212
1580422522.65338,-0.998306248569467,0.36646066987106,-0.623300526436255
1580422522.68547,-1.04615854123751,0.148683909361409,-0.385015640497445
1580422522.71756,-1.13502708476387,0.00610360875867855,-0.347417410543985
1580422522.74965,-0.989028763256275,0.0114747844663157,-0.162355992980849
1580422522.78174,-0.895765621423667,0.197024490730143,-0.114991989013504
1580422522.81383,-0.892347600518807,0.306401159685663,-0.136964980544747
1580422522.84592,-0.926527809567407,0.25708400091554,-0.0632333867399097
1580422522.87799,-0.946059357595178,0.113038834210727,-0.0925307087815668
1580422522.91008,-1.05494773785,0.0300297550926985,-0.163820859082932
1580422522.94217,-0.917250324254216,0.0944838635843439,-0.258060578316931
1580422522.97426,-0.861585412375067,0.2775921263447,-0.391851682307164
1580422523.00635,-0.954360265506981,0.237552452887769,-0.380621042191196
1580422523.03844,-0.998794537270161,0.176516365300984,-0.182375829709315
1580422523.07053,-0.892835889219501,0.218020904859998,-0.176516365300984
1580422523.10262,-1.07154955367361,0.254154268711375,-0.0788586251621268
1580422523.13471,-1.07838559548333,0.251224536507209,-0.212161440451666
1580422523.1668,-0.867444876783399,0.33569848172732,-0.412359807736324
1580422523.19889,-0.768810559243153,0.471442740520331,-0.470954451819638
1580422523.23098,-0.71168078126192,0.645761806668194,-0.467536430914778
1580422523.26307,-0.858655680170902,0.430426489662011,0.0207522697795071
1580422523.29516,-1.80788891432059,0.0983901731898982,0.230228122377355
1580422523.32725,-1.61452658884565,0.103761348897535,-0.290287632562753
1580422523.35934,-1.27516594186313,0.295658808270389,-0.264896620126651
1580422523.39143,-1.15651178759441,0.520759899290457,-0.0144045166704814
1580422523.42351,-0.977798123140307,0.56665903715572,0.162844281681544
1580422523.45561,-0.795666437781339,0.555428397039751,0.265873197528038
1580422523.48769,-0.666758220798046,0.0168459601739528,-0.669687953002212
1580422523.51978,-1.10572976272221,-0.900160219729916,0.0656748302433812
1580422523.55187,-0.527107652399481,0.647714961470971,-0.318120088502328
1580422523.58396,-0.529060807202258,0.269779507133592,-0.621835660334172
1580422523.61605,-0.923109788662547,0.746837567711911,-0.43237964446479
1580422523.64814,-0.592050049591821,1.03443961242084,-1.09108110170138
1580422523.68023,-0.652597848477912,0.420172426947431,-0.249759670405126
1580422523.71232,-1.20729381246662,-0.139894712748912,-0.139894712748912
1580422523.74441,-1.0207675288014,0.497322041657128,-0.612069886320286
1580422523.7765,-1.07789730678263,1.13795681696803,-0.738048371099412
1580422523.80859,-0.971938658731975,0.229251544975966,-0.0324711985961699
1580422523.84068,-1.42214084077211,-0.525642786297398,0.0793469138628211
1580422523.87277,-0.902601663233387,0.269779507133592,-0.444586861982147
1580422523.90486,-0.991958495460441,0.100343327992675,-0.278568703746091
1580422523.93695,-1.03395132372015,0.0837415121690697,-0.36060120546273
1580422523.96904,-0.947524223697261,0.0114747844663157,-0.115968566414892
1580422524.00113,-0.910414282444496,0.175539787899595,-0.0427252613107498
1580422524.03322,-0.925551232166018,0.199465934233615,-0.157961394674601
1580422524.06531,-0.903089951934081,0.168703746089875,-0.160891126878766
1580422524.0974,-0.934340428778516,0.136476691844052,-0.0510261692225527
1580422524.12949,-1.08131532768749,0.102784771496147,-0.0373540856031127
1580422524.16165,-1.04176394293126,0.0734874494544897,-0.164797436484321
1580422524.19374,-0.888929579613947,0.179446097505149,-0.286381322957199
1580422524.22583,-0.957289997711147,0.201907377737086,-0.457282368200199
1580422524.25792,-0.987075608453498,0.178469520103761,-0.260502021820402
1580422524.29001,-0.896742198825056,0.206301976043335,-0.119386587319752
1580422524.3221,-1.0979171435111,0.229739833676661,-0.0212405584802013
1580422524.35419,-1.10426489662013,0.324467841611352,-0.127687495231555
1580422524.38628,-0.759044785229268,0.443121995880063,-0.323491264209965
1580422524.41837,-0.78785381857023,0.480231937132828,-0.354253452353705
1580422524.45046,-0.775646601052873,0.562752727550166,-0.384039063096056
1580422524.48255,-1.00660715648127,0.242923628595406,0.0954604409857325
1580422524.51464,-1.46852826733806,0.129640650034332,0.0212405584802013
1580422524.54673,-1.42848859388113,0.306889448386357,-0.285404745555811
1580422524.57882,-1.39137865262837,0.241458762493323,0.000244144350347142
1580422524.61091,-1.18287937743191,0.412359807736323,0.0183108262760356
1580422524.643,-0.950942244602121,0.656504158083468,-0.00952162966353853
1580422524.67509,-0.800061036087587,0.524177920195317,0.0417486839093613
1580422524.70718,-0.82203402761883,0.129152361333638,-0.265873197528039
1580422524.73927,-0.89381246662089,-0.457770656900893,-0.586678873884184
1580422524.77136,-1.10963607232776,-0.355718318455787,0.221927214465552
1580422524.80345,-0.611093308918898,0.678477149614711,-0.351323720149539
1580422524.83554,-0.532967116807813,0.689219501029985,-0.653086137178606
1580422524.86764,-0.780041199359122,0.683848325322348,-0.508552681773098
1580422524.89973,-0.662851911192492,0.687266346227208,-0.874280918593119
1580422524.93182,-0.746837567711909,0.323979552910657,-0.387457084000916
1580422524.96391,-1.29616235599298,0.464606698710611,-0.36743724727245
1580422524.996,-0.803479056992447,0.78785381857023,-0.78101777676051
1580422525.02809,-0.970962081330587,0.335210193026626,-0.316655222400245
1580422525.06018,-1.1150072480354,0.194094758525978,-0.167238879987792
1580422525.09227,-1.01441977569238,-0.117433432516975,-0.0563973449301898
1580422525.12436,-1.09987029831388,0.292729076066223,-0.342534523537042
1580422525.15645,-0.931898985275044,0.195071335927366,-0.355718318455787
1580422525.18854,-1.10084687571527,-0.0144045166704814,-0.371831845578699
1580422525.22063,-1.0129549095903,0.0456549935149155,-0.161379415579461
1580422525.25272,-0.936781872281987,0.196536202029449,-0.165774013885709
1580422525.28481,-0.935805294880598,0.227298390173189,-0.128664072632944
1580422525.3169,-0.983657587548638,0.160891126878766,-0.0959487296864268
1580422525.34899,-0.932875562676433,0.137941557946135,-0.161867704280155
1580422525.38108,-1.0124666208896,0.158937972075989,-0.127199206530861
1580422525.41317,-0.997817959868772,0.132082093537804,-0.168215457389181
1580422525.44528,-0.832776379034105,0.214114595254443,-0.285404745555811
1580422525.47737,-0.891371023117419,0.222415503166246,-0.323979552910659
1580422525.50946,-0.942153047989624,0.105714503700312,-0.314702067597468
1580422525.54155,-0.997817959868772,0.162844281681544,-0.118898298619058
1580422525.57364,-1.02223239490349,0.254642557412069,-0.0891126878767068
1580422525.60573,-1.01490806439307,0.261478599221789,-0.229739833676661
1580422525.63782,-0.906019684138247,0.35962462806134,-0.431403067063401
1580422525.66991,-0.743419546807049,0.5085526817731,-0.498298619058518
1580422525.702,-0.727794308384832,0.738048371099413,-0.42896162355993
1580422525.73409,-0.945571068894484,0.464606698710611,0.0979018844892039
1580422525.76618,-1.92263675898375,-0.270756084534982,0.215091172655832
1580422525.79827,-1.23659113450828,0.44165712977798,-0.226810101472495
1580422525.83036,-1.21022354467079,0.298588540474555,-0.176028076600289
1580422525.86245,-1.13649195086595,0.5427328908217,-0.048096437018387
1580422525.89454,-0.947524223697261,0.696543831540399,0.0456549935149155
1580422525.92663,-0.867444876783399,0.320073243305103,-0.218509193560692
1580422525.95872,-0.751232166018159,-0.191653315022506,-0.503181506065461
1580422525.99081,-0.824963759822996,-0.547615777828641,-0.331303883421073
1580422526.0229,-1.05397116044862,0.125246051728084,0.322514686808574
1580422526.05499,-0.534431982909895,0.54956893263142,-0.450446326390479
1580422526.08709,-0.538826581216144,0.850354772259099,-0.733165484092469
1580422526.11918,-0.688731212329289,0.771740291447319,-0.639414053559166
1580422526.15127,-0.655527580682078,0.579354543373771,-0.6877546349279
1580422526.18336,-0.857679102769513,0.378179598687723,-0.454840924696727
1580422526.21545,-1.29372091248951,0.337651636530097,-0.423102159151599
1580422526.24754,-0.808850232700085,0.536385137712674,-0.638925764858472
1580422526.27963,-1.0300450141146,0.686778057526514,-0.505134660868238
1580422526.31172,-0.97584496833753,0.278568703746089,-0.172121766994735
1580422526.34381,-1.10035858701457,-0.258548867017625,-0.044678416113527
1580422526.3759,-1.05348287174792,0.303959716182192,-0.35034714274815
1580422526.40799,-1.03102159151598,0.0417486839093613,-0.249271381704432
1580422526.44008,-1.13649195086595,-0.096437018387121,-0.387457084000916
1580422526.47217,-1.03981078812848,0.0559090562294955,-0.099855039291981
1580422526.50426,-0.967544060425727,0.253177691309986,-0.0832532234683754
1580422526.53635,-0.946547646295873,0.255130846112763,-0.123781185626001
1580422526.56844,-0.928969253070878,0.201419089036392,-0.129640650034332
1580422526.60053,-0.912855725947967,0.135500114442664,-0.109620813305867
1580422526.63262,-0.967544060425727,0.153566796368352,-0.115480277714198
1580422526.66471,-1.02809185931182,0.0632333867399097,-0.170168612191958
1580422526.6968,-0.864515144579233,0.201907377737086,-0.287357900358588
1580422526.72909,-0.835217822537576,0.300053406576637,-0.334721904325933
1580422526.76118,-0.919691767757687,0.153566796368352,-0.363042648966202
1580422526.79327,-0.961196307316701,0.142336156252384,-0.156008239871824
1580422526.82537,-1.01930266269932,0.218997482261386,-0.146242465857938
1580422526.85746,-0.991958495460441,0.314702067597466,-0.332768749523156
1580422526.88955,-0.806897077897307,0.441168841077285,-0.489997711146716
1580422526.92164,-0.813244831006333,0.611581597619594,-0.44946974898909
1580422526.95373,-0.942153047989624,0.77418173495079,-0.181399252307926
1580422526.98582,-1.3454795147631,0.156008239871824,0.273197528038452
1580422527.01791,-1.65261310749981,-0.0124513618677042,-0.254642557412071
1580422527.05,-1.35622186617838,0.298588540474555,-0.151125352864881
1580422527.08209,-1.18434424353399,0.234134431982909,-0.10766765850309
1580422527.11418,-0.902113374532693,0.63501945525292,-0.0974135957885096
1580422527.14627,-0.870862897688259,0.616952773327231,0.136476691844052
1580422527.17836,-0.793713282978562,0.437262531471731,-0.0393072404058898
1580422527.21045,-0.785412375066759,0.0520027466239412,-0.269779507133594
1580422527.24254,-0.793224994277868,-0.409918364232853,-0.541268024719615
1580422527.27463,-1.0124666208896,-0.359624628061342,-0.0505378805218584
1580422527.30672,-0.815686274509805,0.485603112840465,-0.0676279850461583
1580422527.33881,-0.568123903257801,0.82545204852369,-1.07106126497291
1580422527.3709,-0.586678873884184,1.01832608529793,-0.465094987411307
1580422527.40299,-0.591561760891127,0.810803387502862,-1.00904859998474
1580422527.43508,-0.88014038300145,0.198977645532921,-0.449958037689784
1580422527.46717,-1.36208133058671,0.27075608453498,-0.23657587548638
1580422527.49926,-0.670176241702906,0.727794308384833,-0.710215915159838
1580422527.53135,-0.91773861295491,0.441168841077285,-0.525642786297398
1580422527.56344,-1.36110475318532,0.0764171816586554,0.189700160219729
1580422527.59553,-0.881116960402839,-0.0100099183642328,-0.375249866483559
1580422527.62762,-1.03248645761807,0.136964980544747,-0.145754177157244
1580422527.65971,-1.0207675288014,0.111573968108644,-0.300541695277333
1580422527.6918,-1.01539635309377,0.132570382238498,-0.322514686808576
1580422527.72389,-0.998306248569467,0.0852063782711525,-0.133546959639887
1580422527.75598,-0.92457465476463,0.157961394674601,-0.184817273212786
