Timestamp_seconds,Gyro_X_s,Gyro_Y_s,Gyro_Z_s
1580422474.72699,-5.03547722590974,-1.9226367589838,0.946059357595232
1580422474.73098,-5.6458381017776,-2.10574502174404,0.762951094834762
1580422474.73498,-6.25619897764545,-2.47196154726475,0.762951094834762
1580422474.73897,-6.86655985351331,-2.7161058976119,0.51880674448762
1580422474.74296,-7.23277637903402,-2.83817807278547,0.51880674448762
1580422474.74696,-7.35484855420759,-3.02128633554594,0.396734569314049
1580422474.75095,-7.41588464179449,-3.08232242313261,0.335698481727377
1580422474.75494,-7.35484855420759,-3.02128633554594,0.335698481727377
1580422474.75894,-7.41588464179449,-3.14335851071951,0.335698481727377
1580422474.76293,-7.29381246662092,-2.96025024795904,0.152590218966907
1580422474.76692,-7.17174029144735,-2.7161058976119,0.0305180437933359
1580422474.77092,-7.23277637903402,-2.59403372243833,-0.091554131380235
1580422474.77491,-7.17174029144735,-2.53299763485165,-0.213626306553806
1580422474.7789,-6.80552376592664,-2.22781719691761,-0.335698481727377
1580422474.78289,-6.56137941557949,-2.04470893415737,-0.396734569314049
1580422474.78689,-6.25619897764545,-1.8616006713969,-0.51880674448762
1580422474.79088,-5.58480201419093,-1.67849240863666,-0.762951094834762
1580422474.79487,-4.97444113832307,-1.55642023346309,-0.946059357595232
1580422474.79887,-4.36408026245522,-1.37331197070262,-1.0070954451819
1580422474.80286,-3.81475547417404,-1.31227588311594,-1.19020370794237
1580422474.80685,-3.02128633554594,-1.19020370794237,-1.12916762035547
1580422474.81085,-2.47196154726475,-1.0681315327688,-1.31227588311594
1580422474.81484,-1.80056458381023,-1.0070954451819,-1.19020370794237
1580422474.81884,-1.43434805828952,-0.762951094834762,-1.19020370794237
1580422474.82283,-0.946059357595232,-0.51880674448762,-1.25123979552905
1580422474.82682,-0.823987182421661,-0.213626306553806,-1.25123979552905
1580422474.83081,-0.640878919661191,0.0305180437933359,-1.12916762035547
1580422474.83481,-0.396734569314049,0.091554131380235,-1.19020370794237
1580422474.8388,-0.396734569314049,0.152590218966907,-1.0070954451819
1580422474.8428,-0.457770656900948,0.335698481727377,-0.946059357595232
1580422474.84679,-0.579842832074519,0.640878919661191,-1.0070954451819
1580422474.85078,-0.579842832074519,0.70191500724809,-0.885023270008332
1580422474.85478,-0.640878919661191,0.823987182421661,-0.885023270008332
1580422474.85879,-0.762951094834762,1.0070954451819,-0.762951094834762
1580422474.86279,-0.946059357595232,1.19020370794237,-0.640878919661191
1580422474.86678,-1.0681315327688,1.37331197070262,-0.70191500724809
1580422474.87077,-1.19020370794237,1.43434805828952,-0.640878919661191
1580422474.87477,-1.37331197070262,1.55642023346309,-0.457770656900948
1580422474.87876,-1.67849240863666,1.61745632104976,-0.457770656900948
1580422474.88276,-1.9226367589838,1.61745632104976,-0.274662394140478
1580422474.88675,-2.04470893415737,1.55642023346309,-0.152590218966907
1580422474.89074,-2.10574502174404,1.55642023346309,-0.152590218966907
1580422474.89474,-2.10574502174404,1.61745632104976,0.152590218966907
1580422474.89873,-2.28885328450451,1.49538414587619,0.213626306553806
1580422474.90272,-2.47196154726475,1.55642023346309,0.335698481727377
1580422474.90672,-2.53299763485165,1.43434805828952,0.640878919661191
1580422474.91071,-2.7161058976119,1.31227588311594,0.70191500724809
1580422474.9147,-2.83817807278547,1.25123979552905,0.823987182421661
1580422474.9187,-3.02128633554594,1.19020370794237,0.946059357595232
1580422474.92269,-3.14335851071951,1.19020370794237,1.0070954451819
1580422474.92668,-3.08232242313261,1.12916762035547,1.19020370794237
1580422474.93068,-2.96025024795904,1.0681315327688,1.37331197070262
1580422474.93467,-2.96025024795904,1.0681315327688,1.31227588311594
1580422474.93866,-2.89921416037237,1.0681315327688,1.37331197070262
1580422474.94265,-2.89921416037237,0.823987182421661,1.31227588311594
1580422474.94665,-2.96025024795904,0.823987182421661,1.37331197070262
1580422474.95064,-2.89921416037237,0.640878919661191,1.43434805828952
1580422474.95463,-2.89921416037237,0.70191500724809,1.31227588311594
1580422474.95863,-2.7771419851988,0.70191500724809,1.31227588311594
1580422474.96262,-2.65506981002522,0.823987182421661,1.25123979552905
1580422474.96661,-2.41092545967808,0.823987182421661,1.37331197070262
1580422474.97061,-2.04470893415737,0.885023270008332,1.37331197070262
1580422474.9746,-1.67849240863666,0.885023270008332,1.31227588311594
1580422474.97859,-1.49538414587619,0.762951094834762,1.31227588311594
1580422474.98259,-1.31227588311594,0.823987182421661,1.25123979552905
1580422474.98658,-1.0070954451819,0.885023270008332,1.43434805828952
1580422474.99057,-0.885023270008332,0.762951094834762,1.49538414587619
1580422474.99457,-0.70191500724809,0.885023270008332,1.55642023346309
1580422474.99856,-0.213626306553806,0.823987182421661,1.61745632104976
1580422475.00255,0.213626306553806,0.885023270008332,1.61745632104976
1580422475.00655,0.579842832074519,0.823987182421661,1.67849240863666
1580422475.01054,1.0070954451819,1.0070954451819,1.67849240863666
1580422475.01454,1.43434805828952,1.0070954451819,1.61745632104976
1580422475.01852,1.9226367589838,1.0681315327688,1.55642023346309
1580422475.02252,2.34988937209118,1.12916762035547,1.43434805828952
1580422475.02651,2.7771419851988,1.25123979552905,1.43434805828952
1580422475.0305,3.32646677347975,1.43434805828952,1.37331197070262
1580422475.0345,3.81475547417404,1.43434805828952,1.37331197070262
1580422475.03849,4.30304417486832,1.55642023346309,1.37331197070262
1580422475.04248,4.8523689631495,1.67849240863666,1.37331197070262
1580422475.04648,5.34065766384379,1.49538414587619,1.37331197070262
1580422475.05047,5.7068741893645,1.67849240863666,1.37331197070262
1580422475.05446,6.01205462729831,1.80056458381023,1.19020370794237
1580422475.05846,6.13412680247188,1.67849240863666,1.25123979552905
1580422475.06245,6.56137941557949,1.67849240863666,1.25123979552905
1580422475.06645,6.80552376592664,1.67849240863666,1.0681315327688
1580422475.07044,6.92759594110021,1.67849240863666,1.0681315327688
1580422475.07443,7.17174029144735,1.43434805828952,0.946059357595232
1580422475.07843,7.41588464179449,1.37331197070262,0.885023270008332
1580422475.08242,7.59899290455473,1.19020370794237,0.946059357595232
1580422475.08641,7.53795681696806,1.12916762035547,1.0070954451819
1580422475.09041,7.59899290455473,1.0681315327688,1.0070954451819
1580422475.0944,7.72106507972831,1.12916762035547,1.0070954451819
1580422475.09842,7.66002899214163,1.12916762035547,0.946059357595232
1580422475.10241,7.47692072938116,0.946059357595232,1.0070954451819
1580422475.10641,7.23277637903402,0.946059357595232,0.946059357595232
1580422475.1104,7.11070420386045,0.946059357595232,0.946059357595232
1580422475.11439,6.80552376592664,0.946059357595232,1.0070954451819
1580422475.11839,6.43930724040592,0.823987182421661,1.0070954451819
1580422475.12238,6.01205462729831,0.885023270008332,1.12916762035547
1580422475.12637,5.7068741893645,0.885023270008332,1.25123979552905
1580422475.13037,5.34065766384379,0.946059357595232,1.31227588311594
1580422475.13436,4.97444113832307,0.946059357595232,1.25123979552905
1580422475.13835,4.73029678797593,1.0070954451819,1.31227588311594
1580422475.14235,4.54718852521546,1.0681315327688,1.31227588311594
1580422475.14634,4.24200808728165,1.12916762035547,1.25123979552905
1580422475.15033,4.24200808728165,0.885023270008332,1.19020370794237
1580422475.15433,4.05889982452118,1.0070954451819,1.12916762035547
1580422475.15832,3.87579156176093,0.946059357595232,1.12916762035547
1580422475.16231,3.81475547417404,0.946059357595232,0.885023270008332
1580422475.16631,3.63164721141379,0.885023270008332,0.762951094834762
1580422475.1703,3.20439459830618,0.946059357595232,0.640878919661191
1580422475.1743,2.96025024795904,0.885023270008332,0.579842832074519
1580422475.17828,2.65506981002522,0.885023270008332,0.579842832074519
1580422475.18228,2.47196154726475,0.885023270008332,0.396734569314049
1580422475.18627,2.34988937209118,0.823987182421661,0.335698481727377
1580422475.19026,2.04470893415737,0.70191500724809,0.152590218966907
1580422475.19426,1.80056458381023,0.640878919661191,0.0305180437933359
1580422475.19825,1.37331197070262,0.457770656900948,-0.152590218966907
1580422475.20224,1.0070954451819,0.640878919661191,-0.274662394140478
1580422475.20624,0.51880674448762,0.51880674448762,-0.51880674448762
1580422475.21023,0.0305180437933359,0.396734569314049,-0.823987182421661
1580422475.21422,-0.396734569314049,0.457770656900948,-0.946059357595232
1580422475.21822,-0.823987182421661,0.213626306553806,-1.0070954451819
1580422475.22221,-1.31227588311594,0.335698481727377,-1.37331197070262
1580422475.2262,-1.8616006713969,0.274662394140478,-1.49538414587619
1580422475.2302,-2.34988937209118,0.274662394140478,-1.67849240863666
1580422475.23419,-2.83817807278547,0.274662394140478,-1.9226367589838
1580422475.23819,-3.26543068589308,0.396734569314049,-2.04470893415737
1580422475.24218,-3.57061112382689,0.396734569314049,-2.22781719691761
1580422475.24617,-3.75371938658736,0.457770656900948,-2.28885328450451
1580422475.25017,-4.18097199969475,0.396734569314049,-2.28885328450451
1580422475.25416,-4.42511635004189,0.457770656900948,-2.41092545967808
1580422475.25818,-4.54718852521546,0.579842832074519,-2.34988937209118
1580422475.26217,-4.7913328755626,0.579842832074519,-2.34988937209118
1580422475.26617,-4.97444113832307,0.70191500724809,-2.34988937209118
1580422475.27016,-5.09651331349664,0.70191500724809,-2.41092545967808
1580422475.27415,-4.97444113832307,0.762951094834762,-2.22781719691761
1580422475.27815,-5.03547722590974,0.885023270008332,-2.10574502174404
1580422475.28214,-5.09651331349664,0.946059357595232,-2.10574502174404
1580422475.28613,-4.97444113832307,1.0070954451819,-1.98367284657047
1580422475.29013,-4.7913328755626,0.946059357595232,-1.8616006713969
1580422475.29412,-4.66926070038903,1.0681315327688,-1.67849240863666
1580422475.29811,-4.42511635004189,1.12916762035547,-1.61745632104976
1580422475.30211,-4.36408026245522,1.25123979552905,-1.49538414587619
1580422475.3061,-4.18097199969475,1.25123979552905,-1.31227588311594
1580422475.31009,-3.93682764934761,1.43434805828952,-1.19020370794237
1580422475.31409,-4.05889982452118,1.49538414587619,-1.12916762035547
1580422475.31808,-3.81475547417404,1.61745632104976,-1.0070954451819
1580422475.32207,-3.50957503624022,1.73952849622333,-0.823987182421661
1580422475.32607,-3.20439459830618,1.67849240863666,-0.640878919661191
1580422475.33006,-2.7771419851988,1.73952849622333,-0.51880674448762
1580422475.33405,-2.59403372243833,1.73952849622333,-0.51880674448762
1580422475.33804,-2.34988937209118,1.80056458381023,-0.335698481727377
1580422475.34204,-2.04470893415737,1.80056458381023,-0.213626306553806
1580422475.34603,-1.98367284657047,1.73952849622333,-0.091554131380235
1580422475.35002,-1.80056458381023,1.67849240863666,0.0305180437933359
1580422475.35402,-1.37331197070262,1.55642023346309,0.274662394140478
1580422475.35801,-1.19020370794237,1.49538414587619,0.213626306553806
1580422475.362,-0.946059357595232,1.49538414587619,0.396734569314049
1580422475.366,-0.70191500724809,1.49538414587619,0.640878919661191
1580422475.36999,-0.640878919661191,1.43434805828952,0.762951094834762
1580422475.37398,-0.457770656900948,1.43434805828952,0.885023270008332
1580422475.37798,-0.396734569314049,1.37331197070262,1.0070954451819
1580422475.38197,-0.274662394140478,1.43434805828952,1.0681315327688
1580422475.38596,-0.274662394140478,1.49538414587619,1.0070954451819
1580422475.38996,-0.091554131380235,1.37331197070262,1.0070954451819
1580422475.39395,-0.091554131380235,1.0681315327688,0.946059357595232
1580422475.39795,-0.213626306553806,0.762951094834762,0.762951094834762
1580422475.40194,-0.152590218966907,0.51880674448762,0.762951094834762
1580422475.40593,-0.152590218966907,0.152590218966907,0.457770656900948
1580422475.40993,-0.091554131380235,-0.213626306553806,0.213626306553806
1580422475.41392,0.091554131380235,-0.640878919661191,-0.091554131380235
1580422475.41794,0.51880674448762,-1.0681315327688,-0.396734569314049
1580422475.42193,0.946059357595232,-1.49538414587619,-0.70191500724809
1580422475.42593,1.25123979552905,-1.98367284657047,-1.0070954451819
1580422475.42992,1.67849240863666,-2.41092545967808,-1.37331197070262
1580422475.43391,2.10574502174404,-2.83817807278547,-1.61745632104976
1580422475.4379,2.41092545967808,-3.38750286106665,-1.8616006713969
1580422475.4419,2.65506981002522,-3.75371938658736,-2.16678110933094
1580422475.44589,2.83817807278547,-4.05889982452118,-2.28885328450451
1580422475.44989,3.08232242313261,-4.36408026245522,-2.34988937209118
1580422475.45388,3.20439459830618,-4.54718852521546,-2.28885328450451
1580422475.45787,3.20439459830618,-4.73029678797593,-2.28885328450451
1580422475.46187,3.32646677347975,-4.7913328755626,-2.04470893415737
1580422475.46586,3.57061112382689,-4.7913328755626,-1.80056458381023
1580422475.46985,3.75371938658736,-4.73029678797593,-1.55642023346309
1580422475.47385,4.05889982452118,-4.48615243762879,-1.25123979552905
1580422475.47784,4.54718852521546,-4.24200808728165,-0.823987182421661
1580422475.48183,5.21858548867021,-3.75371938658736,-0.335698481727377
1580422475.48583,5.7068741893645,-3.32646677347975,0.213626306553806
1580422475.48982,6.43930724040592,-3.02128633554594,0.640878919661191
1580422475.49381,6.92759594110021,-2.65506981002522,1.31227588311594
1580422475.4978,7.53795681696806,-2.28885328450451,1.67849240863666
1580422475.5018,8.08728160524902,-1.80056458381023,2.10574502174404
1580422475.50579,8.39246204318306,-1.55642023346309,2.47196154726475
1580422475.50978,8.81971465629044,-1.25123979552905,2.83817807278547
1580422475.51378,9.24696726939806,-1.0681315327688,3.08232242313261
1580422475.51777,9.4911116197452,-0.70191500724809,3.32646677347975
1580422475.52176,9.61318379491877,-0.457770656900948,3.57061112382689
1580422475.52576,9.97940032043948,-0.213626306553806,3.75371938658736
1580422475.52975,10.2235446707866,0.091554131380235,3.87579156176093
1580422475.53374,10.5897611963073,0.396734569314049,3.93682764934761
1580422475.53774,10.8339055466545,0.70191500724809,3.87579156176093
1580422475.54173,11.0780498970016,1.31227588311594,3.81475547417404
1580422475.54572,11.2611581597619,1.73952849622333,3.93682764934761
1580422475.54972,11.0780498970016,2.04470893415737,3.69268329900046
1580422475.55371,10.4676890211338,2.28885328450451,3.50957503624022
1580422475.5577,9.73525597009234,2.53299763485165,3.20439459830618
1580422475.5617,8.88075074387734,2.83817807278547,2.83817807278547
1580422475.56569,7.90417334248878,2.96025024795904,2.41092545967808
1580422475.56969,6.80552376592664,3.20439459830618,1.98367284657047
1580422475.57368,5.7068741893645,3.38750286106665,1.43434805828952
1580422475.5777,4.60822461280236,3.57061112382689,0.823987182421661
1580422475.58169,3.69268329900046,3.75371938658736,0.335698481727377
1580422475.58568,2.96025024795904,3.75371938658736,-0.152590218966907
1580422475.58968,2.28885328450451,3.75371938658736,-0.579842832074519
1580422475.59367,1.61745632104976,3.81475547417404,-0.885023270008332
1580422475.59766,0.885023270008332,3.93682764934761,-1.37331197070262
1580422475.60166,0.335698481727377,3.81475547417404,-1.55642023346309
1580422475.60565,-0.51880674448762,3.87579156176093,-1.73952849622333
1580422475.60964,-1.19020370794237,3.81475547417404,-1.80056458381023
1580422475.61364,-1.8616006713969,3.81475547417404,-1.9226367589838
1580422475.61763,-2.65506981002522,3.87579156176093,-2.04470893415737
1580422475.62163,-3.63164721141379,3.93682764934761,-2.10574502174404
1580422475.62562,-4.36408026245522,4.05889982452118,-1.98367284657047
1580422475.62961,-5.27962157625689,4.11993591210808,-1.9226367589838
1580422475.63361,-6.07309071488521,4.30304417486832,-1.80056458381023
1580422475.6376,-6.62241550316617,4.11993591210808,-1.49538414587619
1580422475.64159,-7.11070420386045,4.24200808728165,-1.43434805828952
1580422475.64559,-7.53795681696806,4.30304417486832,-1.12916762035547
1580422475.64958,-7.7821011673152,4.30304417486832,-0.823987182421661
1580422475.65357,-7.84313725490188,4.30304417486832,-0.457770656900948
1580422475.65759,-7.7821011673152,4.36408026245522,-0.152590218966907
1580422475.66159,-7.84313725490188,4.42511635004189,0.152590218966907
1580422475.66558,-7.84313725490188,4.42511635004189,0.274662394140478
1580422475.66957,-7.66002899214163,4.48615243762879,0.579842832074519
1580422475.67357,-7.53795681696806,4.42511635004189,0.762951094834762
1580422475.67756,-7.41588464179449,4.30304417486832,0.946059357595232
1580422475.68155,-7.11070420386045,4.05889982452118,1.43434805828952
1580422475.68555,-6.56137941557949,3.99786373693451,1.67849240863666
1580422475.68954,-5.82894636453807,3.75371938658736,2.04470893415737
1580422475.69353,-5.15754940108332,3.50957503624022,2.28885328450451
1580422475.69753,-4.30304417486832,3.50957503624022,2.65506981002522
1580422475.70152,-3.63164721141379,3.57061112382689,2.83817807278547
1580422475.70551,-2.65506981002522,3.44853894865332,3.02128633554594
1580422475.70951,-1.8616006713969,3.26543068589308,3.14335851071951
1580422475.7135,-1.12916762035547,3.14335851071951,3.26543068589308
1580422475.71749,-0.457770656900948,3.08232242313261,3.26543068589308
1580422475.72149,0.152590218966907,2.7161058976119,3.14335851071951
1580422475.72548,0.640878919661191,2.34988937209118,3.14335851071951
1580422475.72948,1.19020370794237,2.04470893415737,2.96025024795904
1580422475.73347,2.04470893415737,1.61745632104976,2.7771419851988
1580422475.73746,2.7161058976119,1.12916762035547,2.59403372243833
1580422475.74145,3.63164721141379,0.70191500724809,2.47196154726475
1580422475.74544,4.60822461280236,0.457770656900948,2.10574502174404
1580422475.74944,5.6458381017776,0.213626306553806,1.98367284657047
1580422475.75343,6.5003433279926,0.091554131380235,1.80056458381023
1580422475.75742,7.35484855420759,-0.091554131380235,1.49538414587619
1580422475.76142,8.02624551766235,-0.274662394140478,1.25123979552905
1580422475.76541,8.51453421835663,-0.51880674448762,1.12916762035547
1580422475.7694,8.6366063935302,-0.70191500724809,0.885023270008332
1580422475.7734,9.06385900663759,-0.70191500724809,0.762951094834762
1580422475.77739,9.24696726939806,-0.823987182421661,0.640878919661191
1580422475.78139,9.4300755321583,-0.640878919661191,0.274662394140478
1580422475.78538,9.55214770733187,-0.640878919661191,0.152590218966907
1580422475.78937,9.4911116197452,-0.762951094834762,-0.091554131380235
1580422475.79337,9.24696726939806,-0.823987182421661,-0.396734569314049
1580422475.79736,9.24696726939806,-0.885023270008332,-0.70191500724809
1580422475.80135,8.94178683146401,-0.885023270008332,-0.885023270008332
1580422475.80535,8.81971465629044,-0.885023270008332,-1.12916762035547
1580422475.80934,8.51453421835663,-0.946059357595232,-1.12916762035547
1580422475.81333,8.33142595559616,-0.823987182421661,-1.12916762035547
1580422475.81735,8.02624551766235,-0.579842832074519,-1.0681315327688
1580422475.82134,7.84313725490188,-0.457770656900948,-0.885023270008332
1580422475.82534,7.47692072938116,-0.396734569314049,-0.823987182421661
1580422475.82933,7.04966811627378,-0.335698481727377,-0.640878919661191
1580422475.83333,6.56137941557949,-0.274662394140478,-0.579842832074519
1580422475.83732,6.19516289005878,-0.152590218966907,-0.457770656900948
1580422475.84131,5.6458381017776,-0.091554131380235,-0.457770656900948
1580422475.84531,5.21858548867021,-0.152590218966907,-0.213626306553806
1580422475.8493,4.91340505073617,-0.274662394140478,-0.091554131380235
1580422475.85329,4.48615243762879,-0.274662394140478,0.091554131380235
1580422475.85729,4.05889982452118,-0.274662394140478,0.0305180437933359
1580422475.86128,3.69268329900046,-0.274662394140478,0.274662394140478
1580422475.86527,3.38750286106665,-0.152590218966907,0.457770656900948
1580422475.86927,3.20439459830618,-0.091554131380235,0.579842832074519
1580422475.87326,3.02128633554594,-0.152590218966907,0.640878919661191
1580422475.87725,2.7771419851988,-0.152590218966907,0.640878919661191
1580422475.88125,2.65506981002522,-0.0305180437933359,0.823987182421661
1580422475.88524,2.47196154726475,0.0305180437933359,0.823987182421661
1580422475.88924,2.41092545967808,0.0305180437933359,1.0070954451819
1580422475.89323,2.28885328450451,0.152590218966907,1.0681315327688
1580422475.89722,2.34988937209118,0.335698481727377,1.0681315327688
1580422475.90121,2.04470893415737,0.335698481727377,1.0681315327688
1580422475.9052,2.10574502174404,0.396734569314049,1.12916762035547
1580422475.9092,2.04470893415737,0.457770656900948,1.12916762035547
1580422475.91319,2.34988937209118,0.640878919661191,1.19020370794237
1580422475.91718,2.59403372243833,0.640878919661191,1.12916762035547
1580422475.92118,2.89921416037237,0.823987182421661,1.12916762035547
1580422475.92517,3.14335851071951,0.762951094834762,1.0681315327688
1580422475.92916,3.14335851071951,0.823987182421661,1.19020370794237
1580422475.93316,3.08232242313261,0.823987182421661,1.12916762035547
1580422475.93715,3.20439459830618,0.823987182421661,1.12916762035547
1580422475.94114,3.02128633554594,0.946059357595232,1.0681315327688
1580422475.94514,2.89921416037237,0.885023270008332,1.12916762035547
1580422475.94913,2.7771419851988,0.946059357595232,1.12916762035547
1580422475.95313,2.83817807278547,0.946059357595232,1.12916762035547
1580422475.95712,2.96025024795904,1.0070954451819,1.0681315327688
1580422475.96111,2.96025024795904,1.0681315327688,1.0681315327688
1580422475.96511,3.08232242313261,0.885023270008332,1.0070954451819
1580422475.9691,3.32646677347975,0.946059357595232,1.0070954451819
1580422475.97309,3.69268329900046,0.946059357595232,0.946059357595232
1580422475.97708,3.99786373693451,1.0681315327688,0.885023270008332
1580422475.98107,4.30304417486832,1.25123979552905,0.823987182421661
1580422475.98507,4.54718852521546,1.25123979552905,0.70191500724809
1580422475.98906,4.48615243762879,1.25123979552905,0.579842832074519
1580422475.99305,4.42511635004189,1.31227588311594,0.335698481727377
1580422475.99705,4.11993591210808,1.0681315327688,0.152590218966907
1580422476.00104,3.87579156176093,0.885023270008332,0.091554131380235
1580422476.00504,3.63164721141379,0.823987182421661,-0.0305180437933359
1580422476.00903,3.32646677347975,0.762951094834762,-0.274662394140478
1580422476.01302,3.26543068589308,0.823987182421661,-0.274662394140478
1580422476.01702,3.08232242313261,0.70191500724809,-0.51880674448762
1580422476.02101,2.96025024795904,0.823987182421661,-0.457770656900948
1580422476.025,2.96025024795904,0.885023270008332,-0.51880674448762
1580422476.029,2.7771419851988,1.0681315327688,-0.457770656900948
1580422476.03299,2.41092545967808,1.19020370794237,-0.51880674448762
1580422476.03698,2.10574502174404,1.31227588311594,-0.457770656900948
1580422476.04098,1.8616006713969,1.25123979552905,-0.274662394140478
1580422476.04497,1.55642023346309,1.19020370794237,-0.335698481727377
1580422476.04896,1.25123979552905,1.25123979552905,-0.213626306553806
1580422476.05296,0.885023270008332,1.31227588311594,-0.152590218966907
1580422476.05698,0.823987182421661,1.37331197070262,-0.0305180437933359
1580422476.06097,0.70191500724809,1.37331197070262,0.152590218966907
1580422476.06496,0.213626306553806,1.49538414587619,0.152590218966907
1580422476.06896,0.274662394140478,1.55642023346309,0.274662394140478
1580422476.07295,0.396734569314049,1.43434805828952,0.51880674448762
1580422476.07694,0.396734569314049,1.49538414587619,0.51880674448762
1580422476.08094,0.457770656900948,1.43434805828952,0.579842832074519
1580422476.08493,0.579842832074519,1.43434805828952,0.640878919661191
1580422476.08892,0.457770656900948,1.43434805828952,0.823987182421661
1580422476.09292,0.640878919661191,1.43434805828952,1.0070954451819
1580422476.09691,0.640878919661191,1.49538414587619,1.19020370794237
1580422476.1009,0.946059357595232,1.55642023346309,1.49538414587619
1580422476.1049,1.19020370794237,1.80056458381023,1.8616006713969
1580422476.10889,1.31227588311594,1.80056458381023,2.04470893415737
1580422476.11288,1.67849240863666,2.10574502174404,2.28885328450451
1580422476.11688,2.04470893415737,2.28885328450451,2.53299763485165
1580422476.12087,2.34988937209118,2.47196154726475,2.65506981002522
1580422476.12487,2.59403372243833,2.7161058976119,3.08232242313261
1580422476.12886,2.89921416037237,2.96025024795904,3.20439459830618
1580422476.13285,3.08232242313261,3.08232242313261,3.38750286106665
1580422476.13684,3.14335851071951,3.26543068589308,3.57061112382689
1580422476.14083,3.26543068589308,3.32646677347975,3.69268329900046
1580422476.14483,3.38750286106665,3.38750286106665,3.87579156176093
1580422476.14882,3.75371938658736,3.38750286106665,3.99786373693451
1580422476.15281,3.99786373693451,3.14335851071951,4.05889982452118
1580422476.15681,4.24200808728165,3.14335851071951,4.11993591210808
1580422476.1608,4.36408026245522,3.08232242313261,3.99786373693451
1580422476.16479,4.24200808728165,2.89921416037237,3.93682764934761
1580422476.16879,4.18097199969475,2.59403372243833,3.63164721141379
1580422476.17278,4.11993591210808,2.34988937209118,3.44853894865332
1580422476.17678,3.87579156176093,2.04470893415737,3.32646677347975
1580422476.18077,3.57061112382689,1.73952849622333,3.08232242313261
1580422476.18476,3.26543068589308,1.31227588311594,2.7771419851988
1580422476.18876,3.02128633554594,1.0070954451819,2.7161058976119
1580422476.19275,2.83817807278547,0.579842832074519,2.83817807278547
1580422476.19674,2.65506981002522,0.457770656900948,2.7771419851988
1580422476.20074,2.53299763485165,0.213626306553806,2.7771419851988
1580422476.20473,2.47196154726475,-0.0305180437933359,2.83817807278547
1580422476.20872,2.34988937209118,-0.213626306553806,3.08232242313261
1580422476.21272,2.10574502174404,-0.213626306553806,3.44853894865332
1580422476.21673,1.73952849622333,-0.396734569314049,3.81475547417404
1580422476.22073,1.25123979552905,-0.396734569314049,3.99786373693451
1580422476.22472,0.762951094834762,-0.457770656900948,4.36408026245522
1580422476.22872,0.213626306553806,-0.396734569314049,4.54718852521546
1580422476.23271,-0.274662394140478,-0.335698481727377,4.7913328755626
1580422476.2367,-0.396734569314049,-0.274662394140478,4.91340505073617
1580422476.2407,-0.640878919661191,-0.335698481727377,5.03547722590974
1580422476.24469,-0.640878919661191,-0.396734569314049,5.15754940108332
1580422476.24868,-0.640878919661191,-0.335698481727377,5.09651331349664
1580422476.25268,-0.396734569314049,-0.396734569314049,5.15754940108332
1580422476.25667,-0.152590218966907,-0.51880674448762,5.09651331349664
1580422476.26066,0.274662394140478,-0.640878919661191,5.03547722590974
1580422476.26466,0.885023270008332,-0.640878919661191,4.91340505073617
1580422476.26865,1.31227588311594,-0.640878919661191,4.91340505073617
1580422476.27264,1.9226367589838,-0.70191500724809,4.91340505073617
1580422476.27664,2.28885328450451,-0.579842832074519,4.91340505073617
1580422476.28063,2.7161058976119,-0.457770656900948,4.91340505073617
1580422476.28462,3.08232242313261,-0.274662394140478,4.91340505073617
1580422476.28862,3.38750286106665,-0.091554131380235,5.03547722590974
1580422476.29261,3.50957503624022,0.213626306553806,5.09651331349664
1580422476.2966,3.81475547417404,0.579842832074519,5.21858548867021
1580422476.30059,4.05889982452118,0.946059357595232,5.34065766384379
1580422476.30459,4.48615243762879,1.43434805828952,5.52376592660403
1580422476.30858,4.60822461280236,1.8616006713969,5.7068741893645
1580422476.31257,4.8523689631495,2.28885328450451,5.76791027695117
1580422476.31657,5.09651331349664,2.89921416037237,6.01205462729831
1580422476.32056,5.15754940108332,3.38750286106665,6.19516289005878
1580422476.32455,5.15754940108332,4.05889982452118,6.31723506523235
1580422476.32855,5.34065766384379,4.54718852521546,6.37827115281902
1580422476.33254,5.40169375143046,4.91340505073617,6.62241550316617
1580422476.33653,5.6458381017776,5.40169375143046,6.62241550316617
1580422476.34053,5.6458381017776,5.82894636453807,6.80552376592664
1580422476.34452,5.46272983901736,6.25619897764545,6.74448767833974
1580422476.34852,5.27962157625689,6.62241550316617,6.86655985351331
1580422476.35251,5.09651331349664,7.04966811627378,6.92759594110021
1580422476.3565,4.60822461280236,7.53795681696806,7.17174029144735
1580422476.3605,4.05889982452118,7.84313725490188,6.98863202868688
1580422476.36449,3.50957503624022,8.27038986800949,7.11070420386045
1580422476.36848,2.7771419851988,8.51453421835663,7.35484855420759
1580422476.37248,2.10574502174404,8.94178683146401,7.53795681696806
1580422476.37646,1.43434805828952,9.12489509422448,7.47692072938116
1580422476.38046,0.762951094834762,9.18593118181116,7.72106507972831
1580422476.38445,0.396734569314049,9.36903944457163,7.72106507972831
1580422476.38844,-0.396734569314049,9.36903944457163,7.7821011673152
1580422476.39244,-1.12916762035547,9.55214770733187,7.84313725490188
1580422476.39643,-1.9226367589838,9.4911116197452,7.7821011673152
1580422476.40043,-2.41092545967808,9.36903944457163,7.72106507972831
1580422476.40442,-3.08232242313261,9.36903944457163,7.47692072938116
1580422476.40841,-3.69268329900046,9.24696726939806,7.23277637903402
1580422476.41241,-4.48615243762879,8.94178683146401,6.86655985351331
1580422476.4164,-5.27962157625689,8.81971465629044,6.62241550316617
1580422476.42039,-6.13412680247188,8.6366063935302,6.37827115281902
1580422476.42439,-6.92759594110021,8.51453421835663,6.13412680247188
1580422476.42838,-7.84313725490188,8.33142595559616,5.82894636453807
1580422476.43237,-8.69764248111687,8.27038986800949,5.7068741893645
1580422476.43637,-9.79629205767901,8.02624551766235,5.58480201419093
1580422476.44036,-10.8339055466545,8.02624551766235,5.52376592660403
1580422476.44435,-11.8715190356297,7.90417334248878,5.58480201419093
1580422476.44835,-12.8480964370183,7.84313725490188,5.58480201419093
1580422476.45234,-13.6415655756466,7.84313725490188,5.95101853971164
1580422476.45636,-14.3129625391011,7.84313725490188,6.07309071488521
1580422476.46035,-14.923323414969,7.66002899214163,6.19516289005878
1580422476.46435,-15.4116121156633,7.53795681696806,6.37827115281902
1580422476.46834,-15.777828641184,7.29381246662092,6.86655985351331
1580422476.47233,-15.9609369039445,7.23277637903402,7.11070420386045
1580422476.47633,-15.9609369039445,6.92759594110021,7.47692072938116
1580422476.48032,-15.777828641184,6.62241550316617,7.7821011673152
1580422476.48431,-15.6557564660104,6.5003433279926,8.02624551766235
1580422476.48831,-15.2895399404897,6.19516289005878,8.27038986800949
1580422476.4923,-15.1064316777295,6.01205462729831,8.45349813076973
1580422476.49629,-14.7402151522087,5.76791027695117,8.45349813076973
1580422476.50029,-14.373998626688,5.15754940108332,8.6366063935302
1580422476.50428,-14.0077821011673,4.7913328755626,8.5755703059433
1580422476.50828,-13.7636377508202,4.24200808728165,8.51453421835663
1580422476.51227,-13.3974212252995,3.69268329900046,8.39246204318306
1580422476.51626,-12.9701686121919,3.32646677347975,8.20935378042259
1580422476.52026,-12.5429159990845,2.7771419851988,7.84313725490188
1580422476.52425,-11.9935912108033,2.47196154726475,7.41588464179449
1580422476.52824,-11.4442664225223,2.10574502174404,7.17174029144735
1580422476.53224,-10.955977721828,1.55642023346309,6.98863202868688
1580422476.53622,-10.7728694590676,1.0681315327688,6.80552376592664
1580422476.54022,-10.8949416342411,0.152590218966907,6.80552376592664
1580422476.54421,-11.0780498970016,-0.640878919661191,6.62241550316617
1580422476.5482,-11.6884107728695,-1.19020370794237,6.5003433279926
1580422476.5522,-12.4208438239109,-2.04470893415737,6.56137941557949
1580422476.55619,-13.3363851377126,-2.7771419851988,6.43930724040592
1580422476.56018,-14.3129625391011,-3.69268329900046,6.37827115281902
1580422476.56418,-15.2895399404897,-4.8523689631495,6.56137941557949
1580422476.56817,-16.7544060425726,-6.01205462729831,6.80552376592664
1580422476.57217,-18.341344319829,-7.29381246662092,6.98863202868688
1580422476.57616,-20.1724269474325,-8.33142595559616,7.35484855420759
1580422476.58015,-22.0035095750361,-9.4911116197452,7.59899290455473
1580422476.58415,-23.8956282902266,-10.650797283894,8.02624551766235
1580422476.58814,-25.2994583047225,-11.505302510109,8.39246204318306
1580422476.59213,-26.2149996185244,-11.8715190356297,8.88075074387734
1580422476.59613,-26.4591439688716,-11.8715190356297,9.73525597009234
1580422476.60012,-26.2760357061111,-11.7494468604561,10.7728694590676
1580422476.60411,-26.0318913557639,-11.6273746852826,11.810482948043
1580422476.60811,-25.6046387426566,-11.6884107728695,12.9091325246052
1580422476.6121,-25.482566567483,-11.8715190356297,13.8857099259938
1580422476.61612,-25.9708552681773,-11.9935912108033,14.8012512397954
1580422476.62011,-26.7643244068054,-12.0546272983902,15.4116121156633
1580422476.62411,-27.4967574578468,-12.2377355611504,15.7167925535973
1580422476.6281,-27.9850461585411,-12.4208438239109,15.777828641184
1580422476.63209,-27.9240100709544,-12.7870603494316,15.7167925535973
1580422476.63609,-27.6798657206073,-13.4584573128861,15.5336842908368
1580422476.64008,-27.3136491950866,-14.6791790646218,15.0453955901426
1580422476.64407,-27.0695048447394,-15.7167925535973,14.3129625391011
1580422476.64807,-27.3746852826732,-16.632333867399,13.5805294880597
1580422476.65206,-27.8019378957808,-17.1816586556802,12.5429159990845
1580422476.65605,-28.1071183337147,-17.486839093614,11.3221942473488
1580422476.66005,-28.1071183337147,-17.5478751812009,10.0404364080262
1580422476.66404,-27.6188296330204,-17.5478751812009,8.81971465629044
1580422476.66804,-26.8253604943923,-17.6089112687876,7.7821011673152
1580422476.67203,-26.0318913557639,-17.3647669184404,6.86655985351331
1580422476.67602,-25.8487830930037,-17.1206225680933,6.01205462729831
1580422476.68001,-26.0929274433508,-16.7544060425726,5.34065766384379
1580422476.68401,-26.4591439688716,-16.3881895170518,4.48615243762879
1580422476.688,-27.1305409323261,-15.9609369039445,3.63164721141379
1580422476.692,-27.8019378957808,-15.7167925535973,2.65506981002522
1580422476.69598,-28.4122987716487,-15.5336842908368,1.55642023346309
1580422476.69998,-29.1447318226901,-15.1064316777295,0.152590218966907
1580422476.70397,-30.2433813992523,-14.8012512397954,-1.25123979552905
1580422476.70796,-31.5251392385749,-14.5571068894483,-2.89921416037237
1580422476.71196,-32.928969253071,-14.068818188754,-4.73029678797593
1580422476.71595,-34.1496910048068,-13.3974212252995,-6.68345159075307
1580422476.71994,-35.2483405813689,-12.6039520866711,-8.51453421835663
1580422476.72394,-36.2249179827575,-12.1156633859769,-10.5897611963073
1580422476.72793,-36.7742427710384,-11.4442664225223,-12.4818799114976
1580422476.73193,-37.2625314717327,-10.7728694590676,-14.373998626688
1580422476.73592,-38.056000610361,-10.4066529335469,-16.2661173418783
1580422476.73991,-38.7273975738156,-9.85732814526591,-17.7309834439611
1580422476.74391,-39.1546501869232,-9.4300755321583,-19.0737773708704
1580422476.7479,-39.8870832379646,-8.94178683146401,-19.9893186846723
1580422476.75189,-40.314335851072,-8.6366063935302,-20.6607156481268
1580422476.75589,-40.5584802014191,-8.27038986800949,-21.2710765239947
1580422476.75988,-40.8026245517663,-8.02624551766235,-21.4541847867551
1580422476.76387,-40.5584802014191,-8.02624551766235,-21.4541847867551
1580422476.76787,-39.7039749752041,-7.90417334248878,-21.0269321736475
1580422476.77186,-38.4832532234684,-7.84313725490188,-20.1724269474325
1580422476.77588,-36.7132066834517,-7.47692072938116,-18.9517051956968
1580422476.77987,-34.5159075303275,-6.37827115281902,-17.3037308308537
1580422476.78387,-31.8913557640956,-4.54718852521546,-15.1674677653161
1580422476.78786,-28.8395513847561,-1.98367284657047,-12.664988174258
1580422476.79185,-25.3604943923094,1.25123979552905,-10.2235446707866
1580422476.79585,-21.3931486991683,4.97444113832307,-7.66002899214163
1580422476.79984,-16.632333867399,8.69764248111687,-4.97444113832307
1580422476.80383,-11.2611581597619,12.4818799114976,-2.28885328450451
1580422476.80783,-4.91340505073617,16.083009079118,0.396734569314049
1580422476.81182,2.47196154726475,18.8296330205233,2.83817807278547
1580422476.81581,10.5287251087204,20.5996795605402,5.21858548867021
1580422476.81981,18.7075608453497,21.5762569619287,7.23277637903402
1580422476.8238,26.7643244068054,21.5762569619287,8.88075074387734
1580422476.82779,33.7224383916989,20.9658960860609,9.85732814526591
1580422476.83179,39.8260471503775,19.7451743343252,10.5897611963073
1580422476.83578,45.075150682841,17.5478751812009,10.7728694590676
1580422476.83977,49.7749294270234,14.8622873273823,10.4676890211338
1580422476.84377,53.3150225070572,11.5663385976959,9.61318379491877
1580422476.84776,55.6343938353548,8.08728160524902,8.39246204318306
1580422476.85175,56.7330434119172,4.66926070038903,6.98863202868688
1580422476.85574,56.4278629739833,1.49538414587619,5.34065766384379
1580422476.85974,54.9629968719005,-1.19020370794237,3.50957503624022
1580422476.86373,52.5825894560157,-3.50957503624022,1.67849240863666
1580422476.86772,48.9814602883953,-5.27962157625689,-0.091554131380235
1580422476.87172,44.0985732814524,-6.62241550316617,-1.9226367589838
1580422476.87571,37.8728923476003,-7.23277637903402,-3.57061112382689
1580422476.8797,30.1823453116654,-7.35484855420759,-5.03547722590974
1580422476.8837,21.210040436408,-6.80552376592664,-6.25619897764545
1580422476.88769,11.4442664225223,-5.95101853971164,-7.66002899214163
1580422476.89169,1.37331197070262,-5.09651331349664,-8.69764248111687
1580422476.89568,-8.81971465629044,-4.42511635004189,-9.79629205767901
1580422476.89967,-18.8906691081102,-4.18097199969475,-10.8339055466545
1580422476.90366,-28.7785152971694,-4.66926070038903,-11.8715190356297
1580422476.90766,-38.1780727855346,-5.6458381017776,-12.7870603494316
1580422476.91165,-46.8451972228581,-7.23277637903402,-13.9467460135804
1580422476.91565,-54.3526359960326,-9.24696726939806,-15.0453955901426
1580422476.91964,-60.5172808422981,-11.505302510109,-16.1440451667047
1580422476.92363,-64.9729152361333,-13.9467460135804,-17.1206225680933
1580422476.92763,-67.902647440299,-16.2050812542916,-17.9140917067216
1580422476.93162,-69.2454413672083,-18.5244525825894,-18.7075608453497
1580422476.93561,-69.0012970168611,-20.904859998474,-19.195849546044
1580422476.9396,-67.4143587396047,-23.3463035019454,-19.501029983978
1580422476.94359,-64.7898069733731,-25.4215304798961,-19.3789578088044
1580422476.94759,-61.5548943312733,-27.2526131074997,-18.9517051956968
1580422476.95158,-57.7706569008926,-28.5343709468223,-18.1582360570687
1580422476.95557,-53.437094682231,-29.0226596475165,-17.0595864805066
1580422476.95957,-48.2490272373541,-28.9616235599296,-15.5947203784237
1580422476.96356,-42.328526741436,-28.2291905088882,-14.068818188754
1580422476.96756,-35.492484931716,-27.1305409323261,-12.1766994735638
1580422476.97155,-27.9240100709544,-25.2994583047225,-9.97940032043948
1580422476.97554,-19.9893186846723,-22.9800869764247,-7.47692072938116
1580422476.97954,-11.505302510109,-20.050354772259,-4.91340505073617
1580422476.98353,-2.7161058976119,-16.7544060425726,-2.10574502174404
1580422476.98752,6.31723506523235,-13.3974212252995,0.70191500724809
1580422476.99152,15.5947203784237,-9.61318379491877,3.57061112382689
1580422476.99551,24.9942778667887,-5.76791027695117,6.62241550316617
1580422476.9995,34.027618829633,-1.98367284657047,9.36903944457163
1580422477.0035,43.1219958800639,1.9226367589838,11.8715190356297
1580422477.00749,51.6670481422138,5.7068741893645,14.1908903639276
1580422477.01148,59.5407034409091,9.30800335698473,16.1440451667047
1580422477.0155,66.6819256885638,12.6039520866711,17.792019531548
1580422477.0195,72.5413900968952,15.3505760280766,19.0737773708704
1580422477.02349,76.8749523155566,18.2192721446554,19.9893186846723
1580422477.02748,79.4384679942018,20.7827878233004,20.8438239108873
1580422477.03148,80.2929732204166,23.0411230640116,21.0269321736475
1580422477.03547,79.5605401693751,24.9332417792018,21.0879682612344
1580422477.03946,77.4853131914247,26.6422522316318,20.7827878233004
1580422477.04346,74.4945448996723,27.8019378957808,20.050354772259
1580422477.04745,70.8934157320518,28.5954070344089,19.2568856336309
1580422477.05144,66.8650339513238,28.9616235599296,18.0361638818952
1580422477.05544,62.4704356450748,28.7174792095825,16.7544060425726
1580422477.05943,57.7096208133057,28.1071183337147,14.9843595025559
1580422477.06342,52.7046616311891,27.0695048447394,13.2753490501259
1580422477.06742,47.3334859235522,25.9708552681773,11.3832303349354
1580422477.07141,41.7181658655679,24.9942778667887,9.30800335698473
1580422477.0754,35.9807736324101,24.0177004654001,7.29381246662092
1580422477.0794,30.5485618371861,23.2852674143587,5.27962157625689
1580422477.08339,25.2994583047225,22.9800869764247,3.44853894865332
1580422477.08739,20.7217517357137,22.4917982757304,1.80056458381023
1580422477.09138,16.9985503929197,22.1866178377966,0.396734569314049
1580422477.09537,13.7636377508202,22.1866178377966,-0.885023270008332
1580422477.09936,11.0780498970016,22.4307621881437,-1.73952849622333
1580422477.10335,8.81971465629044,22.7359426260775,-2.53299763485165
1580422477.10735,6.98863202868688,23.1631952391851,-3.38750286106665
1580422477.11134,5.52376592660403,23.5294117647059,-4.18097199969475
1580422477.11533,4.42511635004189,23.8345922026397,-4.97444113832307
1580422477.11933,3.50957503624022,23.773556115053,-5.6458381017776
1580422477.12332,2.96025024795904,23.2852674143587,-6.07309071488521
1580422477.12732,2.41092545967808,22.4307621881437,-6.43930724040592
1580422477.13131,2.04470893415737,21.3321126115816,-6.68345159075307
1580422477.1353,1.61745632104976,20.050354772259,-6.80552376592664
1580422477.1393,0.823987182421661,18.7685969329366,-6.86655985351331
1580422477.14329,-0.0305180437933359,17.7309834439611,-6.98863202868688
1580422477.14728,-1.25123979552905,16.7544060425726,-7.47692072938116
1580422477.15128,-3.02128633554594,16.083009079118,-7.84313725490188
1580422477.15527,-5.03547722590974,15.1674677653161,-8.45349813076973
1580422477.15926,-7.59899290455473,14.4960708018616,-8.94178683146401
1580422477.16326,-10.5897611963073,13.6415655756466,-9.36903944457163
1580422477.16725,-13.6415655756466,12.7870603494316,-9.73525597009234
1580422477.17124,-16.632333867399,11.9325551232166,-9.79629205767901
1580422477.17526,-19.3179217212175,11.2001220721752,-9.73525597009234
1580422477.17926,-22.064545662623,10.5287251087204,-9.4911116197452
1580422477.18325,-25.3604943923094,10.0404364080262,-9.00282291905091
1580422477.18724,-29.2668039978637,9.55214770733187,-8.45349813076973
1580422477.19124,-33.783474479286,8.6366063935302,-7.84313725490188
1580422477.19523,-39.0936140993363,7.11070420386045,-7.29381246662092
1580422477.19922,-44.4647898069734,4.66926070038903,-7.17174029144735
1580422477.20322,-49.7138933394369,1.12916762035547,-7.29381246662092
1580422477.20721,-54.3526359960326,-3.08232242313261,-7.72106507972831
1580422477.2112,-58.1368734264133,-8.20935378042259,-8.51453421835663
1580422477.2152,-60.8834973678188,-14.068818188754,-9.79629205767901
1580422477.21919,-62.3483634699016,-20.7217517357137,-11.505302510109
1580422477.22318,-62.3483634699016,-28.2902265964751,-13.3974212252995
1580422477.22718,-60.9445334554055,-36.9573510337989,-15.3505760280766
1580422477.23117,-58.2589456015869,-46.6620889600977,-17.3647669184404
1580422477.23516,-54.3526359960326,-57.2213321126117,-19.2568856336309
1580422477.23916,-49.4087129015031,-68.5740444037538,-20.5996795605402
1580422477.24315,-43.9765011062791,-79.9877927824825,-21.4541847867551
1580422477.24714,-38.4222171358817,-90.9132524605172,-21.8814373998625
1580422477.25114,-32.6848249027239,-100.862134737163,-21.8204013122759
1580422477.25513,-27.191577019913,-109.65133134966,-21.0879682612344
1580422477.25912,-21.3931486991683,-116.731517509728,-19.5620660715647
1580422477.26311,-15.4116121156633,-122.407873655299,-17.2426947432668
1580422477.26711,-8.69764248111687,-126.37521934844,-14.6181429770352
1580422477.2711,-1.0681315327688,-128.938735027085,-10.955977721828
1580422477.27509,7.47692072938116,-130.464637216754,-6.5003433279926
1580422477.27909,16.1440451667047,-131.563286793317,-1.25123979552905
1580422477.28308,24.0787365529868,-133.272297245747,4.05889982452118
1580422477.28708,30.7927061875332,-136.018921187152,9.55214770733187
1580422477.29107,36.0418097199968,-140.4135194934,14.8622873273823
1580422477.29506,39.3987945372701,-147.005416952773,19.3789578088044
1580422477.29905,40.1312275883115,-157.13740749218,23.2852674143587
1580422477.30305,38.7273975738153,-169.954985885405,25.8487830930037
1580422477.30704,36.2859540703439,-184.237430380713,27.191577019913
1580422477.31104,34.9431601434346,-197.909514000153,27.3746852826732
1580422477.31503,36.4080262455175,-210.910200656138,26.8253604943923
1580422477.31902,40.802624551766,-225.49782558938,25.6046387426566
1580422477.32302,45.929655909056,-240.512703135729,24.1397726405737
1580422477.32701,49.7749294270234,-257.785915922789,22.4917982757304
1580422477.331,52.6436255436024,-282.383459220264,21.4541847867551
1580422477.33499,56.7330434119172,-315.098802166781,22.1866178377966
1580422477.33898,61.1276417181657,-345.738918135348,26.0318913557639
1580422477.34298,54.2305638208591,-357.152666514077,32.8679331654839
1580422477.34697,31.5251392385746,-332.494087129015,38.239108873121
1580422477.35097,4.66926070038903,-284.824902723735,40.802624551766
1580422477.35496,-13.8246738384069,-228.73273823148,43.8544289311053
1580422477.35895,-16.3881895170518,-177.8286411841,49.5918211642634
1580422477.36295,-6.68345159075307,-146.456092164492,56.6720073243305
1580422477.36694,6.80552376592664,-134.187838559548,60.456244754711
1580422477.37093,19.2568856336309,-138.582436865797,57.648584725719
1580422477.37493,32.1355001144425,-150.911726558327,49.3476768139162
1580422477.37892,51.7891203173876,-158.66330968185,38.6053253986418
1580422477.38291,81.2695506218051,-159.090562294957,27.3746852826732
1580422477.38691,117.83016708629,-153.047989623865,15.9609369039445
1580422477.3909,151.644159609369,-140.962844281682,4.30304417486832
1580422477.39489,169.344625009537,-123.994811932555,-6.56137941557949
1580422477.39889,163.546196688792,-106.355382619974,-13.5805294880597
1580422477.40288,138.033112077516,-91.3405050736246,-16.1440451667047
1580422477.40687,100.862134737164,-82.0019836728466,-15.6557564660104
1580422477.41087,61.7990386816205,-81.025406271458,-12.4208438239109
1580422477.41489,29.1447318226901,-86.3965819790951,-6.37827115281902
1580422477.41888,8.51453421835663,-91.6456855115587,2.22781719691761
1580422477.42287,1.0070954451819,-93.5378042267489,12.4818799114976
1580422477.42687,2.7771419851988,-94.2702372777906,23.1631952391851
1580422477.43086,7.96520943007545,-95.9182116426339,33.9055466544594
1580422477.43485,11.505302510109,-98.9089799343863,44.8310063324939
1580422477.43885,11.3832303349354,-101.838712138552,54.2305638208591
1580422477.44284,8.88075074387734,-103.425650415808,56.9161516746776
1580422477.44683,4.66926070038903,-104.34119172961,58.5030899519338
1580422477.45083,2.22781719691761,-103.852903028916,58.8082703898676
1580422477.45482,4.97444113832307,-102.327000839246,58.8082703898676
1580422477.45881,12.664988174258,-100.129701686122,57.2213321126114
1580422477.46281,22.1255817502097,-97.6882581826505,54.3526359960324
1580422477.4668,29.755092698558,-94.6364538033113,50.7515068284119
1580422477.47079,33.2341496910046,-91.279468986038,46.6010528725108
1580422477.47479,32.0134279392689,-87.9224841687646,42.1454184786753
1580422477.47878,26.1539635309375,-84.3823910887311,37.4456397344929
1580422477.48278,16.5712977798123,-80.5371175707637,32.9289692530708
1580422477.48677,4.30304417486832,-76.2035553521018,28.5343709468223
1580422477.49076,-9.67421988250544,-71.2596322575723,24.4449530785075
1580422477.49475,-24.6890974288547,-65.8884565499352,20.7827878233004
1580422477.49874,-41.168841077287,-60.8834973678188,17.5478751812009
1580422477.50274,-59.9069199664302,-56.6720073243305,14.8012512397954
1580422477.50673,-80.7812619211109,-53.9864194705119,12.664988174258
1580422477.51073,-102.876325627527,-52.2163729304953,11.0780498970016
1580422477.51472,-124.788281071183,-50.8125429159991,10.5287251087204
1580422477.51871,-145.17433432517,-49.2256046387427,11.3221942473488
1580422477.5227,-163.302052338445,-47.3334859235524,12.7260242618447
1580422477.5267,-178.805218585489,-44.7089341573205,15.3505760280766
1580422477.53069,-191.866941329061,-40.9246967269398,18.646524757763
1580422477.53469,-202.548256656748,-36.4080262455177,21.9424734874494
1580422477.53868,-210.543984130617,-31.0368505378804,25.2384222171358
1580422477.54267,-215.2437628748,-24.9942778667887,28.2291905088882
1580422477.54667,-216.037232013428,-19.0737773708704,30.7927061875332
1580422477.55066,-212.375066758221,-13.0922407873654,33.2341496910046
1580422477.55465,-204.806591897459,-6.74448767833974,35.5535210193025
1580422477.55865,-193.514915693904,-0.152590218966907,37.9949645227739
1580422477.56264,-179.53765163653,6.37827115281902,40.1922636758982
1580422477.56663,-162.935835812925,12.6039520866711,42.3895628290225
1580422477.57063,-144.380865186542,18.8296330205233,44.8920424200808
1580422477.57465,-123.750667582208,24.8111696040282,47.5776302738993
1580422477.57864,-101.472495613031,30.7927061875332,50.9956511787591
1580422477.58263,-77.6684214541847,36.6521705958646,55.2071412222476
1580422477.58663,-53.1319142442969,42.6947432669565,59.7848477912562
1580422477.59062,-29.5109483482108,48.6152437628748,64.7898069733733
1580422477.59461,-7.72106507972831,54.0474555580986,69.9168383306633
1580422477.59861,11.0780498970016,58.747234302281,74.555580987259
1580422477.6026,26.5812161440451,62.0431830319676,78.5839627679866
1580422477.60659,37.6287479972532,63.9353017471581,81.2085145342185
1580422477.61059,44.6478980697336,64.2404821850923,82.4902723735408
1580422477.61458,48.493171587701,63.8742656595714,82.0019836728466
1580422477.61857,51.4839398794534,63.752193484398,80.1709010452432
1580422477.62257,54.7188525215533,64.4846265354395,77.607385366598
1580422477.62656,58.4420538643471,66.2546730754561,74.6166170748456
1580422477.63055,61.4328221560995,68.4519722285804,71.7479209582666
1580422477.63455,62.7145799954224,69.3064774547952,69.1233691920352
1580422477.63854,61.066605630579,69.062333104448,66.8650339513238
1580422477.64253,56.2447547112229,67.6585030899523,65.2170595864809
1580422477.64653,48.5542076752877,65.5832761120014,63.9353017471581
1580422477.65052,39.5819028000303,63.14183260853,63.0807965209433
1580422477.65451,31.5861753261615,61.1276417181657,62.4093995574881
1580422477.6585,26.5812161440451,59.8458838788433,62.4704356450748
1580422477.6625,25.1773861295489,59.357595178149,62.8976882581828
1580422477.66649,27.7409018081939,59.7238117036695,63.6911573968109
1580422477.67048,33.4172579537651,60.6393530174714,64.7898069733733
1580422477.67448,41.0467689021132,62.1652552071409,65.6443121995881
1580422477.67847,49.2256046387424,63.9353017471581,66.55985351339
1580422477.68246,56.6720073243305,65.2170595864809,66.9871061264976
1580422477.68646,62.6535439078357,65.2170595864809,66.9260700389109
1580422477.69045,66.6208896009766,64.301518272679,66.4377813382166
1580422477.69444,68.879224841688,62.9587243457695,65.3391317616542
1580422477.69844,69.0012970168614,60.8224612802319,63.4470130464638
1580422477.70243,67.0481422140842,57.7706569008924,60.7614251926448
1580422477.70643,62.7145799954224,53.9253833829248,56.9161516746776
1580422477.71042,55.5123216601814,49.042496375982,51.911192492561
1580422477.71441,46.6010528725108,43.6713206683451,45.6855115587089
1580422477.71841,37.2625314717325,37.2625314717325,38.7273975738153
1580422477.7224,28.1681544213016,29.755092698558,31.6472114137482
1580422477.72639,19.195849546044,20.7827878233004,24.7501335164416
1580422477.73039,9.67421988250544,11.3221942473488,17.9140917067216
1580422477.73441,-0.152590218966907,1.8616006713969,11.0780498970016
1580422477.7384,-7.84313725490188,-7.66002899214163,4.48615243762879
1580422477.74239,-11.810482948043,-16.2050812542916,-1.9226367589838
1580422477.74639,-12.4208438239109,-21.210040436408,-7.7821011673152
1580422477.75038,-11.1390859845883,-20.4165712977797,-12.4818799114976
1580422477.75437,-8.45349813076973,-11.2611581597619,-15.1064316777295
1580422477.75837,-2.22781719691761,7.04966811627378,-14.923323414969
1580422477.76236,11.7494468604561,32.3796444647896,-11.2001220721752
1580422477.76635,36.9573510337987,58.1368734264133,-3.26543068589308
1580422477.77035,72.846570534829,77.4853131914247,9.91836423285258
1580422477.77434,112.275883115892,85.5420767528803,28.5954070344089
1580422477.77833,143.282215609979,83.1616693369956,50.9956511787591
1580422477.78233,155.550469214923,73.5179674982837,72.480354009308
1580422477.78632,144.441901274128,58.8693064774548,88.5938811322194
1580422477.79031,110.139620050355,41.8402380407415,95.9182116426337
1580422477.79431,59.1744869153886,25.7267109178301,94.3312733653775
1580422477.7983,1.61745632104976,14.068818188754,86.3355458915084
1580422477.80229,-51.3008316166934,7.72106507972831,76.0204470893418
1580422477.80629,-89.1432059205003,5.52376592660403,66.1936369878695
1580422477.81028,-106.721599145495,3.81475547417404,58.6861982146943
1580422477.81427,-107.148851758602,-2.22781719691761,54.4747081712062
1580422477.81826,-96.2844281681546,-12.4208438239109,51.2397955291062
1580422477.82226,-77.9736018921187,-17.4258030060273,45.8075837338824
1580422477.82625,-57.2213321126117,-11.0780498970016,36.9573510337987
1580422477.83024,-38.7884336614025,1.9226367589838,25.6046387426566
1580422477.83424,-24.2618448157473,15.777828641184,13.214312962539
1580422477.83823,-13.0922407873654,27.4357213702601,1.43434805828952
1580422477.84222,-3.75371938658736,35.3093766689553,-9.73525597009234
1580422477.84622,5.6458381017776,39.8260471503775,-20.2944991226061
1580422477.85021,17.4258030060273,41.9623102159151,-29.9992370489051
1580422477.8542,33.7834744792858,41.8402380407415,-39.2767223620967
1580422477.8582,55.3902494850076,40.4974441138322,-47.2724498359655
1580422477.86219,81.0864423590451,38.9715419241625,-53.3760585946441
1580422477.86618,107.820248722057,39.093614099336,-57.1602960250248
1580422477.87018,130.403601129168,42.6337071793696,-58.3810177767605
1580422477.87417,144.747081712062,50.0190737773705,-57.3434042877852
1580422477.87817,148.897535667963,61.4938582436862,-54.7188525215533
1580422477.88216,144.319829098955,75.1659418631266,-51.0566872663462
1580422477.88615,134.370946822309,88.2276646066989,-46.1127641718167
1580422477.89015,122.346837567712,97.566186007477,-39.3987945372703
1580422477.89413,110.078583962768,101.655603875792,-29.9992370489051
1580422477.89813,97.1389333943694,100.434882124056,-16.632333867399
1580422477.90212,83.0395971618223,95.7351033798736,-0.762951094834762
1580422477.90611,66.3157091630428,89.5094224460213,14.4350347142747
1580422477.91011,45.5634393835353,82.3682001983675,26.2760357061111
1580422477.9141,22.064545662623,74.4335088120852,33.5393301289387
1580422477.91809,-2.28885328450451,66.6208896009766,36.6521705958646
1580422477.92209,-24.8111696040282,59.7238117036695,36.8352788586251
1580422477.92608,-43.4271763179981,53.4370946822305,35.3704127565422
1580422477.93008,-57.2823682001983,47.5776302738993,33.4782940413518
1580422477.93407,-66.2546730754559,43.1219958800639,31.9523918516823
1580422477.93806,-71.5037766079195,40.5584802014189,31.1589227130539
1580422477.94206,-74.0062561989776,40.8636606393529,30.8537422751201
1580422477.94605,-74.0672922865645,44.8310063324939,31.0368505378804
1580422477.95004,-71.9920653086137,51.3008316166934,30.7316700999465
1580422477.95404,-68.3299000534066,58.747234302281,30.1823453116654
1580422477.95803,-63.4470130464638,66.0715648126957,29.2668039978637
1580422477.96202,-57.8316929884795,72.3582818341347,28.2291905088882
1580422477.96602,-51.1177233539331,77.424277103838,26.7032883192187
1580422477.97001,-43.5492484931717,81.4526588845656,24.9332417792018
1580422477.97403,-34.8210879682613,84.3823910887313,23.0411230640116
1580422477.97802,-24.4449530785075,87.5562676432442,20.9658960860609
1580422477.98202,-12.5429159990845,91.0963607232779,18.9517051956968
1580422477.98601,-0.213626306553806,94.3312733653775,16.937514305333
1580422477.99,11.2001220721752,97.4441138323036,15.1064316777295
1580422477.994,20.5996795605402,100.007629510948,13.3974212252995
1580422477.99799,28.1071183337147,101.594567788205,12.2377355611504
1580422478.00198,33.6003662165253,102.327000839246,11.6884107728695
1580422478.00598,37.4456397344929,102.693217364767,11.505302510109
1580422478.00997,40.802624551766,103.181506065461,11.810482948043
1580422478.01396,43.9154650186922,104.15808346685,12.2987716487373
1580422478.01796,47.6997024490729,106.05020218204,12.9091325246052
1580422478.02195,52.4605172808419,108.308537422751,13.5805294880597
1580422478.02594,57.4044403753719,110.688944838636,14.2519264515145
1580422478.02994,61.9211108567938,113.130388342107,14.9843595025559
1580422478.03393,65.3391317616542,114.961470969711,15.5947203784237
1580422478.03793,66.4377813382166,116.182192721446,16.1440451667047
1580422478.04192,65.0949874113071,116.731517509728,16.4492256046387
1580422478.04591,60.5783169298847,117.036697947662,16.7544060425726
1580422478.04991,53.3150225070572,117.341878385595,16.3881895170518
1580422478.05389,43.7933928435186,116.792553597315,15.3505760280766
1580422478.05789,33.6003662165253,115.205615320058,13.7026016632333
1580422478.06188,24.1397726405737,113.191424429694,12.0546272983902
1580422478.06587,15.0453955901426,111.482413977264,10.7118333714809
1580422478.06987,7.53795681696806,109.163042648966,8.6366063935302
1580422478.07386,2.41092545967808,106.111238269627,5.76791027695117
1580422478.07785,-1.12916762035547,102.876325627527,5.03547722590974
1580422478.08185,-3.87579156176093,101.533531700618,5.09651331349664
1580422478.08584,-5.58480201419093,101.045242999924,2.7161058976119
1580422478.08983,-5.6458381017776,100.679026474403,-8.27038986800949
1580422478.09383,-4.7913328755626,99.8245212481879,-15.5947203784237
1580422478.09782,-6.92759594110021,102.815289539941,-11.6273746852826
1580422478.10182,-11.9325551232166,107.515068284123,-9.30800335698473
1580422478.10581,-16.632333867399,104.585336079957,-9.00282291905091
1580422478.1098,-21.0269321736475,103.364614328222,-4.36408026245522
1580422478.1138,-24.6890974288547,105.378805218586,-2.7161058976119
1580422478.11779,-25.9708552681773,105.378805218586,-3.14335851071951
1580422478.12178,-25.2994583047225,105.928130006866,-3.63164721141379
1580422478.12578,-23.8345922026397,108.308537422751,-3.93682764934761
1580422478.12977,-22.7969787136644,110.627908751049,-4.05889982452118
1580422478.13382,-22.4917982757304,113.008316166934,-3.63164721141379
1580422478.13781,-22.613870450904,115.632867933165,-2.83817807278547
1580422478.14181,-22.7359426260775,117.463950560769,-1.19020370794237
1580422478.1458,-22.6749065384909,118.501564049745,1.0070954451819
1580422478.14979,-23.2242313267718,118.196383611811,4.18097199969475
1580422478.15379,-25.7877470054168,117.586022735943,7.59899290455473
1580422478.15778,-29.9992370489051,117.402914473182,10.7118333714809
1580422478.16177,-35.3704127565425,117.036697947662,13.5805294880597
1580422478.16577,-40.7415884641796,115.938048371099,16.0219729915311
1580422478.16976,-45.9906919966431,113.130388342107,17.9751277943083
1580422478.17375,-50.7515068284124,108.918898298619,19.7451743343252
1580422478.17775,-54.9629968719005,104.463263904784,21.5762569619287
1580422478.18174,-58.0148012512398,99.7024490730146,22.919050888838
1580422478.18573,-59.1134508278019,95.0637064164189,24.0177004654001
1580422478.18973,-57.5875486381324,91.279468986038,24.628061341268
1580422478.19372,-52.8877698939498,88.9600976577403,24.8111696040282
1580422478.19772,-44.5258258945603,88.2887006942856,24.322880903334
1580422478.20171,-33.6614023041125,88.7159533073932,23.2852674143587
1580422478.2057,-20.8438239108873,89.6314946211951,21.5762569619287
1580422478.2097,-7.29381246662092,90.2418554970627,19.3789578088044
1580422478.21368,5.76791027695117,89.5094224460213,16.5102616922254
1580422478.21768,17.2426947432668,87.3731593804837,13.3363851377126
1580422478.22167,26.6422522316318,83.5278858625165,9.97940032043948
1580422478.22566,34.027618829633,78.6449988555737,6.86655985351331
1580422478.22966,40.3143358510717,72.7855344472423,4.24200808728165
1580422478.23365,45.2582589456015,66.6819256885638,2.10574502174404
1580422478.23764,49.1035324635691,60.7003891050581,0.213626306553806
1580422478.24164,51.4229037918667,55.4512855725948,-1.12916762035547
1580422478.24563,51.5449759670405,50.9346150911724,-2.34988937209118
1580422478.24962,49.4697489890896,46.6620889600974,-3.02128633554594
1580422478.25362,45.7465476462958,43.1219958800639,-3.69268329900046
1580422478.25761,40.9857328145265,39.948119325551,-3.87579156176093
1580422478.26161,36.0418097199968,36.9573510337987,-3.93682764934761
1580422478.2656,31.5251392385746,34.4548714427403,-3.99786373693451
1580422478.26959,27.6188296330204,32.4406805523765,-3.99786373693451
1580422478.27359,23.9566643778132,30.7927061875332,-3.87579156176093
1580422478.27758,20.8438239108873,29.9382009613182,-3.75371938658736
1580422478.28157,18.9517051956968,29.5109483482108,-3.99786373693451
1580422478.28557,18.2192721446554,29.0836957351032,-4.30304417486832
1580422478.28956,18.2192721446554,28.046082246128,-4.54718852521546
1580422478.29355,18.8296330205233,26.5812161440451,-4.7913328755626
1580422478.29754,19.6841382467383,24.9942778667887,-4.97444113832307
1580422478.30153,20.2334630350194,23.1021591515982,-5.52376592660403
1580422478.30553,21.3931486991683,20.9658960860609,-6.37827115281902
1580422478.30952,22.8580148012511,18.5244525825894,-6.92759594110021
1580422478.31352,24.9942778667887,16.0219729915311,-7.59899290455473
1580422478.31751,27.8019378957808,13.6415655756466,-8.20935378042259
1580422478.3215,30.9147783627068,11.2001220721752,-8.5755703059433
1580422478.3255,34.3327992675668,8.51453421835663,-8.75867856870377
1580422478.32949,37.0794232089722,5.6458381017776,-8.75867856870377
1580422478.33348,38.7884336614022,2.83817807278547,-8.75867856870377
1580422478.33748,39.2767223620965,0.396734569314049,-8.69764248111687
1580422478.34147,38.8494697489889,-1.43434805828952,-8.6366063935302
1580422478.34546,37.9949645227739,-2.83817807278547,-8.6366063935302
1580422478.34946,37.0183871213853,-3.44853894865332,-8.45349813076973
1580422478.35345,35.7976653696496,-2.7771419851988,-8.08728160524902
1580422478.35744,34.8210879682611,-1.19020370794237,-7.7821011673152
1580422478.36144,33.7224383916989,0.213626306553806,-7.17174029144735
1580422478.36543,32.6848249027237,0.823987182421661,-6.43930724040592
1580422478.36942,32.0744640268558,0.091554131380235,-5.82894636453807
1580422478.37344,31.7082475013351,-2.04470893415737,-5.15754940108332
1580422478.37744,32.1355001144425,-5.09651331349664,-4.60822461280236
1580422478.38143,32.9900053406575,-8.6366063935302,-3.99786373693451
1580422478.38542,34.3938353551537,-12.7870603494316,-3.63164721141379
1580422478.38942,36.1028458075837,-17.9140917067216,-3.32646677347975
1580422478.39341,37.9949645227739,-23.9566643778132,-3.14335851071951
1580422478.3974,40.0701915007246,-30.4264896620125,-3.32646677347975
1580422478.4014,42.1454184786753,-37.0183871213856,-4.05889982452118
1580422478.40539,44.0375371938658,-43.6713206683453,-5.03547722590974
1580422478.40938,45.8686198214693,-50.6294346532388,-6.37827115281902
1580422478.41338,47.5776302738993,-58.0148012512398,-8.02624551766235
1580422478.41737,48.7983520256348,-65.8274204623483,-10.1625085831997
1580422478.42137,49.4697489890896,-73.6400396734568,-12.7260242618447
1580422478.42536,49.2866407263291,-81.879911497673,-15.4726482032502
1580422478.42935,48.493171587701,-90.8522163729303,-18.4634164950025
1580422478.43335,46.1738002594032,-100.434882124056,-21.6983291371023
1580422478.43734,41.0467689021132,-110.322728313115,-25.1163500419623
1580422478.44133,33.7224383916989,-120.698863202869,-29.3888761730373
1580422478.44533,24.4449530785075,-132.417792019532,-34.2717631799803
1580422478.44932,14.3129625391011,-145.906767376211,-39.765011062791
1580422478.45331,5.03547722590974,-162.08133058671,-45.3192950331884
1580422478.4573,-0.946059357595232,-180.270084687572,-51.0566872663462
1580422478.46129,-2.89921416037237,-196.993972686351,-57.0992599374381
1580422478.46529,-1.9226367589838,-209.872587167162,-63.630121309224
1580422478.46928,0.396734569314049,-219.699397268635,-70.2830548561838
1580422478.47327,3.08232242313261,-225.192645151446,-76.9359884031433
1580422478.47727,8.14831769283592,-228.183413443198,-82.9175249866482
1580422478.48126,17.4258030060273,-230.80796520943,-87.5562676432439
1580422478.48526,29.5109483482108,-233.920805676356,-90.424963759823
1580422478.48925,41.1688410772867,-235.93499656672,-91.2184328984511
1580422478.49324,52.7656977187762,-232.3338673991,-89.5094224460211
1580422478.49724,67.6585030899523,-225.009536888685,-84.9317158770123
1580422478.50123,87.0679789425499,-217.563134203097,-77.302204928664
1580422478.50522,108.735790035859,-208.651865415427,-66.8039978637369
1580422478.50922,128.206301976044,-198.580910963607,-54.4747081712062
1580422478.51321,140.474555580987,-188.570992599374,-42.023346303502
1580422478.5172,140.596627756161,-178.255893797208,-30.5485618371861
1580422478.5212,126.5583276112,-167.696650644694,-20.5386434729533
1580422478.52519,101.960784313726,-158.175020981155,-11.0780498970016
1580422478.52918,73.9452201113909,-150.66758220798,-1.73952849622333
1580422478.5332,49.5918211642634,-144.747081712062,7.04966811627378
1580422478.5372,32.1355001144425,-139.864194705119,13.5805294880597
1580422478.54119,22.3697261005568,-137.117570763714,17.1206225680933
1580422478.54518,20.050354772259,-138.033112077516,17.3647669184404
1580422478.54918,22.7969787136644,-142.610818646525,15.6557564660104
1580422478.55317,26.2760357061111,-149.080643930724,13.2753490501259
1580422478.55716,25.8487830930037,-155.367360952163,11.505302510109
1580422478.56116,19.1348134584573,-160.189211871519,10.3456168459602
1580422478.56515,6.98863202868688,-162.569619287404,9.30800335698473
1580422478.56914,-7.53795681696806,-162.142366674296,8.14831769283592
1580422478.57314,-20.2944991226061,-159.456778820478,7.11070420386045
1580422478.57713,-28.7785152971694,-155.367360952163,6.92759594110021
1580422478.58113,-32.0134279392691,-150.423437857633,7.66002899214163
1580422478.58512,-31.4641031509882,-145.662623025864,8.33142595559616
1580422478.58911,-29.4499122606239,-142.000457770657,8.45349813076973
1580422478.5931,-27.8629739833675,-139.803158617533,7.66002899214163
1580422478.5971,-27.5577935454337,-139.497978179599,6.07309071488521
1580422478.60109,-27.9850461585411,-141.145952544442,3.75371938658736
1580422478.60509,-28.2902265964751,-143.953612573434,0.213626306553806
1580422478.60908,-27.4967574578468,-146.700236514839,-4.05889982452118
1580422478.61307,-25.2994583047225,-148.470283054856,-9.00282291905091
1580422478.61706,-21.6983291371023,-149.019607843137,-13.9467460135804
1580422478.62105,-17.3037308308537,-148.043030441749,-18.5854886701761
1580422478.62505,-12.9091325246052,-145.906767376211,-22.613870450904
1580422478.62904,-9.4911116197452,-142.488746471351,-25.8487830930037
1580422478.63303,-6.68345159075307,-138.948653391318,-28.3512626840618
1580422478.63703,-4.73029678797593,-135.774776836805,-30.1823453116654
1580422478.64102,-3.26543068589308,-133.028152895399,-31.3420309758146
1580422478.64502,-1.98367284657047,-130.464637216754,-32.074464026856
1580422478.64901,-0.885023270008332,-128.023193713283,-32.1965362020296
1580422478.653,0.213626306553806,-125.398641947051,-32.0134279392691
1580422478.657,1.67849240863666,-123.018234531167,-31.6472114137484
1580422478.66099,3.44853894865332,-120.271610589761,-31.0978866254673
1580422478.66498,5.27962157625689,-117.524986648356,-30.7316700999465
1580422478.66898,6.74448767833974,-114.534218356603,-30.1823453116654
1580422478.67297,7.72106507972831,-111.421377889677,-29.9382009613182
1580422478.67696,8.08728160524902,-107.75921263447,-29.6330205233844
1580422478.68096,7.66002899214163,-103.913939116503,-29.0836957351032
1580422478.68495,6.25619897764545,-99.4583047226674,-28.6564431219958
1580422478.68894,3.44853894865332,-94.6364538033113,-27.8629739833675
1580422478.69293,-0.274662394140478,-89.4483863584344,-27.0695048447394
1580422478.69692,-5.27962157625689,-84.0772106507973,-26.2149996185244
1580422478.70092,-11.6273746852826,-77.4853131914244,-25.1773861295489
1580422478.70491,-19.6231021591516,-69.916838330663,-23.8956282902266
1580422478.70891,-29.0226596475165,-62.5925078202488,-22.5528343633173
1580422478.7129,-40.3753719386589,-56.1837186236362,-21.1490043488211
1580422478.71689,-53.437094682231,-50.8125429159991,-19.2568856336309
1580422478.72089,-68.3299000534066,-46.0517280842298,-17.1816586556802
1580422478.72488,-84.9927519645989,-41.8402380407417,-14.9843595025559
1580422478.72887,-103.730830853742,-38.3611810482948,-12.4208438239109
1580422478.73287,-123.872739757382,-35.187304493782,-9.79629205767901
1580422478.73686,-144.869153887236,-32.1965362020296,-6.62241550316617
1580422478.74085,-165.621423666743,-29.4499122606239,-2.89921416037237
1580422478.74485,-184.66468299382,-26.2760357061111,1.43434805828952
1580422478.74884,-200.778210116732,-22.4307621881437,6.07309071488521
1580422478.75283,-213.595788509956,-18.1582360570687,11.5663385976959
1580422478.75683,-222.323949034867,-13.214312962539,17.0595864805066
1580422478.76082,-226.230258640421,-7.7821011673152,22.0035095750361
1580422478.76481,-224.032959487297,-1.67849240863666,26.2760357061111
1580422478.76881,-213.351644159609,5.46272983901736,29.3278400854504
1580422478.77283,-193.02662699321,14.8012512397954,31.4030670634011
1580422478.77682,-163.241016250858,26.7032883192187,32.5627527275501
1580422478.78081,-124.971389333944,40.3753719386586,33.7834744792858
1580422478.78481,-80.5981536583504,54.7188525215533,35.2483405813687
1580422478.7888,-32.5627527275503,68.1467917906466,37.2625314717325
1580422478.79279,16.8764782177461,79.4384679942018,39.948119325551
1580422478.79679,65.0949874113071,87.8004119935913,43.1219958800639
1580422478.80078,109.407186999314,93.1715877012284,47.0283054856181
1580422478.80477,148.226138704509,95.1857785915922,52.2163729304948
1580422478.80877,181.124589913786,93.4767681391622,58.197909514
1580422478.81276,208.957045853361,89.1432059205008,65.0949874113071
1580422478.81675,233.310444800488,82.9175249866485,72.6024261844818
1580422478.82075,254.673075455863,75.2880140383004,80.1098649576566
1580422478.82474,271.702143892576,67.2922865644314,87.0679789425499
1580422478.82874,279.331654840925,60.5172808422976,92.2560463874265
1580422478.83273,270.969710841535,56.7330434119172,95.1857785915922
1580422478.83672,240.085450522622,57.1602960250248,94.2702372777908
1580422478.84072,183.932249942779,59.6017395284962,88.5938811322194
1580422478.84471,106.660563057908,58.5641260395205,78.9501792935075
1580422478.8487,20.1113908598459,50.202182040131,67.1091783016709
1580422478.85269,-60.212100404364,35.5535210193025,55.7564660105286
1580422478.85668,-121.980621042191,18.0361638818952,45.4413672083617
1580422478.86068,-159.639887083238,-0.091554131380235,36.530098420691
1580422478.86467,-174.288548104067,-15.5336842908368,29.8161287861446
1580422478.86866,-171.053635461967,-25.3604943923094,24.8722056916151
1580422478.87266,-156.038757915617,-27.0084687571525,21.0879682612344
1580422478.87665,-134.981307698177,-20.5386434729533,17.9751277943083
1580422478.88065,-112.336919203479,-8.51453421835663,15.1674677653161
1580422478.88464,-90.7301441977568,5.21858548867021,12.4208438239109
1580422478.88863,-70.8934157320516,17.0595864805066,9.79629205767901
1580422478.89263,-52.7046616311895,25.2994583047225,7.11070420386045
1580422478.89662,-34.6990157930877,28.7174792095825,3.93682764934761
1580422478.90061,-15.7167925535973,26.7032883192187,1.12916762035547
1580422478.90461,5.27962157625689,19.195849546044,-1.8616006713969
1580422478.9086,27.3746852826732,7.47692072938116,-4.73029678797593
1580422478.91259,48.0048828870067,-6.92759594110021,-7.53795681696806
1580422478.91659,65.5222400244147,-22.0035095750361,-10.1625085831997
1580422478.92058,78.4618905928132,-36.346990157931,-12.2987716487373
1580422478.92457,86.4576180666822,-48.8593881132219,-14.0077821011673
1580422478.92857,90.4859998474099,-58.3199816891738,-14.8012512397954
1580422478.93259,90.6080720225837,-64.3015182726788,-14.6181429770352
1580422478.93658,86.152437628748,-65.339131761654,-13.519493400473
1580422478.94057,76.6308079652094,-61.1886778057526,-11.5663385976959
1580422478.94457,63.2028686961166,-52.0943007553217,-8.75867856870377
1580422478.94856,45.8075837338824,-38.7884336614025,-4.7913328755626
1580422478.95255,24.8111696040282,-20.6607156481268,0.51880674448762
1580422478.95655,2.34988937209118,3.69268329900046,7.47692072938116
1580422478.96054,-18.0361638818952,32.2575722896161,15.8999008163576
1580422478.96453,-32.0134279392691,59.9679560540167,25.482566567483
1580422478.96853,-36.8352788586253,83.4058136873427,35.7976653696496
1580422478.97252,-31.5251392385749,100.373846036469,45.8075837338824
1580422478.97651,-16.2661173418783,109.407186999314,55.2681773098343
1580422478.98051,6.19516289005878,110.444800488289,63.6301213092243
1580422478.9845,29.5109483482108,104.646372167544,70.2830548561838
1580422478.98849,45.2582589456015,95.2468146791794,74.555580987259
1580422478.99249,48.0659189745934,84.9317158770123,75.898374914168
1580422478.99648,35.7366292820629,75.7763027389947,74.8607614251928
1580422479.00048,8.14831769283592,68.2688639658199,72.846570534829
1580422479.00447,-31.6472114137484,62.7145799954224,70.0999465934237
1580422479.00846,-77.1190966659037,59.2965590905619,65.8274204623485
1580422479.01245,-115.510795757992,55.5733577477681,60.3341725795376
1580422479.01644,-135.713740749218,48.5542076752877,54.2305638208591
1580422479.02044,-135.896849011978,38.3001449607079,48.5542076752877
1580422479.02443,-123.811703669795,28.9616235599296,43.0609597924772
1580422479.02842,-110.322728313115,22.3697261005568,37.384603646906
1580422479.03242,-102.44907301442,19.3789578088044,30.7927061875332
1580422479.03641,-103.242542153048,21.0269321736475,22.613870450904
1580422479.04041,-111.482413977264,26.2760357061111,12.8480964370183
1580422479.0444,-123.445487144274,33.0510414282444,2.53299763485165
1580422479.04839,-134.798199435416,40.0701915007246,-7.11070420386045
1580422479.05239,-140.962844281682,46.4789806973372,-15.0453955901426
1580422479.05638,-139.559014267185,51.6060120546272,-20.355535210193
1580422479.06037,-129.671168078126,54.77988860914,-22.919050888838
1580422479.06437,-112.214847028305,55.9395742732891,-22.8580148012511
1580422479.06836,-88.5938811322194,55.0240329594872,-19.7451743343252
1580422479.07235,-61.4938582436866,52.9488059815362,-13.9467460135804
1580422479.07635,-34.0886549172199,50.7515068284119,-5.82894636453807
1580422479.08034,-9.24696726939806,48.6152437628748,3.87579156176093
1580422479.08433,11.2001220721752,47.8217746242465,13.6415655756466
1580422479.08833,26.8253604943923,49.042496375982,22.064545662623
1580422479.09235,38.7884336614022,53.07087815671,28.046082246128
1580422479.09634,49.1035324635691,60.456244754711,31.7082475013351
1580422479.10033,60.1510643167771,70.588235294118,33.1120775158311
1580422479.10433,74.189364461738,82.4292362859542,33.1120775158311
1580422479.10832,91.8287937743194,94.6364538033113,32.7458609903103
1580422479.11231,112.214847028305,105.195696955825,33.1120775158311
1580422479.11631,132.478828107118,113.069352254521,33.9665827420461
1580422479.1203,147.554741741054,116.853589684901,34.1496910048065
1580422479.12429,153.414206149386,116.060120546273,32.2575722896161
1580422479.12829,147.371633478294,111.909666590372,27.8629739833675
1580422479.13228,129.97634851606,105.012588693065,20.8438239108873
1580422479.13627,105.073624780652,96.4065003433279,12.6039520866711
1580422479.14027,77.9125658045323,87.1900511177237,4.8523689631495
1580422479.14426,52.6436255436024,78.8281071183337,-0.946059357595232
1580422479.14825,31.3420309758144,71.2596322575723,-4.05889982452118
1580422479.15225,14.1908903639276,65.5222400244147,-4.91340505073617
1580422479.15624,1.31227588311594,62.2262912947276,-3.75371938658736
1580422479.16024,-7.29381246662092,61.3107499809262,-1.55642023346309
1580422479.16423,-12.1766994735638,61.7380025940333,1.0681315327688
1580422479.16822,-14.923323414969,63.2639047837038,3.87579156176093
1580422479.17221,-17.1206225680933,65.461203936828,6.92759594110021
1580422479.1762,-19.195849546044,68.0247196154728,9.91836423285258
1580422479.1802,-21.210040436408,70.4051270313576,13.0922407873654
1580422479.18419,-23.0411230640116,73.0296787975894,15.9609369039445
1580422479.18818,-24.2618448157473,75.0438696879532,18.4023804074159
1580422479.19218,-24.4449530785075,77.0580605783171,20.5996795605402
1580422479.19617,-23.9566643778132,78.6449988555737,22.0035095750361
1580422479.20017,-22.4917982757304,79.9267566948961,22.9800869764247
1580422479.20416,-19.6231021591516,81.025406271458,23.5294117647059
1580422479.20815,-15.1674677653161,82.0019836728466,23.5904478522925
1580422479.21214,-9.61318379491877,82.6733806363013,23.2242313267718
1580422479.21614,-3.69268329900046,83.5278858625165,22.2476539253832
1580422479.22013,2.41092545967808,84.3823910887313,21.0269321736475
1580422479.22413,8.69764248111687,85.4810406652937,19.1348134584573
1580422479.22812,14.6181429770352,86.8238345922027,17.486839093614
1580422479.23211,20.9658960860609,88.1055924315251,14.1908903639276
1580422479.23611,27.3746852826732,88.5938811322194,10.4676890211338
1580422479.2401,33.9665827420461,89.0821698329137,3.69268329900046
1580422479.24409,39.8870832379644,89.4483863584346,-1.31227588311594
1580422479.24809,44.8920424200808,90.6691081101703,-5.03547722590974
1580422479.25207,49.9580376897839,91.6456855115589,-16.0219729915311
1580422479.25607,57.4654764629586,89.570458533608,-37.1404592965591
1580422479.26006,58.197909514,93.6598764019227,-15.5336842908368
1580422479.26406,52.5825894560157,101.594567788205,-5.03547722590974
1580422479.26805,47.5776302738993,92.1339742122532,-2.7771419851988
1580422479.27204,43.2440680552374,86.2134737163351,-2.16678110933094
1580422479.27604,38.4222171358815,87.6173037308308,-1.49538414587619
1580422479.28003,32.8679331654839,88.3497367818723,-0.70191500724809
1580422479.28402,26.5201800564582,87.4341954680708,0.457770656900948
1580422479.28802,19.2568856336309,86.0914015411613,2.10574502174404
1580422479.29201,11.3221942473488,84.7486076142523,4.05889982452118
1580422479.296,3.75371938658736,83.4668497749294,6.25619897764545
1580422479.3,-2.47196154726475,83.0395971618223,8.51453421835663
1580422479.30399,-6.98863202868688,83.3447775997561,10.5897611963073
1580422479.30798,-9.55214770733187,84.5044632639051,12.4818799114976
1580422479.31198,-10.4676890211338,86.0303654535746,13.9467460135804
1580422479.31597,-9.85732814526591,87.4952315556575,15.1674677653161
1580422479.31996,-8.20935378042259,89.2042420080875,16.083009079118
1580422479.32396,-5.40169375143046,91.0353246356908,16.8764782177461
1580422479.32795,-2.47196154726475,93.1715877012284,17.486839093614
1580422479.33197,0.51880674448762,95.1247425040056,17.9751277943083
1580422479.33596,3.38750286106665,96.7727168688489,18.2803082322423
1580422479.33996,6.43930724040592,98.2375829709317,18.5854886701761
1580422479.34395,9.61318379491877,99.2141603723203,18.646524757763
1580422479.34794,12.6039520866711,99.5193408102541,18.5854886701761
1580422479.35194,15.1064316777295,99.5193408102541,18.4634164950025
1580422479.35593,16.5102616922254,99.4583047226674,18.0971999694818
1580422479.35992,16.5102616922254,99.0310521095598,17.5478751812009
1580422479.36392,15.7167925535973,98.5427634088655,16.8154421301595
1580422479.36791,14.068818188754,97.9324025329979,16.0219729915311
1580422479.3719,12.359807736324,97.0778973067827,15.4116121156633
1580422479.3759,10.5287251087204,96.5896086060884,14.6791790646218
1580422479.37989,8.5755703059433,96.0402838178074,14.0077821011673
1580422479.38388,6.43930724040592,95.7351033798736,13.2753490501259
1580422479.38788,4.30304417486832,95.0026703288322,12.664988174258
1580422479.39187,2.53299763485165,94.0260929274436,12.359807736324
1580422479.39587,1.25123979552905,93.1715877012284,11.9325551232166
1580422479.39986,0.70191500724809,91.7067215991456,11.810482948043
1580422479.40385,0.457770656900948,90.180819409476,11.6884107728695
1580422479.40785,0.0305180437933359,88.5938811322194,11.505302510109
1580422479.41183,-0.274662394140478,86.5796902418556,11.5663385976959
1580422479.41583,-0.091554131380235,83.9551384756237,11.6884107728695
1580422479.41982,0.762951094834762,80.9033340962847,11.810482948043
1580422479.42382,2.22781719691761,77.8515297169452,11.6884107728695
1580422479.42781,4.11993591210808,75.1659418631266,11.3832303349354
1580422479.4318,6.5003433279926,72.9076066224156,11.0170138094147
1580422479.43579,9.55214770733187,71.0154879072252,10.4066529335469
1580422479.43979,13.3363851377126,69.6726939803161,9.4300755321583
1580422479.44378,17.2426947432668,68.3299000534066,8.5755703059433
1580422479.44778,20.7827878233004,66.4988174258033,7.7821011673152
1580422479.45177,23.6514839398794,63.6911573968109,6.86655985351331
1580422479.45576,25.2384222171358,60.5172808422976,6.07309071488521
1580422479.45976,25.482566567483,57.2213321126114,5.40169375143046
1580422479.46375,24.1397726405737,53.9864194705119,5.21858548867021
1580422479.46774,22.0035095750361,50.3852903028915,5.21858548867021
1580422479.47174,20.2334630350194,46.4179446097503,5.58480201419093
1580422479.47573,19.0737773708704,42.3285267414358,6.31723506523235
1580422479.47972,18.646524757763,38.5442893110551,7.17174029144735
1580422479.48372,18.5854886701761,35.6755931944761,8.14831769283592
1580422479.48771,18.7075608453497,32.5017166399632,8.88075074387734
1580422479.49173,18.7075608453497,28.8395513847561,9.4300755321583
1580422479.49572,17.8530556191347,25.1163500419623,9.61318379491877
1580422479.49972,16.3271534294652,21.4541847867551,9.30800335698473
1580422479.50371,14.7402151522087,17.9140917067216,8.5755703059433
1580422479.5077,13.3363851377126,14.068818188754,7.72106507972831
1580422479.5117,11.4442664225223,10.1014724956131,6.43930724040592
1580422479.51569,9.4300755321583,6.68345159075307,4.91340505073617
1580422479.51968,7.7821011673152,3.75371938658736,3.44853894865332
1580422479.52368,7.53795681696806,1.19020370794237,1.80056458381023
1580422479.52767,9.18593118181116,-1.19020370794237,0.335698481727377
1580422479.53166,12.1766994735638,-3.26543068589308,-1.0070954451819
1580422479.53566,15.8999008163576,-5.15754940108332,-2.10574502174404
1580422479.53965,20.4165712977797,-6.80552376592664,-3.08232242313261
1580422479.54364,25.5436026550697,-8.27038986800949,-3.69268329900046
1580422479.54764,31.0978866254673,-9.67421988250544,-4.11993591210808
1580422479.55163,36.6521705958646,-10.650797283894,-4.42511635004189
1580422479.55563,41.5350576028075,-11.0170138094147,-4.24200808728165
1580422479.55962,45.1972228580146,-11.5663385976959,-3.93682764934761
1580422479.56361,47.3945220111389,-12.8480964370183,-3.50957503624022
1580422479.56761,48.3100633249405,-14.4350347142747,-3.38750286106665
1580422479.57159,48.2490272373539,-15.777828641184,-3.50957503624022
1580422479.57559,47.7607385366596,-17.1206225680933,-4.05889982452118
1580422479.57958,47.0283054856181,-18.7685969329366,-4.66926070038903
1580422479.58357,46.0517280842296,-21.0269321736475,-5.21858548867021
1580422479.58757,45.1361867704279,-23.8345922026397,-5.6458381017776
1580422479.59156,44.4647898069732,-27.3136491950866,-6.13412680247188
1580422479.59555,43.4271763179979,-31.6472114137484,-6.98863202868688
1580422479.59955,41.9623102159151,-36.5911345082782,-8.02624551766235
1580422479.60354,39.3377584496832,-41.8402380407417,-9.30800335698473
1580422479.60753,35.3704127565422,-47.2724498359655,-10.955977721828
1580422479.61153,30.9758144502937,-52.582589456016,-13.0922407873654
1580422479.61552,27.191577019913,-57.7096208133059,-15.4116121156633
1580422479.61952,24.322880903334,-62.8976882581826,-18.0361638818952
1580422479.62351,22.613870450904,-68.207827878233,-20.904859998474
1580422479.6275,21.5152208743418,-74.0672922865645,-23.8956282902266
1580422479.6315,20.050354772259,-80.4150453955901,-27.191577019913
1580422479.63549,18.341344319829,-87.006942854963,-30.6706340123596
1580422479.63948,16.3271534294652,-93.7819485770963,-34.1496910048068
1580422479.64348,14.5571068894483,-100.862134737163,-37.3235675593196
1580422479.64747,13.1532768749523,-107.75921263447,-40.1922636758984
1580422479.65146,11.8715190356297,-114.961470969711,-42.6337071793698
1580422479.65545,9.67421988250544,-122.896162355993,-44.8310063324941
1580422479.65945,6.19516289005878,-131.929503318837,-46.5400167849241
1580422479.66344,0.823987182421661,-142.000457770657,-48.310063324941
1580422479.66743,-5.6458381017776,-152.071412222477,-49.7749294270238
1580422479.67143,-12.664988174258,-161.348897535668,-51.3618677042803
1580422479.67542,-18.7685969329366,-169.954985885405,-53.1319142442969
1580422479.67941,-23.4073395895323,-178.439002059968,-55.0850690470741
1580422479.68341,-26.3981078812847,-186.739909971771,-56.9771877622645
1580422479.6874,-28.3512626840618,-193.881132219425,-59.2355230029755
1580422479.69139,-29.755092698558,-199.923704890517,-61.5548943312733
1580422479.69539,-30.2433813992523,-205.539024948501,-63.9963378347447
1580422479.69938,-29.9992370489051,-210.788128480964,-66.2546730754559
1580422479.70337,-28.4733348592354,-215.854123750667,-67.6585030899519
1580422479.70737,-25.5436026550697,-221.225299458305,-68.0247196154726
1580422479.71136,-20.1724269474325,-224.338139925231,-67.5974670023652
1580422479.71535,-10.5287251087204,-222.934309910735,-65.9494926375219
1580422479.71935,4.73029678797593,-218.295567254139,-63.2028686961166
1580422479.72334,25.2994583047225,-211.82574196994,-59.357595178149
1580422479.72733,49.2256046387424,-204.562447547112,-54.5357442587931
1580422479.73135,74.555580987259,-197.238117036698,-49.3476768139162
1580422479.73535,97.8713664454108,-188.754100862135,-44.0985732814527
1580422479.73934,115.632867933165,-179.598687724117,-38.6663614862289
1580422479.74333,125.093461509117,-170.687418936446,-33.1731136034182
1580422479.74733,125.947966735332,-162.874799725338,-27.3746852826732
1580422479.75132,120.393682764935,-156.893263141833,-21.210040436408
1580422479.75531,110.627908751049,-152.925917448692,-14.9843595025559
1580422479.75931,98.9089799343865,-149.507896543832,-9.79629205767901
1580422479.7633,86.8238345922027,-146.028839551385,-6.5003433279926
1580422479.76729,76.1425192645152,-141.93942168307,-5.34065766384379
1580422479.77129,67.2312504768447,-137.544823376822,-5.6458381017776
1580422479.77528,59.357595178149,-134.248874647135,-6.37827115281902
1580422479.77928,51.1177233539329,-131.990539406424,-6.5003433279926
1580422479.78327,40.9246967269396,-131.136034180209,-5.40169375143046
1580422479.78726,29.3888761730373,-131.563286793317,-3.32646677347975
1580422479.79126,17.5478751812009,-133.028152895399,-0.579842832074519
1580422479.79525,7.35484855420759,-134.370946822309,1.98367284657047
1580422479.79924,-0.274662394140478,-135.164415960937,3.87579156176093
1580422479.80324,-5.03547722590974,-135.164415960937,4.66926070038903
1580422479.80723,-7.96520943007545,-134.493018997482,4.60822461280236
1580422479.81122,-9.97940032043948,-133.882658121614,4.18097199969475
1580422479.81521,-11.6884107728695,-133.57747768368,3.26543068589308
1580422479.81921,-13.8246738384069,-133.699549858854,2.16678110933094
1580422479.8232,-15.8999008163576,-133.821622034028,1.0681315327688
1580422479.82719,-17.8530556191347,-134.187838559548,-0.457770656900948
1580422479.83118,-18.9517051956968,-134.187838559548,-2.28885328450451
1580422479.83518,-19.501029983978,-134.004730296788,-4.66926070038903
1580422479.83917,-19.195849546044,-133.638513771267,-7.47692072938116
1580422479.84317,-17.9751277943083,-132.600900282292,-10.8339055466545
1580422479.84716,-15.9609369039445,-130.891889829862,-14.2519264515145
1580422479.85115,-13.214312962539,-128.389410238804,-17.6699473563745
1580422479.85515,-9.61318379491877,-125.703822384985,-20.7217517357137
1580422479.85914,-5.52376592660403,-122.95719844358,-23.4073395895323
1580422479.86313,-1.12916762035547,-120.210574502174,-25.6656748302432
1580422479.86713,3.26543068589308,-117.586022735943,-27.3136491950866
1580422479.87112,7.84313725490188,-115.083543144885,-28.2902265964751
1580422479.87511,11.9325551232166,-112.642099641413,-28.5954070344089
1580422479.87911,15.6557564660104,-110.139620050355,-28.7174792095825
1580422479.8831,18.7075608453497,-107.75921263447,-28.4733348592354
1580422479.88709,20.8438239108873,-105.256733043412,-27.8629739833675
1580422479.89111,21.8814373998625,-102.510109102007,-26.8863965819789
1580422479.89511,22.064545662623,-99.7634851606012,-25.6046387426566
1580422479.8991,20.8438239108873,-96.5285725185017,-24.0177004654001
1580422479.90309,18.2192721446554,-92.6222629129472,-22.613870450904
1580422479.90709,14.0077821011673,-88.2276646066987,-20.8438239108873
1580422479.91108,8.20935378042259,-83.2227054245823,-18.9517051956968
1580422479.91507,0.946059357595232,-77.7294575417716,-16.8764782177461
1580422479.91907,-7.84313725490188,-71.6868848706797,-14.8012512397954
1580422479.92306,-18.4634164950025,-65.0949874113069,-12.9701686121919
1580422479.92705,-30.609597924773,-58.6251621271076,-11.0780498970016
1580422479.93105,-44.2816815442131,-52.3384451056688,-9.4300755321583
1580422479.93504,-59.2355230029755,-46.4179446097505,-7.59899290455473
1580422479.93903,-74.738689250019,-41.0467689021134,-5.76791027695117
1580422479.94303,-90.2418554970625,-36.1028458075839,-3.81475547417404
1580422479.94702,-104.768444342718,-31.6472114137484,-1.8616006713969
1580422479.95102,-117.524986648356,-27.4967574578468,0.213626306553806
1580422479.95501,-128.145265888457,-23.2242313267718,2.53299763485165
1580422479.959,-136.81239032578,-18.8296330205233,5.09651331349664
1580422479.963,-143.709468223087,-14.2519264515145,8.20935378042259
1580422479.96699,-148.897535667964,-9.24696726939806,11.8715190356297
1580422479.97098,-152.132448310063,-4.05889982452118,15.8388647287709
1580422479.97497,-152.986953536278,1.73952849622333,20.050354772259
1580422479.97896,-151.522087434195,7.47692072938116,24.6890974288547
1580422479.98296,-147.737850003815,12.664988174258,29.1447318226901
1580422479.98695,-142.915999084459,17.486839093614,32.9900053406575
1580422479.99094,-137.666895551995,21.6372930495154,36.0418097199968
1580422479.99494,-132.722972457465,25.2994583047225,38.3611810482946
1580422479.99893,-127.229724574655,28.4733348592354,39.7650110627908
1580422480.00292,-118.928816662852,31.6472114137482,40.6195162890058
1580422480.00692,-105.012588693065,35.8587014572365,40.7415884641794
1580422480.01091,-83.4058136873425,41.657129777981,39.8870832379644
1580422480.01491,-52.8267338063631,48.3710994125277,39.2156862745096
1580422480.0189,-14.068818188754,54.6578164339662,39.0325780117494
1580422480.02289,30.3654535744258,59.90691996643,40.2532997634851
1580422480.02689,76.5697718776228,62.8976882581828,42.6947432669565
1580422480.03088,120.393682764935,64.6677347981995,46.784161135271
1580422480.03487,158.724345769436,64.9729152361338,52.1553368429081
1580422480.03887,190.157930876631,63.5690852216376,58.0758373388262
1580422480.04286,214.877546349279,60.8834973678186,63.8742656595714
1580422480.04685,233.798733501183,57.9537651636529,68.9402609292747
1580422480.05087,246.494239719234,54.2305638208591,73.1517509727628
1580422480.05487,250.583657587549,50.4463263904781,75.7763027389947
1580422480.05886,241.428244449531,48.493171587701,76.6308079652094
1580422480.06285,214.450293736172,49.8970016021972,74.9828336003666
1580422480.06685,167.452506294346,54.2915999084457,71.0765239948123
1580422480.07084,102.44907301442,60.0289921416033,65.1560234988938
1580422480.07483,26.6422522316318,62.5314717326623,58.3810177767605
1580422480.07883,-48.1269550621805,58.747234302281,51.7280842298005
1580422480.08282,-110.139620050355,49.3476768139162,45.6244754711222
1580422480.08681,-151.766231784542,37.6897840848401,40.6195162890058
1580422480.09081,-171.419851987488,27.2526131074997,37.0794232089722
1580422480.0948,-172.51850156405,19.8062104219118,35.0041962310215
1580422480.09879,-161.226825360495,15.9609369039445,33.6614023041122
1580422480.10279,-143.6484321355,15.3505760280766,32.6848249027237
1580422480.10678,-124.788281071183,17.5478751812009,31.5861753261615
1580422480.11077,-106.904707408255,21.6372930495154,29.755092698558
1580422480.11477,-91.3405050736246,26.0929274433508,26.8253604943923
1580422480.11876,-79.2553597314411,30.0602731364918,23.2852674143587
1580422480.12276,-70.0389105058366,32.0744640268558,19.6231021591516
1580422480.12675,-63.2028686961166,31.4030670634011,16.2050812542916
1580422480.13074,-57.7706569008926,28.4733348592354,13.0312046997788
1580422480.13473,-52.6436255436026,24.322880903334,10.2845807583733
1580422480.13872,-47.0893415732053,19.0127412832837,7.47692072938116
1580422480.14272,-40.7415884641796,12.359807736324,4.8523689631495
1580422480.14671,-33.8445105668727,5.15754940108332,2.28885328450451
1580422480.1507,-26.8253604943923,-2.53299763485165,-0.213626306553806
1580422480.1547,-19.8672465094987,-11.1390859845883,-2.16678110933094
1580422480.15869,-13.1532768749523,-19.9893186846723,-3.50957503624022
1580422480.16268,-5.52376592660403,-27.8019378957808,-3.75371938658736
1580422480.16668,3.32646677347975,-34.2107270923934,-2.47196154726475
1580422480.17067,15.1674677653161,-38.1170366979477,0.091554131380235
1580422480.17467,30.4875257495994,-36.9573510337989,3.69268329900046
1580422480.17866,47.8217746242465,-30.1213092240787,8.27038986800949
1580422480.18265,65.6443121995881,-20.050354772259,13.6415655756466
1580422480.18665,81.5747310597394,-9.24696726939806,19.195849546044
1580422480.19064,93.9040207522698,2.41092545967808,24.5059891660944
1580422480.19463,100.92317082475,16.083009079118,28.7174792095825
1580422480.19863,102.693217364767,33.7224383916989,31.6472114137482
1580422480.20262,101.777676050965,54.0474555580986,33.4782940413518
1580422480.20661,100.984206912337,73.0907148851761,35.7976653696496
1580422480.2106,102.204928664073,87.312123292897,39.948119325551
1580422480.21459,104.646372167544,94.6364538033113,46.2958724345767
1580422480.21859,105.86709391928,94.2092011902037,54.0474555580986
1580422480.22258,102.998397802701,87.1290150301365,62.1042191195543
1580422480.22657,92.5612268253608,76.5697718776228,68.0247196154728
1580422480.23057,72.846570534829,64.7898069733733,70.4661631189442
1580422480.23456,45.0141145952543,54.5357442587929,68.0857557030595
1580422480.23856,13.8246738384069,47.8828107118331,60.3341725795376
1580422480.24255,-12.4208438239109,44.4647898069732,49.2866407263291
1580422480.24654,-26.337071793698,43.0609597924772,38.239108873121
1580422480.25054,-27.3746852826732,42.511635004196,30.6706340123596
1580422480.25453,-22.0035095750361,42.9388876173036,27.5577935454337
1580422480.25852,-18.2803082322423,43.8544289311053,27.7409018081939
1580422480.26252,-19.3789578088044,45.075150682841,28.3512626840618
1580422480.26651,-24.5059891660944,47.8828107118331,27.3136491950866
1580422480.2705,-32.0134279392691,51.9722285801477,24.3839169909209
1580422480.2745,-41.4129854276341,55.5733577477681,19.9282825970854
1580422480.27849,-52.2163729304953,58.4420538643471,13.9467460135804
1580422480.28249,-62.5314717326619,61.3107499809262,6.92759594110021
1580422480.28648,-69.4285496299688,63.6911573968109,-0.274662394140478
1580422480.2905,-70.1609826810102,65.5832761120014,-6.43930724040592
1580422480.29449,-63.1418326085297,66.4988174258033,-11.5663385976959
1580422480.29848,-49.3476768139162,66.6208896009766,-14.7402151522087
1580422480.30248,-31.8913557640956,65.5832761120014,-15.8388647287709
1580422480.30647,-13.8246738384069,63.6911573968109,-14.8012512397954
1580422480.31046,1.80056458381023,61.9821469443805,-11.9325551232166
1580422480.31446,13.9467460135804,61.3717860685128,-7.66002899214163
1580422480.31845,21.759365224689,62.5314717326623,-2.59403372243833
1580422480.32244,25.7877470054168,65.4001678492409,2.04470893415737
1580422480.32644,27.3746852826732,69.6116578927295,5.82894636453807
1580422480.33043,28.2291905088882,74.4335088120852,8.39246204318306
1580422480.33442,28.9616235599296,78.8891432059208,9.79629205767901
1580422480.33842,30.3654535744258,82.0019836728466,10.7118333714809
1580422480.34241,31.7692835889218,83.5278858625165,11.0780498970016
1580422480.34641,32.5017166399632,84.3823910887313,11.0780498970016
1580422480.3504,31.464103150988,84.6875715266651,10.650797283894
1580422480.35439,27.7409018081939,84.0772106507975,9.79629205767901
1580422480.35839,21.0269321736475,82.3071641107808,8.5755703059433
1580422480.36238,11.6884107728695,79.6215762569623,7.29381246662092
1580422480.36637,1.12916762035547,76.7528801403832,6.19516289005878
1580422480.37036,-9.18593118181116,73.8231479362175,5.27962157625689
1580422480.37435,-18.0361638818952,71.2596322575723,4.91340505073617
1580422480.37835,-24.5670252536811,69.3064774547952,4.91340505073617
1580422480.38234,-28.4733348592354,68.5130083161671,5.40169375143046
1580422480.38633,-30.0602731364918,68.5130083161671,6.37827115281902
1580422480.39033,-30.1213092240787,69.1844052796218,7.53795681696806
1580422480.39432,-29.6330205233844,70.1609826810104,9.18593118181116
1580422480.39832,-29.2668039978637,71.4427405203328,10.7728694590676
1580422480.40231,-29.9382009613182,72.846570534829,12.5429159990845
1580422480.4063,-31.1589227130539,74.189364461738,14.1908903639276
1580422480.4103,-32.8679331654841,75.6542305638209,15.4726482032502
1580422480.41429,-33.7224383916991,76.6308079652094,16.3881895170518
1580422480.41828,-33.5393301289389,77.4853131914247,17.1206225680933
1580422480.42228,-31.8913557640956,78.2787823300528,17.486839093614
1580422480.42627,-29.0226596475165,78.8891432059208,17.3647669184404
1580422480.43026,-25.3604943923094,79.2553597314413,17.1206225680933
1580422480.43426,-21.5152208743418,79.1943236438547,16.8764782177461
1580422480.43825,-17.5478751812009,79.316395819028,16.1440451667047
1580422480.44224,-13.519493400473,79.2553597314413,15.4116121156633
1580422480.44624,-9.18593118181116,79.4384679942018,14.373998626688
1580422480.45026,-4.48615243762879,79.8046845197223,13.4584573128861
1580422480.45425,1.0681315327688,80.476081483177,12.5429159990845
1580422480.45824,7.17174029144735,81.4526588845656,11.3221942473488
1580422480.46224,13.4584573128861,82.734416723888,9.91836423285258
1580422480.46623,19.4399938963911,84.1382467383842,8.88075074387734
1580422480.47022,25.0553139543754,85.6641489280537,6.37827115281902
1580422480.47422,29.8161287861446,86.8238345922027,4.60822461280236
1580422480.47821,34.4548714427403,88.4718089570461,-0.091554131380235
1580422480.4822,39.5819028000303,89.6314946211951,-7.35484855420759
1580422480.4862,45.3803311207751,91.5846494239722,-15.5947203784237
1580422480.49019,51.7891203173876,92.8664072632946,-29.5719844357975
1580422480.49418,50.9956511787591,97.7492942702374,-9.00282291905091
1580422480.49818,43.6713206683451,103.547722590982,5.7068741893645
1580422480.50217,36.0418097199968,94.5754177157246,10.650797283894
1580422480.50617,28.2902265964751,87.678339818418,12.7260242618447
1580422480.51016,20.2334630350194,86.7627985046161,13.7636377508202
1580422480.51415,11.9935912108033,86.3355458915084,14.1298542763409
1580422480.51815,4.66926070038903,84.9927519645994,13.8246738384069
1580422480.52214,-1.25123979552905,82.551308461128,13.3363851377126
1580422480.52613,-6.43930724040592,80.476081483177,12.7260242618447
1580422480.53012,-10.8949416342411,79.4384679942018,11.9935912108033
1580422480.53411,-15.0453955901426,79.2553597314413,11.2001220721752
1580422480.53811,-18.4634164950025,80.1098649576566,10.4676890211338
1580422480.5421,-20.9658960860609,81.0864423590451,9.85732814526591
1580422480.54609,-22.2476539253832,82.3071641107808,9.4911116197452
1580422480.55009,-22.613870450904,83.7109941252766,9.12489509422448
1580422480.55408,-21.9424734874494,85.0537880521861,8.88075074387734
1580422480.55807,-20.355535210193,86.5796902418556,8.94178683146401
1580422480.56207,-17.9751277943083,88.2276646066989,9.12489509422448
1580422480.56606,-15.4116121156633,89.6925307087818,9.4911116197452
1580422480.57006,-12.7870603494316,91.2184328984513,9.91836423285258
1580422480.57405,-10.7728694590676,92.2560463874265,10.3456168459602
1580422480.57804,-9.36903944457163,93.4157320515756,10.7118333714809
1580422480.58204,-8.27038986800949,94.2702372777908,11.3221942473488
1580422480.58603,-6.92759594110021,94.7585259784851,12.1766994735638
1580422480.59002,-4.8523689631495,95.4909590295265,13.2753490501259
1580422480.59402,-2.22781719691761,96.4065003433279,14.1908903639276
1580422480.59801,0.70191500724809,97.2610055695432,15.0453955901426
1580422480.602,3.50957503624022,97.4441138323036,15.8999008163576
1580422480.606,5.40169375143046,97.1389333943694,16.5102616922254
1580422480.60998,6.62241550316617,96.4675364309151,16.5712977798123
1580422480.61398,8.33142595559616,95.9792477302208,16.5102616922254
1580422480.61797,11.3221942473488,95.6740672922865,16.2050812542916
1580422480.62197,16.6933699549859,95.0026703288322,15.9609369039445
1580422480.62596,23.5294117647059,93.9650568398565,15.6557564660104
1580422480.62995,30.2433813992523,92.5001907377737,15.228503852903
1580422480.63395,35.9197375448232,90.9742885481041,14.6791790646218
1580422480.63794,39.7650110627908,89.2042420080875,13.519493400473
1580422480.64193,41.657129777981,87.312123292897,12.0546272983902
1580422480.64593,42.0843823910886,84.8706797894256,10.2845807583733
1580422480.64992,41.2298771648736,82.3071641107808,8.39246204318306
1580422480.65391,39.948119325551,79.1943236438547,6.68345159075307
1580422480.65791,38.5442893110551,75.6542305638209,5.15754940108332
1580422480.6619,37.3235675593194,71.3817044327461,3.93682764934761
1580422480.66589,36.1028458075837,67.5974670023652,2.83817807278547
1580422480.66989,35.0041962310215,64.7898069733733,1.98367284657047
1580422480.67388,33.8445105668725,62.1652552071409,1.61745632104976
1580422480.67788,32.6848249027237,59.90691996643,1.67849240863666
1580422480.68187,31.2199588006408,57.8927290760662,1.98367284657047
1580422480.68586,29.2057679102768,55.8785381857019,2.65506981002522
1580422480.68991,26.3981078812847,53.5591668574043,3.26543068589308
1580422480.6939,22.5528343633173,51.2397955291062,3.69268329900046
1580422480.6979,18.2803082322423,49.042496375982,4.11993591210808
1580422480.70189,13.519493400473,46.8451972228579,4.24200808728165
1580422480.70588,8.94178683146401,44.5868619821467,4.18097199969475
1580422480.70988,4.30304417486832,42.1454184786753,4.11993591210808
1580422480.71387,-0.274662394140478,39.093614099336,3.99786373693451
1580422480.71786,-4.48615243762879,35.6145571068894,3.75371938658736
1580422480.72186,-7.53795681696806,31.7692835889218,3.26543068589308
1580422480.72585,-9.4911116197452,28.2291905088882,2.65506981002522
1580422480.72985,-9.67421988250544,25.1163500419623,1.9226367589838
1580422480.73384,-8.33142595559616,22.1866178377966,1.19020370794237
1580422480.73783,-5.46272983901736,19.2568856336309,0.457770656900948
1580422480.74183,-1.25123979552905,16.5102616922254,-0.213626306553806
1580422480.74582,3.99786373693451,13.7636377508202,-0.70191500724809
1580422480.74981,10.2235446707866,10.5287251087204,-0.946059357595232
1580422480.75381,16.632333867399,6.92759594110021,-0.946059357595232
1580422480.7578,23.1021591515982,3.26543068589308,-0.946059357595232
1580422480.76179,29.2668039978637,-0.213626306553806,-0.823987182421661
1580422480.76579,35.3093766689553,-3.44853894865332,-0.457770656900948
1580422480.76977,41.0467689021132,-6.62241550316617,-0.274662394140478
1580422480.77377,46.2348363469901,-9.61318379491877,-0.152590218966907
1580422480.77776,50.9956511787591,-12.5429159990845,0.0305180437933359
1580422480.78176,55.1461051346605,-15.2895399404897,0.152590218966907
1580422480.78575,58.9303425650414,-17.8530556191347,0.335698481727377
1580422480.78974,62.0431830319676,-20.1113908598459,0.457770656900948
1580422480.79374,65.3391317616542,-22.6749065384909,0.51880674448762
1580422480.79773,68.9402609292747,-25.7267109178301,0.274662394140478
1580422480.80172,72.297245746548,-28.900587472343,-0.579842832074519
1580422480.80572,74.7386892500194,-31.4030670634013,-1.61745632104976
1580422480.80971,76.8139162279699,-32.9900053406577,-3.32646677347975
1580422480.8137,78.4008545052266,-34.637979705501,-5.03547722590974
1580422480.8177,79.6826123445489,-36.7132066834517,-6.74448767833974
1580422480.82169,81.2085145342185,-39.8260471503777,-8.27038986800949
1580422480.82568,82.3682001983675,-44.1596093690396,-9.55214770733187
1580422480.82968,82.0019836728466,-49.6528572518503,-11.0170138094147
1580422480.83367,79.4384679942018,-55.6954299229419,-13.1532768749523
1580422480.83766,75.1659418631266,-60.9445334554055,-15.6557564660104
1580422480.84166,69.9168383306633,-65.1560234988938,-18.646524757763
1580422480.84565,64.0573739223319,-68.6961165789273,-21.8204013122759
1580422480.84967,58.1368734264133,-71.7479209582666,-24.6890974288547
1580422480.85366,53.07087815671,-74.7997253376059,-27.8019378957808
1580422480.85766,48.6762798504615,-78.7060349431601,-30.7316700999465
1580422480.86165,44.7089341573203,-83.0395971618218,-33.7224383916991
1580422480.86564,41.1688410772867,-87.6783398184175,-36.5300984206913
1580422480.86964,37.6897840848401,-92.6832990005339,-39.5819028000305
1580422480.87363,33.7224383916989,-98.4817273212789,-42.6337071793698
1580422480.87762,28.3512626840618,-105.317769130999,-45.5634393835355
1580422480.88162,21.4541847867551,-113.130388342107,-48.1269550621805
1580422480.88561,12.9701686121919,-121.919584954604,-50.4463263904784
1580422480.88961,3.26543068589308,-131.197070267796,-52.0332646677348
1580422480.8936,-6.37827115281902,-140.962844281682,-53.3760585946441
1580422480.89759,-15.2895399404897,-150.118257419699,-54.4136720836195
1580422480.90159,-22.4307621881437,-158.297093156329,-55.0850690470741
1580422480.90558,-27.7409018081939,-166.475928892958,-55.4512855725948
1580422480.90957,-31.8303196765089,-173.861295490959,-55.6954299229419
1580422480.91357,-35.4314488441291,-180.209048599985,-55.9395742732891
1580422480.91756,-38.4832532234684,-186.251621271077,-56.1837186236362
1580422480.92155,-40.8026245517663,-192.050049591821,-56.4888990615702
1580422480.92555,-41.7792019531548,-197.299153124285,-56.3668268863967
1580422480.92953,-41.8402380407417,-201.998931868467,-56.1226825360495
1580422480.93353,-40.9857328145267,-206.149385824369,-55.2681773098345
1580422480.93752,-39.9481193255513,-209.384298466468,-53.4981307698176
1580422480.94151,-38.9715419241627,-211.520561532006,-50.5073624780653
1580422480.94551,-37.201495384146,-212.619211108568,-46.4789806973374
1580422480.9495,-33.5393301289389,-211.459525444419,-41.9012741283284
1580422480.9535,-26.9474326695658,-207.431143663691,-37.3235675593196
1580422480.95749,-16.4492256046387,-200.656137941558,-32.9900053406577
1580422480.96148,-2.34988937209118,-191.561760891127,-28.9616235599296
1580422480.96548,13.0922407873654,-181.0635538262,-25.0553139543754
1580422480.96947,27.0695048447394,-170.382238498512,-21.210040436408
1580422480.97346,37.384603646906,-160.982681010147,-17.7309834439611
1580422480.97746,42.2674906538489,-153.841458762493,-13.7636377508202
1580422480.98145,41.4740215152208,-149.202716105897,-9.18593118181116
1580422480.98544,36.1638818951703,-146.456092164492,-3.87579156176093
1580422480.98944,28.4733348592354,-143.953612573434,0.396734569314049
1580422480.99343,21.6372930495154,-141.329060807202,3.32646677347975
1580422480.99742,17.0595864805066,-138.582436865797,4.73029678797593
1580422481.00142,14.6791790646218,-136.507209887846,4.97444113832307
1580422481.00541,13.0312046997788,-136.202029449912,4.73029678797593
1580422481.00943,9.4911116197452,-138.155184252689,4.97444113832307
1580422481.01342,1.98367284657047,-141.451132982376,6.25619897764545
1580422481.01742,-9.73525597009234,-145.479514763104,7.84313725490188
1580422481.02141,-24.3839169909209,-148.470283054856,8.88075074387734
1580422481.0254,-39.5208667124439,-149.385824368658,8.69764248111687
1580422481.0294,-52.7656977187762,-148.409246967269,7.72106507972831
1580422481.03339,-61.7990386816205,-146.211947814145,6.80552376592664
1580422481.03738,-66.1326009002823,-143.46532387274,5.88998245212474
1580422481.04138,-66.0715648126954,-141.268024719615,5.09651331349664
1580422481.04537,-62.8366521705959,-139.497978179599,4.30304417486832
1580422481.04937,-58.1979095140002,-138.460364690623,3.26543068589308
1580422481.05336,-53.0098420691234,-137.788967727169,1.9226367589838
1580422481.05735,-48.1879911497674,-137.544823376822,-0.0305180437933359
1580422481.06134,-44.1596093690396,-137.483787289235,-2.10574502174404
1580422481.06534,-40.314335851072,-136.99549858854,-4.54718852521546
1580422481.06933,-36.4690623331046,-136.079957274739,-7.29381246662092
1580422481.07333,-32.1355001144427,-134.493018997482,-10.0404364080262
1580422481.07732,-27.0695048447394,-132.234683756771,-12.2987716487373
1580422481.08131,-21.2710765239947,-129.488059815366,-14.1298542763409
1580422481.08531,-14.6181429770352,-125.947966735332,-15.3505760280766
1580422481.08929,-7.47692072938116,-122.163729304952,-16.1440451667047
1580422481.09329,0.335698481727377,-118.19638361181,-16.4492256046387
1580422481.09728,8.51453421835663,-114.473182269017,-16.2050812542916
1580422481.10127,16.632333867399,-110.627908751049,-15.8388647287709
1580422481.10527,25.1163500419623,-106.843671320668,-15.2895399404897
1580422481.10926,33.3562218661782,-103.730830853742,-14.6181429770352
1580422481.11326,41.0467689021132,-100.495918211643,-14.1298542763409
1580422481.11725,47.089341573205,-96.9558251316091,-13.5805294880597
1580422481.12124,51.4839398794534,-93.0495155260546,-13.3363851377126
1580422481.12524,53.8033112077514,-89.2042420080872,-12.9701686121919
1580422481.12923,53.7422751201648,-84.6875715266651,-12.8480964370183
1580422481.13322,50.9346150911724,-79.316395819028,-12.6039520866711
1580422481.13722,45.6244754711222,-73.6400396734568,-12.4208438239109
1580422481.14121,37.7508201724268,-68.3909361409933,-12.0546272983902
1580422481.1452,27.2526131074997,-63.8742656595712,-11.6273746852826
1580422481.1492,14.8012512397954,-59.6627756160831,-11.2001220721752
1580422481.15319,0.396734569314049,-55.5733577477683,-10.8339055466545
1580422481.15718,-15.5947203784237,-51.6060120546274,-10.4066529335469
1580422481.16118,-32.3796444647899,-47.7607385366598,-9.97940032043948
1580422481.16517,-49.2866407263296,-43.7933928435189,-9.61318379491877
1580422481.16916,-65.8274204623483,-39.9481193255513,-9.24696726939806
1580422481.17315,-80.8422980086975,-36.4690623331046,-8.69764248111687
1580422481.17715,-93.7209124895094,-32.6848249027239,-8.14831769283592
1580422481.18114,-103.547722590982,-28.6564431219958,-7.59899290455473
1580422481.18513,-110.627908751049,-24.2008087281604,-6.68345159075307
1580422481.18913,-115.266651407645,-19.4399938963911,-6.01205462729831
1580422481.19312,-117.891203173877,-14.4960708018616,-5.27962157625689
1580422481.19711,-118.928816662852,-9.55214770733187,-4.48615243762879
1580422481.20111,-119.172961013199,-4.97444113832307,-3.32646677347975
1580422481.2051,-119.72228580148,-1.19020370794237,-1.80056458381023
1580422481.20909,-120.088502327001,2.28885328450451,0.152590218966907
1580422481.21309,-120.271610589761,5.15754940108332,2.53299763485165
1580422481.21708,-120.027466239414,7.47692072938116,5.34065766384379
1580422481.22107,-118.623636224918,9.36903944457163,8.51453421835663
1580422481.22507,-115.632867933165,11.6884107728695,11.4442664225223
1580422481.22906,-110.872053101396,14.923323414969,14.1908903639276
1580422481.23305,-104.097047379263,19.0127412832837,16.3271534294652
1580422481.23705,-94.6974898908982,24.1397726405737,17.6699473563745
1580422481.24104,-81.8188754100861,29.8161287861446,18.9517051956968
1580422481.24503,-65.0339513237202,36.3469901579308,19.9282825970854
1580422481.24905,-43.9154650186924,42.8778515297167,21.0269321736475
1580422481.25305,-19.0737773708704,48.493171587701,22.6749065384909
1580422481.25704,8.69764248111687,53.0098420691234,24.9332417792018
1580422481.26103,38.0560006103608,56.6720073243305,27.7409018081939
1580422481.26503,68.5740444037538,59.90691996643,31.2809948882275
1580422481.26902,99.8245212481879,63.0197604333566,35.1873044937818
1580422481.27302,131.258106355383,65.2170595864809,39.5208667124436
1580422481.27701,162.44754711223,65.4001678492409,44.0985732814524
1580422481.281,191.50072480354,62.7756160830095,48.5542076752877
1580422481.28499,215.671015487907,57.8927290760662,52.0332646677348
1580422481.28899,230.319676508736,51.9722285801477,54.2305638208591
1580422481.29298,231.418326085298,47.3945220111389,55.0850690470738
1580422481.29698,215.121690699626,45.3192950331882,54.5967803463795
1580422481.30097,180.758373388266,46.784161135271,52.8877698939496
1580422481.30496,131.319142442969,50.6294346532386,50.3852903028915
1580422481.30896,72.2362096589609,54.2915999084457,47.3945220111389
1580422481.31295,10.8339055466545,55.3902494850076,44.0375371938658
1580422481.31694,-45.2582589456017,53.620202944991,40.0701915007246
1580422481.32094,-89.2652780956739,48.6152437628748,36.3469901579308
1580422481.32493,-117.036697947662,41.7181658655679,32.9900053406575
1580422481.32892,-127.656977187762,33.4782940413518,30.9147783627068
1580422481.33291,-124.910353246357,25.482566567483,30.3044174868389
1580422481.33691,-114.534218356603,19.195849546044,30.1823453116654
1580422481.3409,-101.533531700618,15.1064316777295,29.8161287861446
1580422481.34489,-88.5328450446325,12.5429159990845,29.0836957351032
1580422481.34889,-75.9594110017547,11.2611581597619,28.1071183337147
1580422481.35288,-63.3859769588769,11.1390859845883,26.7032883192187
1580422481.35687,-50.7515068284124,12.1156633859769,25.0553139543754
1580422481.36087,-38.5442893110553,13.3363851377126,23.2242313267718
1580422481.36486,-27.0084687571525,14.068818188754,21.6372930495154
1580422481.36885,-16.1440451667047,14.4350347142747,20.2334630350194
1580422481.37285,-6.31723506523235,14.2519264515145,19.195849546044
1580422481.37684,3.14335851071951,13.214312962539,18.0971999694818
1580422481.38083,12.1766994735638,11.0780498970016,17.8530556191347
1580422481.38483,20.1724269474325,7.23277637903402,17.6699473563745
1580422481.38882,26.5812161440451,1.67849240863666,17.5478751812009
1580422481.39281,30.8537422751201,-5.21858548867021,17.1206225680933
1580422481.39681,32.1965362020294,-11.505302510109,16.083009079118
1580422481.4008,30.3654535744258,-16.1440451667047,14.6791790646218
1580422481.40479,26.0929274433508,-18.341344319829,13.0312046997788
1580422481.40881,22.1255817502097,-17.3647669184404,11.5663385976959
1580422481.41281,21.3931486991683,-12.664988174258,11.2001220721752
1580422481.4168,26.1539635309375,-5.34065766384379,12.0546272983902
1580422481.42079,36.4080262455175,2.7771419851988,14.1908903639276
1580422481.42479,49.65285725185,11.6273746852826,17.5478751812009
1580422481.42878,63.5690852216376,20.7827878233004,21.4541847867551
1580422481.43277,77.3632410162509,28.900587472343,25.6046387426566
1580422481.43677,90.6080720225837,35.6145571068894,29.6940566109711
1580422481.44076,101.106279087511,42.6337071793696,33.9055466544594
1580422481.44475,105.378805218586,50.6904707408253,37.7508201724268
1580422481.44875,101.533531700618,59.7238117036695,41.2909132524603
1580422481.45274,90.2418554970627,69.4895857175557,44.6478980697336
1580422481.45673,74.555580987259,78.3398184176394,48.1879911497672
1580422481.46073,56.3668268863962,83.9551384756237,52.2163729304948
1580422481.46472,35.7976653696496,85.4810406652937,56.7940794995038
1580422481.46872,12.9701686121919,82.6123445487146,61.1886778057524
1580422481.47271,-10.5897611963073,75.2880140383004,64.1794460975052
1580422481.4767,-32.4406805523768,64.7287708857866,64.3625543602657
1580422481.4807,-50.9956511787595,53.0098420691234,60.2731364919505
1580422481.48469,-65.7663843747616,41.9012741283282,52.1553368429081
1580422481.48868,-76.9359884031433,32.318608377203,41.5960936903944
1580422481.49267,-85.1148241397725,24.2008087281604,30.7316700999465
1580422481.49667,-91.279468986038,16.7544060425726,22.1255817502097
1580422481.50066,-96.711680781262,10.1625085831997,16.4492256046387
1580422481.50465,-101.777676050965,5.34065766384379,14.068818188754
1580422481.50864,-106.111238269627,3.38750286106665,13.1532768749523
1580422481.51264,-109.773403524834,6.19516289005878,12.2987716487373
1580422481.51663,-112.764171816587,13.0312046997788,10.7728694590676
1580422481.52063,-114.77836270695,21.3931486991683,8.51453421835663
1580422481.52462,-115.754940108339,28.900587472343,6.01205462729831
1580422481.52861,-115.510795757992,34.2717631799801,4.18097199969475
1580422481.53261,-113.435568780041,37.9339284351872,3.08232242313261
1580422481.5366,-107.881284809644,41.4740215152208,2.7161058976119
1580422481.54059,-96.8337529564355,46.1127641718165,2.7771419851988
1580422481.54459,-78.7060349431601,51.6670481422138,3.08232242313261
1580422481.54858,-53.2539864194705,56.7330434119172,3.75371938658736
1580422481.55257,-20.7217517357137,60.7003891050581,4.7913328755626
1580422481.55657,17.1816586556802,63.6911573968109,6.62241550316617
1580422481.56056,57.5265125505452,65.7053482871752,9.18593118181116
1580422481.56455,96.0402838178074,67.7805752651257,12.359807736324
1580422481.56854,129.182879377432,71.5037766079195,15.4116121156633
1580422481.57254,154.512855725948,78.3398184176394,17.5478751812009
1580422481.57653,172.396429388876,88.6549172198065,18.5244525825894
1580422481.58052,185.214007782101,101.411459525445,18.5244525825894
1580422481.58452,194.9187457084,114.534218356604,17.9751277943083
1580422481.58851,202.304112306401,124.910353246357,17.6699473563745
1580422481.5925,205.477988860914,129.182879377432,17.486839093614
1580422481.5965,201.083390554666,126.741435873961,17.4258030060273
1580422481.60049,186.068513008316,118.867780575265,16.5712977798123
1580422481.60448,160.067139696345,108.674753948272,14.5571068894483
1580422481.60848,127.534905012589,98.5427634088655,11.3221942473488
1580422481.61247,93.6598764019227,89.9977111467156,7.90417334248878
1580422481.61646,63.4470130464638,83.4058136873427,4.66926070038903
1580422481.62046,38.6053253986418,78.4618905928132,2.04470893415737
1580422481.62445,19.6841382467383,75.0438696879532,0.396734569314049
1580422481.62844,6.92759594110021,72.7855344472423,-0.274662394140478
1580422481.63244,-0.70191500724809,71.3817044327461,0.091554131380235
1580422481.63643,-5.40169375143046,70.7103074692914,1.0070954451819
1580422481.64042,-9.30800335698473,70.2830548561838,2.59403372243833
1580422481.64442,-13.7636377508202,70.3440909437709,4.66926070038903
1580422481.64844,-19.501029983978,70.588235294118,6.80552376592664
1580422481.65243,-26.6422522316318,71.6258487830933,9.00282291905091
1580422481.65642,-33.9055466544596,72.7855344472423,10.8949416342411
1580422481.66042,-40.7415884641796,74.189364461738,11.9325551232166
1580422481.66441,-46.1738002594034,75.8373388265813,12.359807736324
