Timestamp_seconds,Accel_X_g,Accel_Y_g,Accel_Z_g
1580422474.73941,-0.856702525368124,-0.0173342488746471,0.537361715114063
1580422474.77106,-0.858655680170902,-0.0295414663920042,0.531990539406426
1580422474.8028,-0.854749370565347,-0.0183108262760356,0.536385137712674
1580422474.83455,-0.858655680170902,-0.0187991149767299,0.514412146181431
1580422474.8663,-0.862561989776456,-0.0217288471808956,0.51538872358282
1580422474.89804,-0.854749370565347,-0.0173342488746471,0.52222476539254
1580422474.92979,-0.855725947966736,-0.0139162279697871,0.519295033188374
1580422474.96154,-0.863538567177844,-0.0251468680857556,0.520271610589763
1580422474.99328,-0.858655680170902,-0.0227054245822842,0.513923857480737
1580422475.02503,-0.86646829938201,-0.0231937132829785,0.510017547875183
1580422475.05678,-0.870862897688259,-0.0227054245822842,0.524177920195317
1580422475.08852,-0.874280918593119,-0.0280766002899213,0.518318455786986
1580422475.12027,-0.863538567177844,-0.0187991149767299,0.522713054093234
1580422475.15202,-0.868421454184787,-0.0212405584802013,0.533455405508509
1580422475.18377,-0.871351186388953,-0.0217288471808956,0.518318455786986
1580422475.21551,-0.865491721980622,-0.0183108262760356,0.517341878385597
1580422475.24726,-0.865491721980622,-0.0368657969024184,0.509529259174489
1580422475.27901,-0.857679102769513,-0.0300297550926985,0.498786907759211
1580422475.31075,-0.851819638361182,-0.0187991149767299,0.521736476691846
1580422475.3425,-0.850843060959793,-0.0134279392690928,0.545174334325171
1580422475.37425,-0.858167391470207,0.00561532005798426,0.528572518501566
1580422475.40599,-0.861585412375067,-0.027588311589227,0.526131074998094
1580422475.43774,-0.864515144579233,-0.0285648889906156,0.510017547875183
1580422475.46949,-0.861097123674373,-0.0456549935149155,0.51880674448768
1580422475.50124,-0.854261081864653,-0.0441901274128327,0.537361715114063
1580422475.53298,-0.848889906157016,-0.0153810940718699,0.53589684901198
1580422475.56473,-0.856702525368124,-0.0212405584802013,0.538826581216146
1580422475.59647,-0.858167391470207,-0.000732433051041426,0.521248187991151
1580422475.62822,-0.871839475089647,0.0046387426565957,0.513435568780043
1580422475.65997,-0.865980010681316,-0.0173342488746471,0.50171663996338
1580422475.69172,-0.86988632028687,-0.0246585793850613,0.514900434882126
1580422475.72346,-0.850354772259099,-0.00366216525520713,0.521736476691846
1580422475.75521,-0.851819638361182,0.000732433051041426,0.516853589684903
1580422475.78696,-0.856702525368124,-0.0158693827725642,0.533943694209203
1580422475.8187,-0.861097123674373,-0.031006332494087,0.529549095902954
1580422475.85045,-0.867444876783399,-0.0368657969024184,0.510017547875183
1580422475.8822,-0.861585412375067,-0.0324711985961699,0.523689631494623
1580422475.91394,-0.850843060959793,-0.0305180437933927,0.530525673304343
1580422475.94569,-0.857190814068819,-0.0124513618677042,0.526131074998094
1580422475.97744,-0.848889906157016,-0.0261234454871442,0.541268024719617
1580422476.00918,-0.854261081864653,-0.0300297550926985,0.520759899290457
1580422476.04089,-0.866956588082704,-0.0217288471808956,0.530037384603649
1580422476.07264,-0.858655680170902,-0.0422369726100555,0.517830167086291
1580422476.10439,-0.857190814068819,-0.0368657969024184,0.531990539406426
1580422476.13613,-0.856702525368124,-0.0100099183642328,0.532967116807814
1580422476.16788,-0.85279621576257,-0.0100099183642328,0.551522087434197
1580422476.19963,-0.847425040054933,-0.0397955291065841,0.545174334325171
1580422476.23137,-0.852307927061876,-0.0495613031204698,0.539803158617534
1580422476.26312,-0.847425040054933,-0.0788586251621268,0.53247882810712
1580422476.29487,-0.854749370565347,-0.067139696345464,0.55298695353628
1580422476.32661,-0.856702525368124,-0.0402838178072784,0.545174334325171
1580422476.35836,-0.85621423666743,-0.0393072404058898,0.536385137712674
1580422476.39011,-0.867444876783399,-0.00708018616006711,0.516853589684903
1580422476.42186,-0.86988632028687,-0.0393072404058898,0.487556267643242
1580422476.4536,-0.864026855878539,-0.0471198596169984,0.482673380636299
1580422476.48535,-0.878187228198673,-0.0183108262760356,0.464118410009917
1580422476.5171,-0.878187228198673,-0.0295414663920042,0.469977874418248
1580422476.54884,-0.872327763790341,-0.0559090562294955,0.497322041657128
1580422476.58059,-0.871351186388953,-0.0734874494544897,0.493904020752268
1580422476.61234,-0.871839475089647,-0.0500495918211641,0.489021133745325
1580422476.64408,-0.876234073395896,-0.123292896925307,0.524177920195317
1580422476.67583,-0.882581826504921,-0.203860532539863,0.440192263675897
1580422476.70758,-0.959731441214618,-0.264408331425956,0.3117723353933
1580422476.73932,-1.00074769207294,-0.222903791866941,0.249759670405126
1580422476.77107,-0.952895399404898,-0.0910658426794839,0.341557946135651
1580422476.80282,-0.919203479056993,0.060303654535744,0.3801327534905
1580422476.83456,-0.88355840390631,0.070557717250324,0.475349050125885
1580422476.86631,-0.905043106736859,0.0852063782711525,0.389410238803691
1580422476.89806,-0.955825131609064,-0.0559090562294955,0.29126420996414
1580422476.92981,-0.93824673838407,-0.152590218966964,0.312260624093994
1580422476.96155,-0.942641336690318,-0.0681162737468526,0.330815594720377
1580422476.9933,-0.962661173418784,-0.067139696345464,0.339604791332874
1580422477.02505,-0.92457465476463,-0.0427252613107498,0.385503929198137
1580422477.05679,-0.927504386968796,0.0373540856031127,0.421637293049514
1580422477.08854,-0.922133211261158,0.168215457389181,0.395757991912717
1580422477.12029,-1.00660715648127,0.2605020218204,0.349858854047454
1580422477.15203,-0.978286411841001,0.5427328908217,0.371831845578697
1580422477.18378,-1.0041657129778,0.528572518501566,0.354253452353703
1580422477.21553,-0.99977111467155,0.797619592584116,0.436774242771037
1580422477.24727,-1.41237506675822,0.3288624399176,0.0632333867399097
1580422477.27902,-1.50954451819638,-1.07594415197986,-0.380621042191196
1580422477.31076,-1.07740901808194,-1.24977492942702,0.178469520103761
1580422477.34251,-0.907972838941024,0.634042877851531,0.246341649500266
1580422477.37425,-0.327885862516213,0.0842298008697639,0.234622720683603
1580422477.406,-0.749767299916074,-0.625741969939726,0.219485770962081
1580422477.43775,-0.675059128709849,-1.16676585030899,0.0578622110322726
1580422477.46949,-0.594979781795987,-0.97584496833753,0.176516365300984
1580422477.50124,-0.614023041123064,-0.47339589532311,0.368902113374531
1580422477.53299,-0.80494392309453,0.10424963759823,0.50513466086824
1580422477.56473,-1.09547570000763,-0.0769054703593497,0.389898527504386
1580422477.59648,-1.07594415197986,-0.32300297550927,0.269779507133592
1580422477.62823,-0.855725947966736,-0.363530937666896,0.229739833676661
1580422477.65998,-0.700450141145952,-0.290287632562753,0.0744640268558783
1580422477.69172,-0.984634164950027,-0.521736476691844,-0.281498435950256
1580422477.72347,-1.38454261081865,0.84254215304799,1.42458228427558
1580422477.75522,-1.12672617685206,0.327397573815517,0.396734569314106
1580422477.78696,-1.27125963225757,-0.602792401007095,0.525154497596706
1580422477.81871,-0.986587319752804,-0.978774700541695,0.0339360646982527
1580422477.85046,-1.01100175478752,-0.212161440451666,-0.609628442816815
1580422477.8822,-1.16432440680552,-0.0515144579232469,-0.400152590218967
1580422477.91395,-1.00953688868544,-0.458258945601587,-0.0324711985961699
1580422477.9457,-1.04615854123751,-0.267826352330816,0.134035248340581
1580422477.97744,-0.970962081330587,-0.0520027466239412,0.0466315709163041
1580422478.00919,-0.948989089799344,-0.138918135347524,0.0319829098954756
1580422478.04094,-0.957778286411841,-0.0847180895704582,0.0690928511482412
1580422478.07269,-1.00807202258335,-0.0617685206378269,0.0339360646982527
1580422478.10443,-1.0383459220264,-0.0764171816586554,-0.0168459601739528
1580422478.13618,-1.06276035706111,0.0075684748607614,0.195071335927366
1580422478.16792,-0.990493629358358,0.146242465857938,0.240970473792629
1580422478.19967,-1.00709544518196,0.259037155718318,0.131105516136415
1580422478.23142,-1.09596398870832,0.185305561913481,0.130128938735027
1580422478.26317,-1.12574959945067,0.0471198596169984,0.146730754558632
1580422478.29491,-1.10572976272221,0.0905775539787896,0.114015411612115
1580422478.32666,-1.14479285877775,0.186770428015564,0.188723582818341
1580422478.35841,-1.21950102998398,0.331792172121766,0.388433661402303
1580422478.39015,-1.45339131761654,0.354741741054397,0.514412146181431
1580422478.4219,-1.53835355153735,0.0441901274128327,0.226321812771801
1580422478.45365,-1.27321278706035,-0.45288776989395,0.0471198596169984
1580422478.48539,-1.10182345311665,-0.622812237735561,-0.333745326924545
1580422478.51714,-0.616464484626535,-0.567635614557107,0.067139696345464
1580422478.54889,-0.354253452353705,-0.810315098802167,-0.137941557946135
1580422478.58057,-0.403570611123827,-0.635507743953612,-0.0949721522850382
1580422478.61231,-0.342046234836348,-0.531990539406424,-0.0290531776913099
1580422478.64406,-0.409918364232853,-0.687266346227206,0.0368657969024184
1580422478.67581,-0.691660944533455,-0.579842832074464,0.00854505226214997
1580422478.70755,-0.841077286945907,-0.266361486228734,0.203372243839169
1580422478.7393,-1.05494773785,-0.305424582284276,0.369390402075226
1580422478.77105,-1.3630579079881,-0.498786907759213,-0.174563210498206
1580422478.80279,-1.04762340733959,-0.702891584649423,-0.0617685206378269
1580422478.83454,-0.86305027847715,-0.385503929198139,-0.138918135347524
1580422478.86629,-0.849866483558404,-0.401129167620356,0.0324711985961699
1580422478.89803,-0.970473792629893,-0.413336385137713,0.0666514076447697
1580422478.92978,-1.33962005035477,0.727794308384833,0.915785458152133
1580422478.96153,-1.21901274128328,0.237064164187075,0.225345235370412
1580422478.99327,-1.30983443961242,-0.652597848477912,0.01196307316701
1580422479.02502,-0.888441290913253,-0.578866254673075,0.195071335927366
1580422479.05677,-0.915785458152133,-0.328862439917602,-0.0471198596169984
1580422479.08852,-1.10084687571527,-0.12133974212253,-0.0988784618905925
1580422479.12026,-1.14576943617914,-0.0227054245822842,0.024170290684367
1580422479.15201,-1.07496757457847,-0.332280460822462,-0.0427252613107498
1580422479.18376,-0.953871976806287,-0.0471198596169984,0.0559090562294955
1580422479.2155,-1.04127565423056,-0.0559090562294955,0.0666514076447697
1580422479.24725,-1.00709544518196,-0.186770428015564,0.0856946669718468
1580422479.279,-0.966567483024338,-0.10766765850309,-0.0261234454871442
1580422479.31074,-0.97242694743267,-0.104737926298924,0.00317387655451284
1580422479.34249,-1.0295567254139,-0.144289311055161,0.127199206530861
1580422479.37424,-1.01051346608682,0.142824444953078,0.158449683375295
1580422479.40598,-0.98268101014725,0.290775921263446,0.126222629129472
1580422479.43773,-1.02320897230488,0.329839017318989,0.241947051194018
1580422479.46948,-1.04908827344167,0.254642557412069,0.186282139314869
1580422479.50122,-1.08375677119097,0.0114747844663157,0.101319905394064
1580422479.53297,-1.2346379797055,-0.0769054703593497,0.190676737621118
1580422479.56472,-1.28786144808118,0.0788586251621268,0.320073243305103
1580422479.59647,-1.414328221561,0.283451590753032,0.314213778896772
1580422479.62821,-1.62673380636301,0.110109102006561,0.204837109941252
1580422479.65996,-1.35378042267491,-0.645273517967498,-0.0383306630045013
1580422479.69171,-1.09205767910277,-1.02809185931182,-0.547127489127947
1580422479.72345,-0.652109559777218,-0.157473105973907,0.12133974212253
1580422479.7552,-0.311284046692608,-0.526131074998093,-0.0642099641412983
1580422479.78695,-0.328374151216908,-0.722911421377889,-0.0896009765774011
1580422479.81869,-0.32642099641413,-0.650644693675135,-0.0891126878767068
1580422479.85043,-0.40845349813077,-0.722911421377889,-0.077393759060044
1580422479.88218,-0.531013962005035,-0.721446555275806,0.0280766002899213
1580422479.91393,-0.626718547341115,-0.354253452353705,0.0915541313801782
1580422479.94567,-1.03639276722362,-0.198489356832226,0.313237201495383
1580422479.97742,-1.27907225146868,-0.423590447852293,0.122804608224612
1580422480.00917,-1.2263370717937,-0.594003204394598,0.103761348897535
1580422480.04091,-0.977798123140307,-0.638437476157778,0.048096437018387
1580422480.07266,-0.905531395437553,-0.256595712214848,-0.0163576714732585
1580422480.10441,-0.957289997711147,-0.2434119172961,0.0661631189440754
1580422480.13615,-1.19850461585412,0.317143511100937,0.01196307316701
1580422480.1679,-1.01051346608682,0.272709239337757,0.658945601586939
1580422480.19965,-1.25123979552911,-0.247318226901655,-0.143312733653772
1580422480.2314,-1.14528114747845,-0.521736476691844,0.228274967574578
1580422480.26314,-0.965102616922255,-0.295170519569696,0.159914549477378
1580422480.29489,-0.983169298847944,-0.0578622110322726,-0.0866712443732354
1580422480.32664,-1.04615854123751,-0.0407721065079727,-0.287357900358588
1580422480.35838,-1.08424505989166,-0.329350728618296,-0.0075684748607614
1580422480.39013,-1.07740901808194,-0.142824444953078,0.0759288929579611
1580422480.42188,-0.952895399404898,0.112062256809338,0.0109864957656214
1580422480.45362,-1.01197833218891,-0.158937972075989,0.0236820019836728
1580422480.48537,-0.99293507286183,-0.188235294117646,0.0588387884336612
1580422480.51712,-0.987563897154192,-0.0256351567864499,0.0471198596169984
1580422480.54886,-1.04420538643473,-0.226321812771801,0.0432135500114441
1580422480.58061,-1.03199816891737,0.0109864957656214,0.109132524605172
1580422480.61236,-1.00904859998474,0.180910963607232,0.0939955748836496
1580422480.6441,-0.98951705195697,0.215579461356526,0.12133974212253
1580422480.67585,-1.05397116044862,0.229251544975966,0.250736247806515
1580422480.7076,-1.00563057907988,0.231692988479438,0.168703746089875
1580422480.73934,-1.06276035706111,0.0935072861829553,0.149172198062104
1580422480.77109,-1.16871900511177,0.0324711985961699,0.229739833676661
1580422480.80284,-1.28249027237354,0.105226214999618,0.341069657434957
1580422480.83459,-1.42067597467002,0.202883955138475,0.2775921263447
1580422480.86633,-1.62819867246509,0.0842298008697639,0.0891126878767068
1580422480.89808,-1.36208133058671,-0.602304112306401,0.0334477759975584
1580422480.92983,-1.04371709773404,-0.780041199359122,-0.610116731517509
1580422480.96157,-0.507087815671015,-0.399176012817579,-0.0700694285496297
1580422480.99332,-0.345464255741208,-0.579842832074464,-0.00122072175173571
1580422481.02507,-0.311772335393302,-0.796154726482033,-0.120851453421835
1580422481.05681,-0.351323720149539,-0.712169069962615,-0.120363164721141
1580422481.08856,-0.386968795300222,-0.70826276035706,0.0656748302433812
1580422481.12021,-0.569588769359884,-0.732677195391775,0.00952162966353853
1580422481.15196,-0.659433890287632,-0.447516594186313,0.102784771496147
1580422481.1837,-1.05397116044862,-0.177004654001678,0.157961394674601
1580422481.21545,-1.16578927290761,-0.413336385137713,0.179934386205844
1580422481.2472,-1.22536049439231,-0.640390630960555,0.00805676356145568
1580422481.27894,-1.00270084687572,-0.547615777828641,0.0266117341878385
1580422481.31069,-0.91090257114519,-0.0788586251621268,-0.0109864957656214
1580422481.34244,-0.959731441214618,-0.173098344396124,0.188723582818341
1580422481.37419,-1.08522163729305,0.126710917830167,0.166262302586404
1580422481.40593,-1.08424505989166,0.570565346761274,0.532967116807814
1580422481.43768,-1.21217669947356,0.142336156252384,0.073975738155184
1580422481.46943,-1.1579766536965,-0.491950865949493,-0.0681162737468526
1580422481.50118,-0.889906157015336,-0.80494392309453,0.131105516136415
1580422481.53292,-1.05250629434653,-0.247318226901655,0.127199206530861
1580422481.56467,-1.12135500114443,0.215091172655832,-0.103273060196841
1580422481.59642,-1.07985046158541,-0.423102159151599,-0.156984817273212
1580422481.62817,-1.03443961242084,-0.249271381704432,-0.0324711985961699
1580422481.65991,-1.01197833218891,0.196047913328755,0.10424963759823
1580422481.69166,-1.00904859998474,-0.102296482795452,0.0231937132829785
1580422481.72341,-0.986587319752804,-0.280033569848174,0.0134279392690928
1580422481.75515,-0.966567483024338,0.0461432822156098,0.00659189745937283
1580422481.7869,-0.907972838941024,0.080811779964904,0.0734874494544897
1580422481.81865,-1.03639276722362,-0.0954604409857325,0.0983901731898982
1580422481.8504,-1.05934233615625,-0.0192874036774242,0.160891126878766
1580422481.88214,-1.01734950789654,0.200930800335698,0.180422674906538
1580422481.91389,-1.04615854123751,0.201907377737086,0.230228122377355
1580422481.94564,-1.0207675288014,0.149660486762798,0.119874876020447
1580422481.97739,-1.10963607232776,0.0251468680857556,0.0554207675288012
1580422482.00913,-1.13942168307011,0.115968566414892,0.177981231403066
1580422482.04088,-1.24635690852216,0.245853360799572,0.299076829175249
1580422482.07263,-1.42555886167697,0.219974059662775,0.308842603189134
1580422482.10438,-1.54567788204776,0.0305180437933927,0.281498435950255
1580422482.13612,-1.29909208819715,-0.417242694743267,-0.0300297550926985
1580422482.16787,-1.13160906385901,-0.462165255207141,0.0471198596169984
1580422482.19962,-0.598397802700847,-0.726817730983443,-0.0295414663920042
1580422482.23136,-0.647226672770275,-0.871839475089647,-0.143801022354467
1580422482.26311,-0.376714732585642,-0.385015640497445,0.136476691844052
1580422482.29486,-0.167727168688486,-0.520759899290455,-0.0427252613107498
1580422482.32661,-0.431891355764096,-0.720958266575112,-0.116456855115587
1580422482.35836,-0.574471656366827,-0.837659266041047,-0.00854505226214997
1580422482.39001,-0.573495078965438,-0.753185320820936,0.0178225375753414
1580422482.42176,-0.731700617990386,-0.476325627527276,-0.0246585793850613
1580422482.45351,-1.02223239490349,-0.167727168688486,0.215579461356526
1580422482.48526,-1.30934615091173,-0.377203021286336,-0.00561532005798426
1580422482.517,-1.09401083390555,-0.705333028152895,0.096437018387121
1580422482.54875,-0.845471885252156,-0.457282368200199,0.0427252613107498
1580422482.58049,-0.878187228198673,-0.248294804303043,0.136964980544747
1580422482.61224,-1.11158922713054,-0.0612802319371326,-0.207766842145418
1580422482.64399,-1.25514610513466,0.3801327534905,0.884046692607004
1580422482.67574,-1.16188296330205,-0.234134431982909,-0.179934386205844
1580422482.70748,-1.27663080796521,-0.330815594720379,0.155519951171129
1580422482.73923,-0.855237659266042,-0.316166933699551,0.310795757991912
1580422482.77098,-0.881116960402839,-0.352788586251622,0.0393072404058898
1580422482.80272,-1.13795681696803,-0.0749523155565726,-0.196047913328755
1580422482.83447,-1.06520180056458,-0.155031662470435,-0.101808194094758
1580422482.86622,-1.07301441977569,-0.0979018844892039,0.0466315709163041
1580422482.89796,-1.00221255817502,-0.0881361104753182,0.0627450980392155
1580422482.92971,-1.0041657129778,-0.133546959639887,0.0407721065079727
1580422482.96146,-0.997329671168078,-0.153566796368352,0.0715342946517126
1580422482.9932,-0.962661173418784,-0.126710917830167,0.070557717250324
1580422483.02495,-0.983169298847944,-0.180910963607232,-0.00219729915312428
1580422483.0567,-1.05690089265278,-0.181887541008621,0.0461432822156098
1580422483.08844,-1.04469367513542,-0.0441901274128327,0.115480277714198
1580422483.12019,-1.0124666208896,0.099855039291981,0.0734874494544897
1580422483.15194,-0.987563897154192,0.276615548943312,0.108644235904478
1580422483.18369,-1.01100175478752,0.222903791866941,0.152590218966964
1580422483.21543,-1.06813153276875,0.191653315022506,0.192629892423895
1580422483.24718,-1.09938200961318,0.109132524605172,0.170168612191958
1580422483.27893,-1.24147402151522,0.106202792401007,0.237552452887769
1580422483.31067,-1.27565423056382,0.204837109941252,0.391851682307163
1580422483.34242,-1.50368505378805,0.204348821240558,0.401617456321048
1580422483.37417,-1.49733730067903,-0.157473105973907,0.119386587319752
1580422483.40591,-1.24196231021591,-0.580819409475852,0.0939955748836496
1580422483.43766,-1.18873884184024,-0.537850003814755,-0.486091401541161
1580422483.46941,-0.589120317387655,-0.622323949034866,-0.118410009918364
1580422483.50115,-0.454840924696727,-0.643808651865415,0.0822766460669868
1580422483.5329,-0.200442511635003,-0.630136568245975,0.041260395208667
1580422483.56465,-0.278080415045396,-0.715587090867475,-0.186282139314869
1580422483.5964,-0.391851682307164,-0.690684367132066,-0.0158693827725642
1580422483.62814,-0.464606698710613,-0.733653772793163,-0.0163576714732585
1580422483.65982,-0.651132982375829,-0.70142671854734,-0.0173342488746471
1580422483.69157,-0.851819638361182,-0.497810330357824,0.0793469138628211
1580422483.72331,-1.04420538643473,-0.129640650034332,0.292729076066223
1580422483.75506,-1.45925078202487,-0.344975967040513,-0.037842374303807
1580422483.78681,-1.06520180056458,-0.742931258106355,0.109620813305867
1580422483.81855,-0.84254215304799,-0.409918364232853,-0.044678416113527
1580422483.8503,-0.95875486381323,-0.196047913328755,0.080811779964904
1580422483.88205,-1.07692072938125,0.409918364232851,-0.0183108262760356
1580422483.91379,-1.11256580453193,0.251224536507209,0.388433661402303
1580422483.94554,-1.414328221561,-0.470466163118944,-0.236087586785686
1580422483.97729,-1.0466468299382,-0.623300526436255,0.415289539940488
1580422484.00904,-0.87672236209659,-0.245365072098878,0.120851453421835
1580422484.04078,-1.02613870450904,0.119874876020447,-0.207278553444723
1580422484.07253,-1.10084687571527,-0.230228122377355,-0.224856946669718
1580422484.10428,-1.06813153276875,-0.491950865949493,-0.0227054245822842
1580422484.13602,-1.04908827344167,0.136476691844052,0.101319905394064
1580422484.16777,-0.977309834439613,0.116945143816281,0.0397955291065841
1580422484.19952,-1.01441977569238,-0.284428168154422,0.0358892195010299
1580422484.23126,-0.987563897154192,-0.106691081101701,0.000732433051041426
1580422484.26301,-0.964126039520867,-0.0744640268558783,0.0236820019836728
1580422484.29476,-1.04127565423056,-0.309330891889831,0.0285648889906156
1580422484.3265,-1.03981078812848,-0.0983901731898982,0.0817883573662925
1580422484.35825,-1.02467383840696,0.125246051728084,0.0949721522850382
1580422484.39,-0.97242694743267,0.239505607690546,0.139406424048218
1580422484.42174,-1.02565041580835,0.319584954604409,0.193606469825284
1580422484.45349,-1.07692072938125,0.145265888456549,0.237064164187075
1580422484.48524,-1.05787747005417,0.245853360799572,0.131105516136415
1580422484.51699,-1.20680552376593,0.273685816739146,0.284916456855115
1580422484.54873,-1.36696421759365,0.31860837720302,0.44507515068284
1580422484.58048,-1.56423285267414,0.130128938735027,0.409430075532157
1580422484.61223,-1.50417334248875,-0.294193942168308,0.0485847257190812
1580422484.64397,-1.33083085374228,-0.629648279545281,0.0817883573662925
1580422484.67572,-1.06569008926528,-0.510505836575875,-0.234622720683603
1580422484.70747,-0.220462348363469,-0.938735027084764,-0.110109102006561
1580422484.73921,-0.469489585717556,-0.650644693675135,-0.0788586251621268
1580422484.77096,-0.192141603723201,-0.177981231403066,0.227786678873883
1580422484.80271,-0.274662394140536,-0.550057221332112,-0.106691081101701
1580422484.83445,-0.598397802700847,-0.859143968871596,-0.115480277714198
1580422484.8662,-0.610605020218204,-0.930922407873656,-0.024170290684367
1580422484.89795,-0.637460898756389,-0.620859082932784,0.060303654535744
1580422484.92969,-0.865491721980622,-0.201419089036392,0.162355992980849
1580422484.96143,-1.22194247348745,-0.137941557946135,0.237552452887769
1580422484.99318,-1.39479667353323,-0.563241016250858,-0.0422369726100555
1580422485.02493,-0.96559090562295,-0.496833752956436,0.101808194094758
1580422485.05667,-0.882093537804227,-0.0432135500114441,0.0837415121690697
1580422485.08842,-0.922133211261158,-0.378667887388419,0.0476081483176927
1580422485.12017,-1.21071183337148,0.224368657969023,-0.0710460059510183
1580422485.15191,-0.909925993743801,0.355230029755091,0.651621271076525
1580422485.18366,-1.21705958648051,-0.258548867017625,-0.273197528038454
1580422485.21541,-1.34401464866102,-0.460700389105059,0.132570382238498
1580422485.24716,-0.947035934996567,-0.228274967574578,0.185305561913481
1580422485.2789,-0.871839475089647,-0.208743419546806,0.0510261692225527
1580422485.31065,-1.05104142824445,0.0803234912642097,-0.199465934233615
1580422485.3424,-1.05836575875486,-0.218509193560692,-0.0295414663920042
1580422485.37414,-1.06129549095903,-0.252201113908599,0.0383306630045013
1580422485.40589,-0.998306248569467,0.132082093537804,0.070557717250324
1580422485.43764,-1.02272068360418,-0.159914549477378,0.0598153658350498
1580422485.46938,-1.02174410620279,-0.280521858548868,0.031006332494087
1580422485.50113,-0.966567483024338,0.0158693827725642,-0.0183108262760356
1580422485.53288,-0.991958495460441,-0.171633478294041,0.0153810940718699
1580422485.56462,-1.0471351186389,-0.252201113908599,0.0842298008697639
1580422485.59637,-1.03102159151598,-0.0451667048142212,0.0520027466239412
1580422485.62812,-0.994888227664607,0.156496528572518,0.0466315709163041
1580422485.65986,-1.00465400167849,0.233646143282215,0.110109102006561
1580422485.69161,-1.03248645761807,0.208255130846112,0.188235294117646
1580422485.72336,-0.984634164950027,0.268802929732203,0.234134431982909
1580422485.75511,-1.14381628137636,0.0417486839093613,0.220462348363469
1580422485.78685,-1.22829022659647,0.0910658426794839,0.299076829175249
1580422485.8186,-1.33864347295338,0.172121766994735,0.401617456321048
1580422485.85035,-1.50954451819638,0.172121766994735,0.337651636530097
1580422485.88209,-1.55593194476234,-0.331792172121768,0.0656748302433812
1580422485.91384,-1.30153353170062,-0.550545510032807,-0.0046387426565957
1580422485.94559,-0.967055771725033,-0.612558175020981,-0.307377737087053
1580422485.97733,-0.357671473258565,-0.749767299916074,-0.322026398107882
1580422486.00908,-0.518806744487678,-0.434821087968261,0.206301976043335
1580422486.04083,-0.201419089036392,-0.344487678339819,0.0656748302433812
1580422486.07257,-0.299076829175251,-0.690684367132066,-0.0988784618905925
1580422486.10432,-0.573983367666132,-0.651621271076523,-0.0622568093385212
1580422486.13607,-0.613046463721675,-0.76734569314107,-0.0217288471808956
1580422486.16781,-0.629648279545281,-0.692149233234149,-0.024170290684367
1580422486.19952,-0.873792629892424,-0.418219272144656,0.130128938735027
1580422486.23127,-1.10377660791943,-0.313237201495385,0.116456855115587
1580422486.26302,-1.25123979552911,-0.611093308918898,-0.00805676356145568
1580422486.29476,-1.01344319829099,-0.820569161516747,0.060303654535744
1580422486.32651,-0.861097123674373,-0.218997482261386,0.161379415579461
1580422486.35826,-0.998794537270161,-0.211184863050278,0.282475013351643
1580422486.39,-1.26295872434577,0.453376058594642,0.398687724116883
1580422486.42175,-1.02320897230488,0.112062256809338,-0.172121766994735
1580422486.4535,-1.34792095826658,-0.454352635996033,0.130128938735027
1580422486.48524,-0.977309834439613,-0.455329213397421,0.396246280613411
1580422486.51699,-1.02858014801251,0.0983901731898982,0.0622568093385212
1580422486.54874,-1.06324864576181,0.148683909361409,-0.192629892423895
1580422486.58049,-1.02565041580835,-0.425055313954376,-0.106202792401007
1580422486.61223,-1.03932249942779,-0.413824673838407,-0.00317387655451284
1580422486.64398,-1.00465400167849,0.041260395208667,0.163332570382238
1580422486.67573,-0.954360265506981,0.155519951171129,0.0534676127260241
1580422486.70747,-1.00172426947433,-0.311772335393302,-0.00512703135728998
1580422486.73922,-0.981216144045167,-0.211673151750972,0.0759288929579611
1580422486.77097,-1.02565041580835,0.0471198596169984,0.0217288471808956
1580422486.80271,-1.05055313954376,-0.107179369802395,0.105226214999618
1580422486.83446,-0.944106202792401,0.217044327458609,0.164797436484321
1580422486.86621,-0.952407110704204,0.365972381170366,0.149660486762798
1580422486.89795,-1.02369726100557,0.141847867551689,0.148683909361409
1580422486.9297,-1.00660715648127,0.0817883573662925,0.148683909361409
1580422486.96145,-1.07447928587777,0.0349126420996413,0.160891126878766
1580422486.99319,-1.09498741130693,-0.0187991149767299,0.110109102006561
1580422487.02494,-1.27125963225757,0.145754177157244,0.271244373235675
1580422487.05669,-1.41188677805753,0.228763256275272,0.344487678339817
1580422487.08844,-1.60866712443732,-0.105226214999618,0.228274967574578
1580422487.12018,-1.47243457694362,-0.596932936598764,-0.0471198596169984
1580422487.15193,-1.30983443961242,-0.438239108873121,-0.140871290150301
1580422487.18368,-0.583749141680018,-0.562752727550164,-0.0930189974822611
1580422487.21542,-0.42896162355993,-1.04176394293126,-0.193118181124589
1580422487.24717,-0.50415808346685,-0.417730983443962,0.244388494697489
1580422487.27892,-0.10083161669337,-0.141359578850995,0.158449683375295
1580422487.31066,-0.336186770428016,-0.691660944533455,-0.11108567940795
1580422487.34241,-0.760997940032045,-0.975356679636835,-0.0847180895704582
1580422487.37416,-0.535896849011978,-0.795666437781339,-0.0251468680857556
1580422487.4059,-0.646738384069581,-0.414312962539102,0.0656748302433812
1580422487.43765,-0.984145876249332,0.110597390707255,0.294193942168306
1580422487.46939,-1.32301823453117,-0.285404745555811,0.12475776302739
1580422487.50114,-1.22926680399786,-0.874280918593119,0.0607919432364383
1580422487.53288,-0.918226901655604,-0.467536430914778,0.00122072175173571
1580422487.56463,-0.891371023117419,-0.0192874036774242,0.0881361104753182
1580422487.59638,-1.01783779659724,-0.316655222400245,0.0886243991760125
1580422487.62812,-1.38405432211795,0.642832074464028,0.729259174486916
1580422487.65987,-0.85279621576257,0.191165026321812,-0.126222629129472
1580422487.69162,-1.30592813000687,-0.51099412527657,0.0861829556725411
1580422487.72336,-1.02223239490349,-0.581307698176547,0.271732661936369
1580422487.75511,-1.00563057907988,-0.355230029755093,0.0622568093385212
1580422487.78686,-1.09205767910277,-0.176516365300984,0.0266117341878385
1580422487.81861,-1.08619821469444,-0.0847180895704582,-0.077393759060044
1580422487.85035,-1.06276035706111,-0.191653315022506,-0.00659189745937283
1580422487.8821,-1.02272068360418,-0.0607919432364383,0.096437018387121
1580422487.91385,-0.983657587548638,-0.0300297550926985,0.0822766460669868
1580422487.94559,-0.971450370031281,-0.0852063782711525,0.0861829556725411
1580422487.97734,-0.991958495460441,-0.0729991607537954,0.0573739223315783
1580422488.00909,-1.00025940337224,-0.201419089036392,-0.0227054245822842
1580422488.04083,-1.04762340733959,-0.249759670405126,0.0158693827725642
1580422488.07258,-1.04274052033265,0.00805676356145568,0.0471198596169984
1580422488.10433,-0.981704432745861,0.261966887922483,0.119874876020447
1580422488.13608,-0.987075608453498,0.289311055161363,0.194583047226672
1580422488.16782,-0.947524223697261,0.315678644998854,0.217044327458609
1580422488.19957,-1.10377660791943,-0.0651865415426869,0.077393759060044
1580422488.23131,-1.06715495536736,-0.157473105973907,0.106691081101701
1580422488.26306,-1.10817120622568,-0.0339360646982527,0.175051499198901
1580422488.29481,-1.24977492942702,0.0573739223315783,0.242435339894712
1580422488.32656,-1.45632104982071,0.230716411078049,0.371831845578697
1580422488.3583,-1.56667429617761,-0.0666514076447697,0.259525444419012
1580422488.39005,-1.4568093385214,-0.431403067063401,0.222903791866941
1580422488.4218,-1.11940184634165,-0.747814145113297,-0.445075150682841
1580422488.45354,-0.671152819104295,-0.587167162584878,-0.164309147783626
1580422488.48529,-0.549080643930724,-0.524177920195315,0.0505378805218584
1580422488.51704,-0.312748912794691,-0.710704203860532,-0.0954604409857325
1580422488.54878,-0.322514686808576,-0.800549324788282,-0.195071335927366
1580422488.58053,-0.34692912184329,-0.774670023651485,-0.131593804837109
1580422488.61228,-0.357671473258565,-0.697520408941786,-0.0046387426565957
1580422488.64402,-0.482185091935607,-0.573006790264744,-0.0627450980392155
1580422488.67577,-0.847425040054933,-0.298100251773862,0.145265888456549
1580422488.70752,-1.15700007629511,-0.238529030289158,0.306401159685663
1580422488.73926,-1.38063630121309,-0.681406881818875,-0.101319905394064
1580422488.771,-1.06178377965972,-0.935317006179904,-0.00561532005798426
1580422488.80275,-0.922621499961853,-0.531990539406424,-0.00317387655451284
1580422488.8345,-0.896253910124361,-0.442145418478676,0.0710460059510183
1580422488.86625,-1.12770275425345,0.123292896925307,-0.0168459601739528
1580422488.89799,-1.10475318532082,0.34253452353704,0.858167391470207
1580422488.92974,-1.2517280842298,-0.357671473258565,-0.342046234836348
1580422488.96148,-1.12086671244373,-0.312260624093996,0.162844281681544
1580422488.99323,-0.872327763790341,-0.213138017853055,0.258060578316929
1580422489.02498,-1.03492790112154,-0.198489356832226,-0.0847180895704582
1580422489.05673,-1.13014419775692,-0.0324711985961699,-0.146730754558632
1580422489.08847,-1.04957656214237,-0.265384908827345,-0.0109864957656214
1580422489.12022,-1.06715495536736,-0.189700160219729,0.0114747844663157
1580422489.15197,-0.985122453650721,-0.165285725185015,-0.0183108262760356
1580422489.18371,-0.981704432745861,-0.264896620126651,0.0515144579232469
1580422489.21546,-0.983169298847944,-0.153078507667658,0.0397955291065841
1580422489.24721,-0.990493629358358,-0.0813000686655982,-0.0192874036774242
1580422489.27895,-1.03981078812848,-0.167238879987792,-0.0266117341878385
1580422489.3107,-1.03443961242084,-0.0354009308003356,0.113038834210727
1580422489.34245,-0.992446784161135,0.183352407110704,0.129152361333638
1580422489.37419,-1.0637369344625,0.125734340428778,0.0847180895704582
1580422489.40594,-1.03199816891737,0.191165026321812,0.194583047226672
1580422489.43769,-1.03736934462501,0.183840695811398,0.215091172655832
1580422489.46943,-1.06471351186389,0.12475776302739,0.135500114442664
1580422489.50118,-1.19508659494926,-0.0588387884336612,0.103761348897535
1580422489.53293,-1.2175478751812,0.0432135500114441,0.186282139314869
1580422489.56468,-1.28395513847562,0.175539787899595,0.218997482261386
1580422489.59642,-1.51149767299916,0.176028076600289,0.333257038223849
1580422489.62817,-1.46120393682765,-0.147707331960021,0.0197756923781185
1580422489.65992,-1.25661097123674,-0.385503929198139,0.218509193560692
1580422489.69166,-0.915297169451438,-0.654062714579995,-0.273685816739148
1580422489.72341,-0.542244602121004,-0.823010605020219,-0.154055085069047
1580422489.75516,-0.572030212863355,-0.571053635461967,0.161867704280155
1580422489.7869,-0.162355992980849,-0.410894941634242,0.218020904859998
1580422489.81865,-0.378667887388419,-0.740978103303577,-0.0563973449301898
1580422489.8504,-0.496345464255741,-0.80152590218967,-0.0153810940718699
1580422489.88214,-0.567147325856412,-0.780041199359122,0.0539559014267184
1580422489.91389,-0.628671702143892,-0.489509422446021,0.182864118410009
1580422489.94564,-0.994888227664607,-0.410894941634242,0.190676737621118
1580422489.97739,-1.28786144808118,-0.516853589684901,0.0183108262760356
1580422490.00916,-1.20534065766384,-0.699961852445258,0.0319829098954756
1580422490.0409,-0.856702525368124,-0.878675516899367,-0.070557717250324
1580422490.07265,-0.891859311818113,-0.484626535439078,-0.0363775082017241
1580422490.10439,-1.04615854123751,0.0144045166704814,-0.102784771496147
1580422490.13614,-1.2942092011902,0.386480506599526,0.807385366598002
1580422490.16789,-1.17750820172427,-0.0676279850461583,0.0578622110322726
1580422490.19964,-1.1320973525597,-0.594003204394598,0.0212405584802013
1580422490.23138,-0.97584496833753,-0.315678644998856,0.184817273212786
1580422490.26313,-1.02858014801251,-0.131593804837109,-0.173586633096818
1580422490.29488,-1.14821087968261,-0.233646143282215,-0.144777599755855
1580422490.32662,-1.04322880903334,-0.32300297550927,0.0300297550926985
1580422490.35837,-1.03248645761807,-0.0764171816586554,0.0744640268558783
1580422490.39012,-0.968520637827115,-0.0632333867399097,0.0661631189440754
1580422490.42186,-0.944106202792401,-0.231692988479438,0.0788586251621268
1580422490.45361,-0.991470206759747,-0.107179369802395,0.0935072861829553
1580422490.48536,-1.00074769207294,-0.0969253070878153,0.0212405584802013
1580422490.5171,-1.04518196383612,-0.169192034790569,-0.0153810940718699
1580422490.54885,-1.11158922713054,-0.0490730144197755,0.080811779964904
1580422490.5806,-1.03053330281529,0.208743419546806,0.135500114442664
1580422490.61234,-0.946547646295873,0.299076829175249,0.211673151750972
1580422490.64409,-1.00807202258335,0.411383230334934,0.310795757991912
1580422490.67584,-0.940199893186847,0.52222476539254,0.355718318455786
1580422490.70759,-1.09840543221179,0.204348821240558,0.278080415045395
1580422490.73933,-1.4309300373846,-0.249759670405126,0.406988632028686
1580422490.77108,-1.5510490577554,-0.227786678873883,0.204348821240558
1580422490.80283,-1.73513389791714,-0.292729076066225,-0.177004654001678
1580422490.83457,-1.28688487067979,-0.439703974975204,-0.0280766002899213
1580422490.86632,-0.728282597085526,-0.711192492561226,-0.160402838178072
1580422490.89807,-0.180422674906538,-1.31325246051728,-0.135988403143358
1580422490.92981,-0.469001297016861,-0.238529030289158,-0.10424963759823
1580422490.96156,-0.274662394140536,0.133058670939192,0.353276874952314
1580422490.99331,-0.441657129777981,-0.716563668268863,-0.0573739223315783
1580422491.02505,-0.733653772793163,-1.21559472037842,0.0451667048142212
1580422491.0568,-0.44946974898909,-0.928480964370184,-0.0471198596169984
1580422491.08855,-0.421637293049516,-0.395269703212024,0.0236820019836728
1580422491.12029,-0.858655680170902,0.0778820477607383,0.0686045624475469
1580422491.15204,-1.25123979552911,-0.034424353398947,0.226321812771801
1580422491.18379,-1.24391546501869,-0.653086137178606,0.0422369726100555
1580422491.21554,-1.0642252231632,-0.6877546349279,0.0158693827725642
1580422491.24728,-0.891371023117419,-0.0397955291065841,0.0461432822156098
1580422491.27771,-0.862073701075762,-0.195559624628061,0.0695811398489354
1580422491.30945,-1.04567025253681,-0.522713054093233,0.0178225375753414
1580422491.3412,-1.34108491645686,0.753185320820936,0.571053635461968
1580422491.37294,-1.02272068360418,0.240970473792629,0.227298390173189
1580422491.40469,-1.30885786221103,-0.438727397573816,-0.0534676127260241
1580422491.43643,-0.958266575112535,-0.583260852979324,0.306401159685663
1580422491.46818,-0.885999847409781,-0.257084000915542,-0.0861829556725411
1580422491.49992,-1.07106126497291,-0.0407721065079727,-0.0988784618905925
1580422491.53166,-1.10572976272221,-0.0231937132829785,-0.00170901045242999
1580422491.56341,-1.09596398870832,-0.153566796368352,0.0568856336308841
1580422491.59515,-1.04957656214237,-0.138918135347524,0.0847180895704582
1580422491.6269,-0.958266575112535,-0.124269474326695,0.031006332494087
1580422491.65864,-0.997329671168078,-0.265873197528039,0.0622568093385212
1580422491.69039,-0.994888227664607,-0.117433432516975,0.0520027466239412
1580422491.72213,-0.971938658731975,-0.116945143816281,0.000732433051041426
1580422491.75388,-1.0471351186389,-0.173586633096818,-0.0178225375753414
1580422491.78562,-1.02320897230488,0.000732433051041426,0.140383001449607
1580422491.81737,-0.97926298924239,0.182375829709315,0.136964980544747
1580422491.84911,-1.00807202258335,0.190676737621118,0.100343327992675
1580422491.88085,-0.997817959868772,0.193118181124589,0.168215457389181
1580422491.9126,-0.97584496833753,0.202883955138475,0.187747005416952
1580422491.94434,-1.12770275425345,-0.143312733653772,0.0778820477607383
1580422491.97609,-1.17360189211871,-0.103273060196841,0.0866712443732354
1580422492.00783,-1.21998931868467,0.100343327992675,0.177004654001678
1580422492.03958,-1.32448310063325,0.128664072632944,0.218509193560692
1580422492.07132,-1.40651560234989,0.137941557946135,0.31860837720302
1580422492.10307,-1.38747234302281,-0.128664072632944,0.0256351567864499
1580422492.13481,-1.19557488364996,-0.437262531471733,0.258548867017623
1580422492.16655,-0.990981918059052,-0.663828488593881,-0.204837109941252
1580422492.1983,-0.656992446784161,-0.729747463187609,-0.0827649347676811
1580422492.23004,-0.621835660334172,-0.522224765392538,0.128664072632944
1580422492.26179,-0.312748912794691,-0.467536430914778,0.173098344396124
1580422492.29353,-0.392828259708553,-0.829358358129245,-0.0734874494544897
1580422492.32528,-0.461188677805753,-0.77759975585565,-0.0559090562294955
1580422492.35702,-0.383062485694667,-0.702403295948729,0.0368657969024184
1580422492.38877,-0.591561760891127,-0.666758220798046,0.0744640268558783
1580422492.42051,-0.840588998245213,-0.358159761959259,0.163332570382238
1580422492.45226,-1.15455863279164,-0.190676737621118,0.219974059662775
1580422492.484,-1.31081101701381,-0.683360036621652,-0.226321812771801
1580422492.51574,-1.03590447852293,-1.11158922713054,-0.126710917830167
1580422492.54755,-0.83912413214313,-0.560799572747387,-0.0832532234683754
1580422492.57929,-0.962661173418784,-0.216067750057221,0.0856946669718468
1580422492.61103,-1.26540016784924,0.635996032654308,0.364995803768977
1580422492.64278,-0.99635309376669,0.257572289616235,0.182864118410009
1580422492.67452,-1.52712291142138,-0.574471656366827,-0.174074921797512
1580422492.70627,-0.906996261539636,-0.622323949034866,0.206790264744029
1580422492.73801,-0.90748455024033,-0.206790264744029,0.0803234912642097
1580422492.76976,-1.1237964446479,0.109132524605172,0.00854505226214997
1580422492.8015,-1.10280003051804,-0.126710917830167,-0.070557717250324
1580422492.83325,-1.05104142824445,-0.419684138246739,0.0163576714732585
1580422492.86499,-1.00318913557641,-0.0905775539787896,0.128175783932249
1580422492.89673,-0.966079194323644,0.158937972075989,0.0524910353246355
1580422492.92848,-1.00465400167849,-0.231692988479438,0.0383306630045013
1580422492.96022,-0.99977111467155,-0.34009308003357,0.0285648889906156
1580422492.99197,-1.01051346608682,-0.0432135500114441,0.0168459601739528
1580422493.02371,-1.0471351186389,0.0393072404058898,0.115480277714198
1580422493.05546,-0.97584496833753,0.216556038757915,0.206790264744029
1580422493.0872,-1.02809185931182,0.219485770962081,0.0925307087815668
1580422493.11895,-1.00660715648127,0.239505607690546,0.116456855115587
1580422493.15069,-0.957289997711147,0.3459525444419,0.204348821240558
1580422493.18244,-1.05836575875486,0.162355992980849,0.190188448920424
1580422493.21418,-1.14772259098192,-0.0134279392690928,0.131105516136415
1580422493.24592,-1.22145418478675,0.0720225833524069,0.224368657969023
1580422493.27767,-1.37380025940337,0.164797436484321,0.294682230869
1580422493.30941,-1.49684901197833,0.191653315022506,0.375738155184251
1580422493.34116,-1.52224002441443,-0.208743419546806,0.127687495231555
1580422493.3729,-1.24782177462425,-0.534431982909895,0.0163576714732585
1580422493.40465,-0.957778286411841,-0.649668116273746,-0.398687724116884
1580422493.43639,-0.52808422980087,-0.70142671854734,-0.0754406042572668
1580422493.46814,-0.508064393072404,-0.609628442816815,0.0974135957885096
1580422493.49988,-0.124269474326695,-0.46314183260853,0.0710460059510183
1580422493.53163,-0.223880369268329,-0.703868162050812,-0.190676737621118
1580422493.56337,-0.400640878919662,-0.696543831540398,-0.0427252613107498
1580422493.59511,-0.49732204165713,-0.747325856412603,-0.0217288471808956
1580422493.62686,-0.660410467689021,-0.707286182955672,-0.0866712443732354
1580422493.6586,-0.810803387502862,-0.334721904325933,0.242435339894712
1580422493.69035,-1.29909208819715,-0.0974135957885096,0.23999389639124
1580422493.72209,-1.42555886167697,-0.489997711146716,0.0368657969024184
1580422493.75384,-1.01197833218891,-0.917250324254216,0.0837415121690697
1580422493.78558,-0.844007019150073,-0.343999389639125,-0.0832532234683754
1580422493.81744,-1.0642252231632,0.0046387426565957,0.170168612191958
1580422493.84919,-1.40016784924086,0.734630350194553,0.981704432745861
1580422493.88093,-0.854749370565347,0.0417486839093613,-0.105714503700312
1580422493.91268,-1.38356603341726,-0.368902113374533,0.123781185626001
1580422493.94442,-0.952895399404898,-0.502693217364767,0.445563439383534
1580422493.97617,-0.920668345159076,-0.324956130312048,0.099855039291981
1580422494.00791,-1.11598382543679,0.309819180590523,0.0280766002899213
1580422494.03966,-1.03736934462501,0.00903334096284425,-0.108155947203784
1580422494.0714,-1.06227206836042,-0.404058899824522,-0.027588311589227
1580422494.10315,-1.03639276722362,-0.132082093537804,0.0666514076447697
1580422494.13489,-0.954360265506981,0.0197756923781185,0.112062256809338
1580422494.16664,-1.03297474631876,-0.158449683375295,0.0476081483176927
1580422494.19838,-0.983169298847944,-0.184328984512092,-0.00659189745937283
1580422494.23013,-0.97926298924239,-0.160891126878766,-0.0329594872968642
1580422494.26187,-1.0207675288014,-0.123292896925307,0.0383306630045013
1580422494.29362,-1.02174410620279,-0.0266117341878385,0.133058670939192
1580422494.32536,-0.940688181887541,0.303959716182192,0.173098344396124
1580422494.35711,-1.02223239490349,0.230228122377355,0.170656900892652
1580422494.38885,-1.02565041580835,0.204837109941252,0.172121766994735
1580422494.4206,-1.06129549095903,0.188235294117646,0.174074921797512
1580422494.45234,-1.08326848249027,-0.027588311589227,0.100343327992675
1580422494.48409,-1.23610284580758,-0.0642099641412983,0.0983901731898982
1580422494.51583,-1.21412985427634,0.143312733653772,0.2775921263447
1580422494.54758,-1.35133897917144,0.28101014724956,0.3459525444419
1580422494.57932,-1.5422598611429,0.0324711985961699,0.330327306019683
1580422494.61107,-1.36891737239643,-0.484138246738384,-0.0393072404058898
1580422494.64281,-1.16237125200275,-0.594003204394598,-0.0764171816586554
1580422494.67456,-0.660410467689021,-0.503669794766155,0.0202639810788128
1580422494.7063,-0.552498664835584,-0.793713282978562,-0.0783703364614325
1580422494.73805,-0.397222858014802,-0.517341878385595,0.0969253070878153
1580422494.76979,-0.126222629129472,-0.533455405508507,-0.031006332494087
1580422494.80154,-0.341557946135653,-0.647714961470969,-0.171145189593346
1580422494.83328,-0.56568245975433,-0.679942015716792,-0.0285648889906156
1580422494.86503,-0.514900434882124,-0.686778057526512,0.0661631189440754
1580422494.89677,-0.711192492561226,-0.539314869916838,-0.0251468680857556
1580422494.92852,-0.894789044022279,-0.209231708247501,0.208743419546806
1580422494.96026,-1.35280384527352,-0.258548867017625,0.0178225375753414
1580422494.99201,-1.30397497520409,-0.660410467689021,0.00317387655451284
1580422495.02375,-0.963637750820173,-0.789806973373008,0.0729991607537954
1580422495.0555,-0.86988632028687,-0.174074921797512,0.129640650034332
1580422495.08734,-1.0207675288014,-0.165285725185015,0.26733806363012
1580422495.11909,-1.2693064774548,0.688242923628597,0.567635614557108
1580422495.15083,-0.948989089799344,0.218020904859998,-0.0905775539787896
1580422495.18258,-1.50954451819638,-0.737071793698023,-0.110597390707255
1580422495.21432,-1.0471351186389,-0.551522087434195,0.39380483710994
1580422495.24607,-0.90748455024033,0.0837415121690697,-0.00219729915312428
1580422495.27781,-1.01051346608682,0.0437018387121384,-0.251712825207905
1580422495.30956,-1.05690089265278,-0.380132753490502,-0.0383306630045013
1580422495.3413,-1.08180361638819,-0.293217364766919,0.0271000228885327
1580422495.37305,-1.01393148699168,0.184817273212786,0.102296482795452
1580422495.40479,-1.00514229037919,-0.0471198596169984,0.0285648889906156
1580422495.43653,-1.01344319829099,-0.250736247806516,0.0124513618677042
1580422495.46828,-0.989028763256275,0.00659189745937283,0.0305180437933927
1580422495.50003,-0.974868390936141,-0.0129396505683985,0.0114747844663157
1580422495.53177,-1.0383459220264,-0.193118181124589,0.0764171816586554
1580422495.56351,-1.01783779659724,0.00122072175173571,0.171633478294041
1580422495.59526,-1.01393148699168,0.251712825207903,0.148195620660715
1580422495.627,-0.997329671168078,0.177492942702372,0.10766765850309
1580422495.65875,-1.01930266269932,0.183840695811398,0.117433432516975
1580422495.6905,-1.03492790112154,0.185305561913481,0.161379415579461
1580422495.72224,-1.12037842374304,0.0231937132829785,0.0954604409857325
1580422495.75398,-1.18434424353399,-0.100343327992675,0.125734340428778
1580422495.78573,-1.23805600061036,0.0139162279697871,0.245365072098878
1580422495.81747,-1.35671015487907,0.288822766460669,0.219485770962081
1580422495.84922,-1.46462195773251,0.701426718547342,0.501228351262686
1580422495.88096,-1.46901655603876,0.379644464789806,0.300053406576637
1580422495.91271,-1.26344701304646,-0.452399481193256,-0.137941557946135
1580422495.94445,-1.06910811017014,-0.951430533302815,-0.566170748455024
1580422495.9762,-0.571053635461967,-0.787365529869536,-0.447516594186313
1580422496.00794,-0.448493171587701,-0.473884184023804,-0.027588311589227
1580422496.03969,-0.183840695811398,-0.814221408407722,-0.211184863050278
1580422496.07143,-0.316655222400245,-0.815686274509805,-0.127199206530861
1580422496.10318,-0.251224536507211,-0.454840924696727,-0.0271000228885327
1580422496.13492,-0.512947280079347,-0.530037384603647,-0.0046387426565957
1580422496.16667,-0.788342107270925,-0.38110933089189,0.232669565880826
1580422496.19841,-0.980727855344472,-0.71509880216678,0.208255130846112
1580422496.23016,-1.43532463569085,-0.78101777676051,-0.0607919432364383
1580422496.2619,-1.05104142824445,-0.708751049057755,-0.0598153658350498
1580422496.29365,-0.950942244602121,-0.465583276112001,0.0422369726100555
1580422496.32539,-1.04420538643473,-0.492927443350881,-0.129152361333638
1580422496.35724,-1.11598382543679,0.201907377737086,0.385503929198137
1580422496.38898,-1.29860379949645,-0.128664072632944,0.148195620660715
1580422496.42073,-1.33131914244297,-0.296635385671779,-0.0349126420996413
1580422496.45247,-0.852307927061876,-0.121828030823224,0.306401159685663
1580422496.48422,-1.01002517738613,-0.240970473792629,-0.140383001449607
1580422496.51596,-1.01686121919585,-0.349858854047456,-0.143801022354467
1580422496.54771,-1.1150072480354,-0.0529793240253298,0.0383306630045013
1580422496.57945,-1.06666666666667,-0.0466315709163041,0.107179369802395
1580422496.6112,-0.977309834439613,-0.0432135500114441,0.0632333867399097
1580422496.64294,-0.985122453650721,-0.111573968108644,0.0510261692225527
1580422496.67469,-0.994888227664607,-0.167238879987792,0.0593270771343555
1580422496.70643,-0.969985503929198,-0.141359578850995,-0.0280766002899213
1580422496.73818,-0.984634164950027,-0.189700160219729,-0.119386587319752
1580422496.76992,-1.04957656214237,-0.23999389639124,-0.00903334096284425
1580422496.80167,-0.995864805065995,-0.00219729915312428,0.178957808804455
1580422496.83341,-0.949965667200733,0.27417410543984,0.170168612191958
1580422496.86516,-0.950453955901427,0.290775921263446,0.148683909361409
1580422496.8969,-0.99293507286183,0.246341649500266,0.216556038757915
1580422496.92865,-1.16383611810483,0.12133974212253,0.184817273212786
1580422496.96039,-1.24635690852216,0.0798352025635154,0.208255130846112
1580422496.99214,-1.37526512550546,0.266361486228732,0.30151827267872
1580422497.02388,-1.64235904478523,0.303471427481497,0.288334477759975
1580422497.05563,-1.37331197070268,-0.492927443350881,0.301029983978026
1580422497.08737,-1.2771190966659,-0.621347371633478,0.0549324788281069
1580422497.11912,-1.04029907682918,-0.589608606088349,-0.412848096437019
1580422497.15086,-0.41870756084535,-0.759044785229268,-0.137453269245441
1580422497.18261,-0.564217593652247,-0.622812237735561,0.0168459601739528
1580422497.21435,-0.258060578316931,-0.399176012817579,0.180422674906538
1580422497.2461,-0.23315785458152,-0.671152819104295,0.00854505226214997
1580422497.27784,-0.496345464255741,-0.701915007248035,-0.027588311589227
1580422497.30959,-0.561776150148775,-0.691660944533455,0.00854505226214997
1580422497.34133,-0.601327534905012,-0.703868162050812,0.0974135957885096
1580422497.37308,-0.901625085831999,-0.509040970473793,0.122804608224612
1580422497.40482,-1.14967574578469,-0.184328984512092,0.172610055695429
1580422497.43657,-1.27858396276799,-0.648203250171663,-0.0563973449301898
1580422497.46831,-1.02027924010071,-0.899183642328527,-0.0222171358815899
1580422497.50006,-0.879163805600061,-0.276127260242619,0.0783703364614325
1580422497.5318,-0.940688181887541,-0.234134431982909,0.27075608453498
1580422497.56355,-1.1745784695201,0.496345464255739,0.379156176089111
1580422497.59529,-1.05299458304723,0.206790264744029,0.117433432516975
1580422497.62714,-1.41481651026169,-0.524177920195315,-0.0144045166704814
1580422497.65888,-1.00514229037919,-0.50757610437171,0.26733806363012
1580422497.69063,-0.885999847409781,-0.0817883573662925,0.106202792401007
1580422497.72237,-1.10280003051804,0.0505378805218584,-0.0695811398489354
1580422497.75412,-1.07692072938125,-0.121828030823224,-0.0822766460669868
1580422497.78586,-1.01490806439307,-0.288334477759976,-0.00366216525520713
1580422497.81761,-1.01637293049516,0.0935072861829553,0.0930189974822611
1580422497.84935,-1.0041657129778,-0.135011825741969,0.099855039291981
1580422497.8811,-0.970473792629893,-0.276127260242619,0.0666514076447697
1580422497.91284,-1.00172426947433,-0.0900892652780954,0.0246585793850613
1580422497.94458,-0.998794537270161,-0.0881361104753182,-0.0588387884336612
1580422497.97633,-1.04371709773404,-0.0886243991760125,-0.0642099641412983
1580422498.00807,-1.0466468299382,0.0295414663920042,0.133058670939192
1580422498.03982,-0.98268101014725,0.153078507667658,0.179934386205844
1580422498.07156,-1.0124666208896,0.188723582818341,0.143801022354467
1580422498.10331,-0.995376516365301,0.187747005416952,0.119386587319752
1580422498.13505,-0.977309834439613,0.212649729152361,0.163820859082932
1580422498.1668,-1.1233081559472,-0.114015411612115,0.179446097505149
1580422498.19854,-1.1921568627451,-0.11450370031281,0.140871290150301
1580422498.23029,-1.21608300907912,0.0803234912642097,0.256595712214846
1580422498.26203,-1.36794079499504,0.141847867551689,0.286381322957197
1580422498.29378,-1.52175173571374,0.0837415121690697,0.314702067597466
1580422498.32553,-1.41969939726864,-0.312260624093996,0.0627450980392155
1580422498.35727,-1.24196231021591,-0.396246280613413,0.0959487296864268
1580422498.38901,-0.916273746852827,-0.567147325856412,-0.23999389639124
1580422498.42076,-0.479255359731441,-0.872327763790341,-0.241947051194018
1580422498.4525,-0.617929350728618,-0.551522087434195,0.157473105973907
1580422498.48425,-0.198001068131532,-0.33667505912871,0.153566796368352
1580422498.516,-0.265384908827345,-0.695078965438315,-0.156984817273212
1580422498.54774,-0.520759899290455,-0.880628671702144,-0.0554207675288012
1580422498.57948,-0.526619363698787,-0.869398031586176,0.0432135500114441
1580422498.61123,-0.667734798199435,-0.43237964446479,0.0280766002899213
1580422498.64297,-1.00270084687572,0.0144045166704814,0.280033569848172
1580422498.67472,-1.26784161135271,-0.41187151903563,0.0646982528419926
1580422498.70646,-1.20241092545968,-0.865491721980622,-0.0813000686655982
1580422498.73821,-0.97584496833753,-0.673105973907072,-0.0524910353246355
1580422498.76995,-0.867444876783399,-0.164309147783626,0.0437018387121384
1580422498.8017,-0.954360265506981,-0.281010147249562,-0.0207522697795071
1580422498.83344,-1.30739299610895,0.428473334859234,0.0939955748836496
1580422498.86519,-0.971450370031281,0.448981460288394,0.678965438315405
1580422498.897,-1.09938200961318,-0.310307469291219,-0.0168459601739528
1580422498.92875,-1.00221255817502,-0.748790722514686,0.231204699778743
1580422498.96049,-0.968520637827115,-0.325444419012742,0.129152361333638
1580422498.99224,-1.13698023956664,0.0295414663920042,-0.0607919432364383
1580422499.02398,-1.1067063401236,-0.0583504997329669,-0.308354314488442
1580422499.05573,-1.07399099717708,-0.436774242771039,-0.135500114442664
1580422499.08747,-1.08424505989166,-0.297611963073168,0.0388189517051956
1580422499.11922,-0.974868390936141,-0.0173342488746471,0.103761348897535
1580422499.15097,-0.97242694743267,-0.265873197528039,0.0432135500114441
1580422499.18271,-0.973891813534753,-0.316655222400245,0.0373540856031127
1580422499.21446,-1.01393148699168,-0.0754406042572668,-0.126710917830167
1580422499.2462,-0.977309834439613,-0.0339360646982527,0.0476081483176927
1580422499.27795,-0.974380102235447,-0.0271000228885327,0.0983901731898982
1580422499.30969,-1.01149004348821,0.151613641565575,0.125734340428778
1580422499.34144,-0.976333257038224,0.268314641031509,0.179934386205844
1580422499.37318,-0.943129625391013,0.338139925230792,0.190676737621118
1580422499.40493,-1.0808270389868,0.171145189593346,0.172610055695429
1580422499.43667,-1.14381628137636,-0.0969253070878153,0.164797436484321
1580422499.46842,-1.18776226443885,-0.0861829556725411,0.197024490730143
1580422499.50017,-1.30690470740826,0.105714503700312,0.270267795834286
1580422499.53191,-1.43337148088808,0.207766842145418,0.237552452887769
1580422499.56366,-1.61208514534218,-0.12475776302739,0.235599298084992
1580422499.5954,-1.4402075226978,-0.361577782864119,-0.060303654535744
1580422499.62715,-1.15016403448539,-0.572030212863355,-0.287357900358588
1580422499.65889,-0.419195849546044,-0.675547417410543,-0.0187991149767299
1580422499.69064,-0.630624856946669,-0.727794308384832,-0.0568856336308841
1580422499.72238,-0.328862439917602,-0.515877012283513,0.164309147783626
1580422499.75413,-0.179934386205844,-0.70142671854734,-0.101808194094758
1580422499.78587,-0.319096665903716,-0.782482642862593,-0.0886243991760125
1580422499.81762,-0.464118410009918,-0.823987182421607,-0.0104982070649271
1580422499.84937,-0.538826581216144,-0.612558175020981,0.0588387884336612
1580422499.88111,-0.767833981841765,-0.330815594720379,0.169680323491264
1580422499.91286,-1.19411001754787,-0.0422369726100555,0.119874876020447
1580422499.9446,-1.27516594186313,-0.604257267109178,-0.0153810940718699
1580422499.97635,-1.09303425650416,-1.07692072938125,-0.132082093537804
1580422500.00809,-0.925062943465324,-0.476325627527276,-0.0441901274128327
1580422500.03984,-0.912367437247273,-0.376226443884947,0.041260395208667
1580422500.07158,-1.08424505989166,-0.0617685206378269,0.115968566414892
1580422500.10333,-1.22438391699092,0.730724040588999,0.773205157549402
1580422500.13507,-1.21608300907912,-0.132570382238498,-0.0466315709163041
1580422500.1669,-1.1833676661326,-0.563241016250858,0.0827649347676811
1580422500.19865,-0.908461127641718,-0.253177691309988,0.156496528572518
1580422500.23039,-1.00318913557641,-0.109620813305867,0.00708018616006711
1580422500.26214,-1.10328831921874,0.0588387884336612,-0.0432135500114441
1580422500.29388,-1.08863965819791,-0.412848096437019,-0.0798352025635154
1580422500.32563,-1.03492790112154,-0.118898298619058,-0.0158693827725642
1580422500.35737,-0.97242694743267,0.0686045624475469,-0.000244144350347142
1580422500.38912,-1.00856031128405,-0.275638971541925,0.0388189517051956
1580422500.42086,-1.00514229037919,-0.215579461356526,0.0441901274128327
1580422500.45261,-0.992446784161135,-0.127199206530861,0.0280766002899213
1580422500.48435,-1.00709544518196,-0.132082093537804,-0.0300297550926985
1580422500.5161,-1.01588464179446,-0.0544441901274126,0.0847180895704582
1580422500.54784,-0.990981918059052,0.119386587319752,0.118410009918364
1580422500.57959,-0.992446784161135,0.163332570382238,0.137453269245441
1580422500.61134,-0.974380102235447,0.185305561913481,0.125734340428778
1580422500.64308,-1.01734950789654,0.169192034790569,0.179446097505149
1580422500.67483,-1.09840543221179,0.060303654535744,0.136476691844052
1580422500.70657,-1.1579766536965,0.0607919432364383,0.175539787899595
1580422500.73832,-1.3371786068513,0.270267795834286,0.293217364766917
1580422500.77006,-1.45387960631724,0.247318226901655,0.313725490196077
1580422500.80181,-1.51882200350957,-0.0393072404058898,0.207278553444723
1580422500.83355,-1.27614251926452,-0.447516594186313,-0.096437018387121
1580422500.8653,-1.1750667582208,-0.564217593652247,-0.0329594872968642
1580422500.89704,-0.598397802700847,-0.544197756923781,-0.0148928053711757
1580422500.92879,-0.583260852979324,-0.808850232700085,-0.0793469138628211
1580422500.96054,-0.375738155184253,-0.475349050125887,0.113038834210727
1580422500.99228,-0.239505607690546,-0.473884184023804,0.0217288471808956
1580422501.02403,-0.420660715648127,-0.642343785763332,-0.0627450980392155
1580422501.05577,-0.522224765392538,-0.724864576180666,0.0319829098954756
1580422501.08752,-0.560799572747387,-0.730724040588997,0.0173342488746471
1580422501.11926,-0.785900663767453,-0.608163576714732,0.0109864957656214
1580422501.15101,-0.953871976806287,-0.298100251773862,0.216556038757915
1580422501.18275,-1.18580910963607,-0.40503547722591,0.123781185626001
1580422501.2145,-1.26735332265202,-0.95533684290837,-0.0817883573662925
1580422501.24624,-0.889417868314641,-0.693614099336232,0.0876478217746239
1580422501.27799,-0.86646829938201,-0.132570382238498,0.155031662470435
1580422501.30974,-0.95191882200351,0.0500495918211641,0.0178225375753414
1580422501.34148,-1.30836957351034,0.275150682841229,0.56665903715572
1580422501.37323,-1.32545967803464,-0.183352407110704,-0.0261234454871442
1580422501.40497,-1.01490806439307,-0.548104066529335,0.39380483710994
1580422501.43683,-0.820569161516747,-0.314702067597468,0.285404745555809
1580422501.46857,-1.18483253223468,0.0842298008697639,-0.224856946669718
1580422501.50032,-1.11403067063401,-0.180422674906538,-0.293705653467613
1580422501.53206,-1.01197833218891,-0.591561760891127,0.0197756923781185
1580422501.56381,-1.06324864576181,-0.0534676127260241,0.130617227435721
1580422501.59555,-0.97242694743267,0.0573739223315783,0.102296482795452
1580422501.6273,-0.955825131609064,-0.215579461356526,0.0432135500114441
1580422501.65905,-0.94850080109865,-0.108644235904478,0.0490730144197755
1580422501.69079,-1.00074769207294,0.0231937132829785,0.0422369726100555
1580422501.72254,-1.02223239490349,-0.164797436484321,0.0109864957656214
1580422501.75428,-1.03639276722362,-0.0861829556725411,0.0993667505912867
1580422501.78603,-1.01149004348821,0.30835431448844,0.191653315022506
1580422501.81777,-0.990981918059052,0.257572289616235,0.125246051728084
1580422501.84952,-1.04322880903334,0.138918135347524,0.138429846646829
1580422501.88126,-1.00758373388266,0.170656900892652,0.154543373769741
1580422501.91301,-1.06813153276875,0.0437018387121384,0.157961394674601
1580422501.94475,-1.1662775616083,-0.0271000228885327,0.120363164721141
1580422501.9765,-1.29909208819715,0.112062256809338,0.251224536507209
1580422502.00825,-1.40505073624781,0.242923628595406,0.409918364232851
1580422502.03999,-1.55202563515679,0.250736247806515,0.425055313954374
1580422502.07174,-1.40798046845197,-0.247806515602349,0.166750591287098
1580422502.10348,-1.22243076218814,-0.440680552376593,0.0407721065079727
1580422502.13523,-0.80836194399939,-0.588143739986267,-0.0891126878767068
1580422502.16697,-0.339116502632182,-1.01393148699168,-0.323979552910659
1580422502.19872,-0.524177920195315,-0.586190585183489,-0.00512703135728998
1580422502.23046,-0.225833524071106,-0.289311055161365,0.0593270771343555
1580422502.26221,-0.260013733119708,-0.622323949034866,-0.115968566414892
1580422502.29395,-0.731700617990386,-0.908949416342413,-0.0500495918211641
1580422502.3257,-0.471931029221027,-0.683848325322346,-0.000244144350347142
1580422502.35745,-0.726329442282749,-0.248294804303043,0.184328984512092
1580422502.38919,-1.16823071641108,-0.105226214999618,0.181399252307926
1580422502.42094,-1.28249027237354,-0.466071564812696,-0.024170290684367
1580422502.45268,-1.13990997177081,-0.768810559243153,0.027588311589227
1580422502.48443,-0.874769207293813,-0.365484092469673,0.0124513618677042
1580422502.51617,-0.897718776226444,-0.204348821240558,0.158449683375295
1580422502.54792,-1.16285954070344,-0.0559090562294955,0.0749523155565726
1580422502.57966,-1.22780193789578,0.563729304951554,0.686778057526514
1580422502.61141,-1.13160906385901,-0.0129396505683985,-0.0627450980392155
1580422502.64315,-1.225848783093,-0.850354772259099,0.0476081483176927
1580422502.6749,-0.926527809567407,-0.429449912260624,0.227786678873883
1580422502.70676,-0.991958495460441,-0.0915541313801782,0.0251468680857556
1580422502.7385,-1.10280003051804,-0.0471198596169984,-0.106202792401007
1580422502.77025,-1.09645227740902,-0.279545281147479,0.0163576714732585
1580422502.80199,-1.0466468299382,-0.223392080567635,0.0305180437933927
1580422502.83374,-0.971450370031281,0.0598153658350498,0.0627450980392155
1580422502.86549,-0.948989089799344,-0.128175783932249,0.0529793240253298
1580422502.89723,-0.981704432745861,-0.129640650034332,0.0715342946517126
1580422502.92898,-0.980727855344472,0.0271000228885327,-0.0290531776913099
1580422502.96072,-1.01881437399863,-0.0920424200808725,-0.0905775539787896
1580422502.99247,-1.03248645761807,-0.270267795834288,0.134035248340581
1580422503.02421,-1.01002517738613,0.198489356832226,0.247806515602349
1580422503.05596,-1.01051346608682,0.262455176623178,0.0900892652780954
1580422503.08771,-1.05348287174792,0.109620813305867,0.149172198062104
1580422503.11945,-1.04127565423056,0.229739833676661,0.151613641565575
1580422503.1512,-1.05006485084306,0.146730754558632,0.131105516136415
1580422503.18295,-1.16188296330205,-0.0886243991760125,0.104737926298924
1580422503.21469,-1.21315327687495,0.0207522697795071,0.262943465323872
1580422503.24644,-1.26979476615549,0.156008239871824,0.290287632562752
1580422503.27818,-1.50075532158389,0.174563210498206,0.344975967040511
1580422503.30993,-1.31667048142214,-0.164309147783626,0.156496528572518
1580422503.34167,-1.23317311360342,-0.685313191424429,-0.0852063782711525
1580422503.37342,-1.02662699320974,-0.615487907225146,-0.0437018387121384
1580422503.40517,-0.594979781795987,-0.522713054093233,0.134523537041275
1580422503.43691,-0.334721904325933,-0.525642786297398,0.0075684748607614
1580422503.46866,-0.292240787365531,-0.568123903257801,-0.0642099641412983
1580422503.5004,-0.304936293583582,-0.554940108339055,-0.0896009765774011
1580422503.53215,-0.379644464789807,-0.669687953002212,-0.0183108262760356
1580422503.5639,-0.523689631494621,-0.764415960936905,-0.0725108720531011
1580422503.59564,-0.635996032654306,-0.622812237735561,-0.0783703364614325
1580422503.62739,-0.871839475089647,-0.440680552376593,0.202395666437781
1580422503.65913,-1.20680552376593,-0.225833524071106,0.185305561913481
1580422503.69088,-1.3117875944152,-0.446540016784924,0.102784771496147
1580422503.72263,-1.06471351186389,-0.632578011749446,0.120851453421835
1580422503.75437,-0.927016098268101,-0.327397573815519,0.122804608224612
1580422503.78612,-0.991958495460441,-0.272709239337759,0.0388189517051956
1580422503.81786,-1.20241092545968,0.146730754558632,0.0910658426794839
1580422503.84961,-1.11110093842985,0.307866025787746,0.640390630960557
1580422503.88136,-1.19459830624857,-0.216556038757915,-0.0734874494544897
1580422503.9131,-1.04859998474098,-0.823010605020219,0.239505607690546
1580422503.94485,-0.995376516365301,-0.263920042725262,0.214602883955138
1580422503.97668,-1.03932249942779,0.0607919432364383,-0.0261234454871442
1580422504.00843,-1.07936217288472,0.0251468680857556,-0.163332570382238
1580422504.04018,-1.05348287174792,-0.208255130846112,-0.0534676127260241
1580422504.07192,-1.0212558175021,-0.115480277714198,0.0959487296864268
1580422504.10367,-0.959731441214618,0.0949721522850382,0.0930189974822611
1580422504.13541,-0.990493629358358,-0.159914549477378,0.0466315709163041
1580422504.16716,-1.0036774242771,-0.292729076066225,0.0363775082017241
1580422504.19891,-1.00660715648127,-0.100343327992675,0.0202639810788128
1580422504.23065,-1.04518196383612,-0.116945143816281,0.0192874036774242
1580422504.2624,-1.00074769207294,0.202395666437781,0.153566796368352
1580422504.29414,-0.945571068894484,0.458258945601585,0.220462348363469
1580422504.32589,-1.05934233615625,0.0407721065079727,0.154055085069047
1580422504.35764,-1.08033875028611,0.00219729915312428,0.152101930266269
1580422504.38938,-1.02809185931182,0.135500114442664,0.0529793240253298
1580422504.42113,-1.00465400167849,0.0354009308003356,0.0607919432364383
1580422504.45287,-1.18141451132982,-0.0993667505912867,0.135500114442664
1580422504.48462,-1.23805600061036,0.0832532234683754,0.321538109407186
1580422504.51636,-1.28883802548257,0.162355992980849,0.313237201495383
1580422504.54811,-1.47927061875334,0.0935072861829553,0.286381322957197
1580422504.57986,-1.43874265659571,-0.264896620126651,0.0485847257190812
1580422504.6116,-1.21705958648051,-0.470466163118944,0.197512779430838
1580422504.64335,-0.840100709544519,-0.770275425345236,-0.2434119172961
1580422504.67509,-0.554940108339055,-0.705821316853589,-0.137941557946135
1580422504.70684,-0.397222858014802,-0.405523765926604,0.151125352864881
1580422504.73859,-0.184328984512092,-0.604257267109178,-0.099855039291981
1580422504.77033,-0.351323720149539,-0.649668116273746,-0.116456855115587
1580422504.80208,-0.460700389105059,-0.626230258640421,-0.00610360875867855
1580422504.83382,-0.533455405508507,-0.654062714579995,0.00903334096284425
1580422504.86557,-0.774670023651485,-0.665293354695963,-0.108644235904478
1580422504.89732,-0.870374608987564,-0.298100251773862,0.153566796368352
1580422504.92906,-1.24635690852216,-0.214602883955138,0.187258716716258
1580422504.96081,-1.37721828030823,-0.589608606088349,-0.0100099183642328
1580422504.99255,-0.952407110704204,-0.725841153582055,0.0144045166704814
1580422505.0243,-0.934340428778516,-0.143801022354467,0.00659189745937283
1580422505.05604,-0.953871976806287,-0.168703746089875,0.116456855115587
1580422505.08779,-1.18873884184024,0.523689631494623,0.456794079499502
1580422505.11954,-0.926527809567407,0.0886243991760125,0.357671473258563
1580422505.15128,-1.44264896620127,-0.472907606622416,-0.232669565880826
1580422505.18303,-1.11598382543679,-0.276127260242619,0.321049820706492
1580422505.21477,-0.868909742885482,-0.277592126344702,0.0842298008697639
1580422505.24664,-1.00856031128405,-0.0642099641412983,-0.187747005416952
1580422505.27839,-1.08766308079652,-0.204837109941252,-0.0334477759975584
1580422505.31013,-1.05983062485695,-0.213626306553749,0.00561532005798426
1580422505.34188,-1.05299458304723,0.0539559014267184,0.138918135347524
1580422505.37363,-0.96900892652781,0.0075684748607614,0.0466315709163041
1580422505.40537,-1.00709544518196,-0.121828030823224,0.044678416113527
1580422505.43712,-0.970962081330587,-0.00170901045242999,0.0632333867399097
1580422505.46886,-0.974380102235447,-0.132082093537804,0.0515144579232469
1580422505.50061,-0.987563897154192,-0.179934386205844,0.00219729915312428
1580422505.53236,-1.07008468757153,-0.205325398641946,0.0544441901274126
1580422505.5641,-1.04762340733959,-0.041260395208667,0.186282139314869
1580422505.59585,-0.923109788662547,0.396734569314106,0.140871290150301
1580422505.62759,-1.03590447852293,0.251712825207903,0.114015411612115
1580422505.65934,-1.02858014801251,0.298588540474555,0.182375829709315
1580422505.69108,-1.05934233615625,0.210208285648889,0.208255130846112
1580422505.72283,-1.18971541924163,-0.031006332494087,0.139894712748912
1580422505.75458,-1.27907225146868,0.0700694285496297,0.259525444419012
1580422505.78632,-1.3454795147631,0.174074921797512,0.306401159685663
1580422505.81807,-1.46022735942626,-0.0861829556725411,0.257572289616235
1580422505.84981,-1.35719844357977,-0.549080643930724,-0.0935072861829553
1580422505.88156,-1.19459830624857,-0.635019455252918,-0.290775921263448
1580422505.91331,-0.789806973373008,-0.604745555809872,-0.0612802319371326
1580422505.94505,-0.455329213397421,-0.702403295948729,-0.265873197528039
1580422505.9768,-0.554451819638361,-0.224368657969023,0.33228046082246
1580422506.00854,-0.239505607690546,-0.291752498664836,0.126710917830167
1580422506.04029,-0.463630121309224,-0.78785381857023,-0.0866712443732354
1580422506.07204,-0.563241016250858,-0.831799801632716,-0.00219729915312428
1580422506.10378,-0.52124818799115,-0.797619592584116,0.0202639810788128
1580422506.13553,-0.780041199359122,-0.49390402075227,0.0754406042572668
1580422506.16727,-1.02516212710765,0.0256351567864499,0.269779507133592
1580422506.19902,-1.36208133058671,-0.301029983978028,0.11450370031281
1580422506.23077,-1.20680552376593,-0.750743877317465,0.0622568093385212
1580422506.26251,-0.86646829938201,-0.650644693675135,-0.0075684748607614
1580422506.29426,-0.861585412375067,-0.204348821240558,0.110597390707255
1580422506.326,-1.10719462882429,-0.157961394674601,-0.000244144350347142
1580422506.35775,-1.3288776989395,0.367437247272449,0.846936751354239
1580422506.38949,-1.09303425650416,-0.0720225833524069,-0.201907377737086
1580422506.42124,-1.21901274128328,-0.586678873884184,0.148195620660715
1580422506.45299,-0.868421454184787,-0.452399481193256,0.30151827267872
1580422506.48473,-1.00514229037919,-0.147707331960021,-0.0168459601739528
1580422506.5166,-1.10768291752499,0.0734874494544897,-0.10424963759823
1580422506.54835,-1.0207675288014,-0.221438925764858,-0.0319829098954756
1580422506.58009,-1.07545586327916,-0.324956130312048,0.0075684748607614
1580422506.61184,-1.01783779659724,-0.185793850614175,0.151125352864881
1580422506.64359,-1.00123598077363,-0.226321812771801,0.0544441901274126
1580422506.67534,-1.01637293049516,-0.154543373769741,0.0476081483176927
1580422506.70708,-0.970473792629893,-0.0432135500114441,0.0158693827725642
1580422506.73883,-0.991470206759747,-0.150637064164187,-0.0285648889906156
1580422506.77058,-1.05787747005417,-0.173098344396124,0.0407721065079727
1580422506.80232,-1.00856031128405,0.147219043259327,0.127199206530861
1580422506.83407,-0.967544060425727,0.275150682841229,0.156984817273212
1580422506.86582,-1.02223239490349,0.276615548943312,0.188723582818341
1580422506.89756,-1.02369726100557,0.227298390173189,0.195071335927366
1580422506.92931,-1.01832608529793,0.206790264744029,0.158937972075989
1580422506.96106,-1.2263370717937,0.0334477759975584,0.138429846646829
1580422506.9928,-1.26979476615549,0.112550545510032,0.309819180590523
1580422507.02455,-1.3801480125124,0.200442511635003,0.334233615625237
1580422507.0563,-1.46950484473945,0.0534676127260241,0.290775921263446
1580422507.08804,-1.45485618371862,-0.474860761425193,-0.00561532005798426
1580422507.11979,-1.23121995880064,-0.326909285114825,-0.048096437018387
1580422507.15154,-0.647714961470969,-0.644296940566109,-0.300541695277333
1580422507.18328,-0.49048599984741,-0.753673609521631,-0.252689402609294
1580422507.21503,-0.508552681773098,-0.458258945601587,0.102296482795452
1580422507.24678,-0.185793850614175,-0.581795986877241,0.0158693827725642
1580422507.27853,-0.32983901731899,-0.712169069962615,-0.0930189974822611
1580422507.31027,-0.536873426413367,-0.725841153582055,-0.00219729915312428
1580422507.34202,-0.55542839703975,-0.692637521934843,0.0334477759975584
1580422507.37377,-0.720958266575112,-0.419684138246739,0.134035248340581
1580422507.40551,-1.07106126497291,-0.148683909361409,0.321538109407186
1580422507.43726,-1.30104524299992,-0.443610284580759,-0.0202639810788128
1580422507.46901,-1.18776226443885,-0.711192492561226,-0.0222171358815899
1580422507.50075,-0.956801709010453,-0.468024719615473,-0.0046387426565957
1580422507.5325,-0.92799267566949,-0.306401159685665,0.0681162737468526
1580422507.56425,-1.20338750286107,0.000732433051041426,0.0813000686655982
1580422507.59599,-1.19508659494926,0.484138246738382,0.587655451285574
1580422507.62774,-1.13746852826734,-0.0466315709163041,-0.302983138780805
1580422507.65949,-1.21901274128328,-0.721446555275806,-0.226321812771801
1580422507.69123,-0.944594491493095,-0.552986953536278,0.284916456855115
1580422507.72298,-0.987563897154192,-0.10083161669337,0.206790264744029
1580422507.75473,-1.10572976272221,0.201907377737086,-0.118410009918364
1580422507.78653,-1.10133516441596,-0.0891126878767068,-0.127687495231555
1580422507.81828,-0.995864805065995,-0.385015640497445,-0.00122072175173571
1580422507.85002,-0.977798123140307,0.0778820477607383,0.109620813305867
1580422507.88177,-1.02467383840696,-0.0451667048142212,0.0563973449301898
1580422507.91351,-0.980239566643778,-0.274662394140536,0.0847180895704582
1580422507.94526,-0.991470206759747,-0.0622568093385212,0.027588311589227
1580422507.97701,-0.990981918059052,0.0695811398489354,0.031006332494087
1580422508.00875,-0.983657587548638,0.147707331960021,0.156008239871824
1580422508.0405,-1.02760357061112,0.25024795910582,0.242923628595406
1580422508.07225,-1.0471351186389,0.249271381704432,0.125246051728084
1580422508.10399,-1.05885404745556,0.188723582818341,0.159914549477378
1580422508.13574,-0.994399938963912,0.266849774929426,0.170656900892652
1580422508.16749,-1.06276035706111,0.133546959639887,0.135500114442664
1580422508.19923,-1.11207751583123,-0.0920424200808725,0.113527122911421
1580422508.23098,-1.18483253223468,-0.0202639810788128,0.232669565880826
1580422508.26272,-1.25075150682841,0.0793469138628211,0.3117723353933
1580422508.29447,-1.46364538033112,0.212161440451666,0.380621042191194
1580422508.32622,-1.49196612497139,0.0505378805218584,0.188723582818341
1580422508.35796,-1.36940566109712,-0.298100251773862,-0.0759288929579611
1580422508.38971,-1.01149004348821,-0.47681391622797,-0.073975738155184
1580422508.42146,-0.308354314488442,-0.900160219729916,-0.345952544441902
1580422508.4532,-0.646250095368886,-0.568612191958495,-0.0495613031204698
1580422508.48495,-0.254154268711376,-0.420660715648127,-0.031006332494087
1580422508.5167,-0.193118181124589,-0.819592584115359,-0.203372243839169
1580422508.54844,-0.56910048065919,-0.764904249637599,-0.0725108720531011
1580422508.58019,-0.533455405508507,-0.686778057526512,-0.0187991149767299
1580422508.61193,-0.633554589150835,-0.430426489662013,0.0974135957885096
1580422508.64368,-0.983169298847944,-0.219485770962081,0.265873197528038
1580422508.67543,-1.14674601358053,-0.632089723048752,0.0856946669718468
1580422508.70717,-1.20143434805829,-0.719493400473029,0.0280766002899213
1580422508.73892,-1.03736934462501,-0.540779736018921,0.0183108262760356
1580422508.77067,-0.906996261539636,-0.523689631494621,-0.00317387655451284
1580422508.80241,-1.05055313954376,-0.321538109407188,0.159426260776684
1580422508.83416,-1.18922713054093,0.51538872358282,0.487067978942548
1580422508.86591,-1.02906843671321,0.357183184557869,0.374761577782863
1580422508.89765,-1.22780193789578,-0.636972610055695,-0.320561532005799
1580422508.9294,-1.05348287174792,-0.608163576714732,0.0520027466239412
1580422508.96115,-0.981216144045167,-0.158449683375295,-0.00170901045242999
1580422508.99289,-0.985122453650721,0.00708018616006711,0.00805676356145568
1580422509.02464,-1.08375677119097,-0.0729991607537954,-0.01196307316701
1580422509.05643,-1.08863965819791,-0.196536202029449,-0.00903334096284425
1580422509.08817,-1.02272068360418,-0.0661631189440754,0.0593270771343555
1580422509.11992,-0.981704432745861,-0.0354009308003356,0.0300297550926985
1580422509.15167,-1.02174410620279,-0.270756084534982,0.0388189517051956
1580422509.18341,-1.00953688868544,-0.115480277714198,0.0476081483176927
1580422509.21516,-0.987563897154192,-0.0720225833524069,0.00659189745937283
1580422509.24691,-1.01783779659724,-0.174074921797512,0.0441901274128327
1580422509.27865,-0.981216144045167,0.0568856336308841,0.133546959639887
1580422509.3104,-0.99977111467155,0.28784618905928,0.113527122911421
1580422509.34215,-0.975356679636835,0.272220950637063,0.205325398641946
1580422509.37389,-1.04762340733959,0.306889448386357,0.230716411078049
1580422509.40564,-0.999282825970855,0.276615548943312,0.099855039291981
1580422509.43739,-1.0891279468986,0.0656748302433812,0.0734874494544897
1580422509.46914,-1.22682536049439,0.0422369726100555,0.175539787899595
1580422509.50088,-1.27614251926452,0.235111009384298,0.335210193026626
1580422509.53263,-1.47780575265126,0.113527122911421,0.415777828641183
1580422509.56438,-1.56911573968109,-0.139894712748912,0.220462348363469
1580422509.59612,-1.20827038986801,-0.511482413977264,0.0207522697795071
1580422509.62787,-1.09010452429999,-0.348882276646068,-0.258548867017625
1580422509.65962,-0.447028305485619,-0.781994354161899,-0.137941557946135
1580422509.69136,-0.598886091401541,-0.737071793698023,-0.228763256275272
1580422509.72311,-0.444586861982147,-0.34351110093843,0.158937972075989
1580422509.75486,-0.230716411078049,-0.496833752956436,-0.0466315709163041
1580422509.7866,-0.602792401007095,-0.785900663767453,-0.130128938735027
1580422509.81835,-0.600350957503624,-0.850843060959793,-0.0305180437933927
1580422509.8501,-0.512458991378653,-0.601815823605707,0.037842374303807
1580422509.88184,-0.758556496528573,-0.359624628061342,0.102784771496147
1580422509.91359,-1.11012436102846,-0.132082093537804,0.28784618905928
1580422509.94534,-1.21266498817426,-0.618905928130006,-0.0520027466239412
1580422509.97709,-1.08326848249027,-0.944106202792401,-0.101319905394064
1580422510.00883,-0.918715190356298,-0.296147096971085,-0.0920424200808725
1580422510.04058,-0.910414282444496,-0.293705653467613,0.0803234912642097
1580422510.07233,-1.27174792095827,0.237552452887769,0.438727397573814
1580422510.10407,-1.09352254520485,0.398199435416188,0.612069886320288
1580422510.13582,-1.19020370794232,-0.0881361104753182,-0.173586633096818
1580422510.16757,-1.09742885481041,-0.753673609521631,-0.0642099641412983
1580422510.19931,-0.944106202792401,-0.549080643930724,0.185793850614175
1580422510.23106,-1.05348287174792,0.0173342488746471,0.034424353398947
1580422510.26281,-1.13063248645762,0.190676737621118,-0.140383001449607
1580422510.29455,-1.05934233615625,-0.449958037689784,-0.0461432822156098
1580422510.32632,-1.06227206836042,-0.279545281147479,0.0393072404058898
1580422510.35807,-0.990005340657664,0.174563210498206,0.0910658426794839
1580422510.38982,-0.992446784161135,-0.11450370031281,0.0930189974822611
1580422510.42157,-0.990005340657664,-0.199465934233615,0.0451667048142212
1580422510.45331,-1.01051346608682,0.0749523155565726,0.0393072404058898
1580422510.48506,-0.998794537270161,-0.048096437018387,0.0852063782711525
1580422510.51681,-1.01686121919585,-0.0178225375753414,0.118410009918364
1580422510.54855,-1.02027924010071,0.28101014724956,0.142824444953078
1580422510.5803,-0.913832303349356,0.302494850080109,0.199954222934309
1580422510.61205,-1.01686121919585,0.265384908827343,0.221927214465552
1580422510.6438,-1.0891279468986,0.0949721522850382,0.138918135347524
1580422510.67554,-1.06715495536736,-0.00610360875867855,0.0935072861829553
1580422510.70729,-1.19996948195621,0.0632333867399097,0.177492942702372
1580422510.73904,-1.20729381246662,0.242435339894712,0.240482185091935
1580422510.77079,-1.4231174181735,0.274662394140535,0.394293125810634
1580422510.80253,-1.41921110856794,-0.275638971541925,0.186282139314869
1580422510.83428,-1.35671015487907,-0.581795986877241,0.221438925764858
1580422510.86603,-1.08278019378958,-0.658457312886243,-0.0856946669718468
1580422510.89778,-0.443610284580759,-0.776134889753568,-0.225833524071106
1580422510.92952,-0.635507743953612,-0.376226443884947,-0.0456549935149155
1580422510.96127,-0.304936293583582,-0.383550774395362,0.0354009308003356
1580422510.99302,-0.283939879453728,-0.717540245670252,-0.210208285648889
1580422511.02477,-0.512458991378653,-0.919203479056993,-0.0896009765774011
1580422511.05651,-0.554940108339055,-0.844983596551462,-0.0900892652780954
1580422511.08826,-0.456794079499504,-0.487556267643244,0.0485847257190812
1580422511.12001,-0.824963759822996,-0.236087586785686,0.0910658426794839
1580422511.15175,-1.11891355764095,-0.109620813305867,0.271244373235675
1580422511.1835,-1.24733348592355,-0.662851911192492,0.0368657969024184
1580422511.21525,-1.18971541924163,-0.872327763790341,-0.0437018387121384
1580422511.247,-0.987563897154192,-0.177981231403066,0.112062256809338
1580422511.27874,-0.885023270008393,-0.211673151750972,0.101319905394064
1580422511.31049,-0.913344014648661,-0.429938200961319,0.323491264209963
1580422511.34224,-1.15114061188678,0.402594033722437,0.33228046082246
1580422511.37399,-1.02760357061112,0.128175783932249,0.245853360799572
1580422511.40573,-1.34254978255894,-0.720469977874417,-0.0163576714732585
1580422511.43748,-0.989028763256275,-0.399176012817579,0.480720225833522
1580422511.46923,-0.992446784161135,0.200930800335698,0.0505378805218584
1580422511.50098,-1.09449912260624,-0.0568856336308841,-0.380621042191196
1580422511.53272,-1.10572976272221,-0.697032120241092,-0.245853360799572
1580422511.56447,-1.09449912260624,-0.0192874036774242,0.0246585793850613
1580422511.59619,-1.00856031128405,0.135988403143358,0.128175783932249
1580422511.62794,-0.98268101014725,-0.266849774929428,0.0354009308003356
1580422511.65969,-1.00563057907988,-0.299076829175251,0.0847180895704582
1580422511.69143,-1.01344319829099,-0.00854505226214997,0.0354009308003356
1580422511.72318,-0.987075608453498,-0.180910963607232,0.00122072175173571
1580422511.75493,-1.05348287174792,-0.211673151750972,0.041260395208667
1580422511.78667,-1.01441977569238,0.165774013885709,0.120363164721141
1580422511.81842,-0.926039520866713,0.43823910887312,0.164797436484321
1580422511.85017,-1.04957656214237,0.252201113908598,0.213138017853055
1580422511.88192,-1.0124666208896,0.244388494697489,0.227298390173189
1580422511.91366,-1.05006485084306,0.196536202029449,0.233646143282215
1580422511.94541,-1.13746852826734,0.182864118410009,0.254154268711375
1580422511.97716,-1.37624170290684,0.136964980544747,0.2434119172961
1580422512.00891,-1.51589227130541,0.0485847257190812,0.290775921263446
1580422512.04065,-1.43288319218738,-0.391851682307164,0.0686045624475469
1580422512.0724,-1.25758754863813,-0.551033798733501,0.0852063782711525
1580422512.10415,-0.983657587548638,-0.678965438315403,-0.417242694743267
1580422512.1359,-0.494392309452964,-0.712657358663309,-0.268802929732205
1580422512.16764,-0.506111238269627,-0.478278782330053,0.210696574349583
1580422512.19939,-0.270756084534982,-0.465583276112001,0.0900892652780954
1580422512.23114,-0.42896162355993,-0.614999618524452,-0.00219729915312428
1580422512.26288,-0.533455405508507,-0.657480735484855,0.0212405584802013
1580422512.29463,-0.526619363698787,-0.744884412909132,0.0148928053711757
1580422512.32638,-0.609628442816815,-0.810315098802167,-0.0666514076447697
1580422512.35813,-0.834729533836882,-0.496833752956436,0.120363164721141
1580422512.38987,-1.07936217288472,-0.206301976043335,0.166750591287098
1580422512.42162,-1.16237125200275,-0.748790722514686,-0.099855039291981
1580422512.45337,-1.02272068360418,-1.03102159151598,-0.0622568093385212
1580422512.48512,-0.88697642481117,-0.427985046158541,0.0271000228885327
1580422512.51686,-0.916273746852827,-0.179934386205844,0.0793469138628211
1580422512.54861,-1.18629739833677,0.504158083466852,0.283939879453726
1580422512.58036,-1.14674601358053,0.153078507667658,0.359136339360646
1580422512.61211,-1.36208133058671,-0.528572518501564,-0.347905699244679
1580422512.64385,-0.953383688105593,-0.508064393072404,0.381597619592583
1580422512.6756,-0.909437705043107,-0.145754177157244,-0.00610360875867855
1580422512.70735,-1.08278019378958,0.0192874036774242,-0.208255130846112
1580422512.73909,-1.12965590905623,-0.244388494697489,-0.00854505226214997
1580422512.77084,-1.0295567254139,-0.0583504997329669,-0.0158693827725642
1580422512.80259,-1.03297474631876,-0.0197756923781185,0.0520027466239412
1580422512.83434,-0.983169298847944,-0.176516365300984,0.037842374303807
1580422512.86615,-0.981216144045167,-0.23657587548638,0.0397955291065841
1580422512.8979,-0.94166475928893,-0.146242465857938,0.0202639810788128
1580422512.92964,-1.00172426947433,-0.297611963073168,-0.0485847257190812
1580422512.96139,-1.02711528191043,-0.218509193560692,0.0168459601739528
1580422512.99314,-1.01149004348821,0.0524910353246355,0.119874876020447
1580422513.02489,-0.978286411841001,0.273685816739146,0.158449683375295
1580422513.05663,-1.01979095140002,0.251712825207903,0.188235294117646
1580422513.08838,-1.00514229037919,0.347417410543983,0.193606469825284
1580422513.12013,-1.08570992599374,0.178957808804455,0.177004654001678
1580422513.15188,-1.17994964522774,-0.0280766002899213,0.150148775463492
1580422513.18362,-1.24733348592355,0.0686045624475469,0.135500114442664
1580422513.21537,-1.35671015487907,0.159426260776684,0.255130846112763
1580422513.24712,-1.57546349279011,0.238529030289158,0.39038681620508
1580422513.27886,-1.52224002441443,-0.190676737621118,0.0793469138628211
1580422513.31061,-1.23854428931105,-0.365972381170367,0.178469520103761
1580422513.34236,-0.926527809567407,-0.713145647364003,-0.542244602121004
1580422513.37411,-0.510505836575875,-0.851331349660487,-0.207278553444723
1580422513.40585,-0.488532845044633,-0.631113145647364,0.0910658426794839
1580422513.4376,-0.103273060196841,-0.419195849546044,0.0886243991760125
1580422513.46935,-0.258060578316931,-0.688242923628595,-0.0891126878767068
1580422513.5011,-0.426031891355764,-0.717540245670252,-0.0178225375753414
1580422513.53284,-0.467048142214084,-0.773693446250096,0.0192874036774242
1580422513.56459,-0.695078965438315,-0.78101777676051,-0.0485847257190812
1580422513.59634,-0.841077286945907,-0.367925535973145,0.244388494697489
1580422513.62809,-1.18190280003052,-0.347905699244679,0.120851453421835
1580422513.65983,-1.31276417181659,-0.641367208361943,-0.060303654535744
1580422513.69158,-1.01637293049516,-0.836194399938964,0.0334477759975584
1580422513.72333,-0.922133211261158,-0.413336385137713,0.00317387655451284
1580422513.75507,-1.16871900511177,0.120363164721141,0.219974059662775
1580422513.78682,-1.28053711757076,0.606210421911957,0.646738384069582
1580422513.81857,-1.11451895933471,-0.031006332494087,-0.0363775082017241
1580422513.85032,-1.0979171435111,-0.534431982909895,-0.0231937132829785
1580422513.88206,-0.911879148546578,-0.527107652399481,0.250736247806515
1580422513.91381,-1.06227206836042,-0.0656748302433812,0.0764171816586554
1580422513.94556,-1.11940184634165,0.0710460059510183,-0.177492942702372
1580422513.97731,-1.08424505989166,-0.275150682841231,-0.0354009308003356
1580422514.00905,-1.07496757457847,-0.271244373235676,0.00122072175173571
1580422514.0408,-0.980239566643778,-0.00610360875867855,0.0554207675288012
1580422514.07255,-0.975356679636835,-0.200930800335698,0.0471198596169984
1580422514.1043,-0.984634164950027,-0.310307469291219,0.0676279850461583
1580422514.13611,-0.970962081330587,-0.0593270771343555,0.073975738155184
1580422514.16786,-0.981216144045167,-0.063721675440604,0.0183108262760356
1580422514.1996,-1.03102159151598,-0.129152361333638,0.0588387884336612
1580422514.23135,-0.998794537270161,0.110109102006561,0.149660486762798
1580422514.2631,-1.01686121919585,0.266361486228732,0.120851453421835
1580422514.29485,-0.959731441214618,0.247806515602349,0.133546959639887
1580422514.32659,-0.995376516365301,0.233646143282215,0.235599298084992
1580422514.35834,-1.09645227740902,0.141847867551689,0.181399252307926
1580422514.39009,-1.19801632715343,0.00805676356145568,0.156008239871824
1580422514.42184,-1.23659113450828,0.119386587319752,0.268314641031509
1580422514.45359,-1.39870298313878,0.172121766994735,0.275638971541923
1580422514.48533,-1.51149767299916,0.0959487296864268,0.306889448386357
1580422514.51708,-1.47487602044709,-0.421637293049516,-0.0144045166704814
1580422514.54883,-1.20241092545968,-0.439703974975204,-0.156984817273212
1580422514.58058,-0.750743877317465,-0.44946974898909,-0.222903791866941
1580422514.61232,-0.504646372167544,-0.874280918593119,-0.207766842145418
1580422514.64407,-0.621835660334172,-0.665293354695963,0.0661631189440754
1580422514.67582,-0.23657587548638,-0.295170519569696,0.192629892423895
1580422514.70757,-0.269291218432899,-0.613046463721675,-0.0300297550926985
1580422514.73932,-0.633554589150835,-0.803967345693142,-0.0588387884336612
1580422514.77106,-0.575448233768215,-0.758556496528573,0.0500495918211641
1580422514.80281,-0.7048447394522,-0.510017547875181,0.202883955138475
1580422514.83456,-0.971450370031281,-0.207766842145418,0.266849774929426
1580422514.86631,-1.24586861982147,-0.365484092469673,0.073975738155184
1580422514.89806,-1.1833676661326,-0.95533684290837,-0.0954604409857325
1580422514.9298,-0.957778286411841,-0.673105973907072,-0.0417486839093613
1580422514.96155,-0.86646829938201,-0.279056992446785,0.000244144350347142
1580422514.9933,-1.02760357061112,-0.335210193026628,0.110597390707255
1580422515.02505,-1.31813534752422,0.668223086900131,0.467536430914777
1580422515.05679,-1.25416952773327,0.262455176623178,0.00317387655451284
1580422515.08854,-1.20485236896315,-0.658457312886243,-0.0729991607537954
1580422515.12029,-0.874769207293813,-0.675547417410543,0.161867704280155
1580422515.15204,-1.01832608529793,-0.212649729152361,-0.106202792401007
1580422515.18379,-1.08570992599374,0.0573739223315783,-0.102784771496147
1580422515.21553,-1.12477302204929,-0.259037155718319,0.0153810940718699
1580422515.24728,-1.08229190508888,-0.297611963073168,-0.0158693827725642
1580422515.27903,-0.991470206759747,-0.0925307087815668,-0.0529793240253298
1580422515.31078,-0.971450370031281,-0.153078507667658,0.0568856336308841
1580422515.34253,-0.983657587548638,-0.208255130846112,0.0925307087815668
1580422515.37427,-1.01197833218891,-0.0617685206378269,0.0134279392690928
1580422515.4061,-1.00123598077363,-0.115480277714198,-0.041260395208667
1580422515.43784,-1.00953688868544,-0.0993667505912867,0.0227054245822842
1580422515.46959,-0.954360265506981,0.222903791866941,0.123781185626001
1580422515.50134,-1.05299458304723,0.186282139314869,0.156496528572518
1580422515.53309,-0.973403524834058,0.220950637064163,0.161379415579461
1580422515.56483,-1.04274052033265,0.179446097505149,0.260013733119706
1580422515.59658,-1.04371709773404,0.210696574349583,0.156496528572518
1580422515.62833,-1.16285954070344,0.153078507667658,0.124269474326695
1580422515.66008,-1.27907225146868,0.157961394674601,0.242923628595406
1580422515.69182,-1.35719844357977,0.341069657434957,0.370855268177309
1580422515.72357,-1.55300221255817,0.0354009308003356,0.302494850080109
1580422515.75532,-1.36842908369574,-0.462653543907836,-0.0285648889906156
1580422515.78707,-1.20778210116731,-0.616464484626535,-0.0729991607537954
1580422515.81881,-0.755626764324408,-0.581795986877241,-0.159426260776684
1580422515.85056,-0.537850003814755,-0.86646829938201,-0.168703746089875
1580422515.88231,-0.387457084000916,-0.474372472724498,0.145265888456549
1580422515.91405,-0.108155947203784,-0.363530937666896,0.063721675440604
1580422515.9458,-0.373296711680782,-0.605722133211261,-0.0866712443732354
1580422515.97755,-0.588632028686961,-0.724864576180666,0.00366216525520713
1580422516.0093,-0.573495078965438,-0.671641107804989,0.0681162737468526
1580422516.04104,-0.656992446784161,-0.721446555275806,-0.00659189745937283
1580422516.07279,-0.882093537804227,-0.427008468757153,0.133058670939192
1580422516.10454,-1.18239108873121,-0.245853360799572,0.147219043259327
1580422516.13629,-1.3112993057145,-0.646250095368886,-0.100343327992675
1580422516.16803,-0.954848554207675,-0.92457465476463,0.00122072175173571
1580422516.19978,-0.846448462653544,-0.210208285648889,0.0959487296864268
1580422516.23153,-0.959731441214618,-0.113527122911421,0.280521858548866
1580422516.26327,-1.28395513847562,0.677012283512628,0.30835431448844
1580422516.29502,-1.25661097123674,0.384039063096054,-0.0529793240253298
1580422516.32677,-1.27858396276799,-0.836194399938964,-0.193118181124589
1580422516.35852,-0.909437705043107,-0.918715190356298,0.318120088502326
1580422516.39026,-1.04518196383612,0.158937972075989,0.0632333867399097
1580422516.42201,-1.03590447852293,0.220462348363469,-0.302494850080111
1580422516.45376,-1.06227206836042,-0.37085526817731,-0.073975738155184
1580422516.48551,-1.04567025253681,-0.401129167620356,0.0373540856031127
1580422516.51725,-1.00221255817502,0.0720225833524069,0.0837415121690697
1580422516.549,-1.00709544518196,-0.106691081101701,0.0529793240253298
1580422516.58075,-0.977309834439613,-0.219485770962081,-0.00561532005798426
1580422516.6125,-0.998306248569467,-0.0485847257190812,-0.0544441901274126
1580422516.64424,-1.00758373388266,-0.141359578850995,0.00512703135728998
1580422516.67599,-1.04469367513542,-0.142824444953078,0.128664072632944
1580422516.70774,-1.02320897230488,0.0832532234683754,0.145265888456549
1580422516.73949,-1.00953688868544,0.217044327458609,0.12475776302739
1580422516.77124,-1.03736934462501,0.189700160219729,0.157961394674601
1580422516.80299,-1.0212558175021,0.207766842145418,0.172121766994735
1580422516.83473,-0.993911650263218,0.192629892423895,0.205813687342641
1580422516.86648,-1.13014419775692,-0.0104982070649271,0.188235294117646
1580422516.89823,-1.22877851529717,0.0725108720531011,0.319096665903714
1580422516.92998,-1.35866330968185,0.175539787899595,0.296635385671777
1580422516.96172,-1.49001297016861,0.0153810940718699,0.271732661936369
1580422516.99347,-1.37819485770962,-0.364995803768979,-0.0100099183642328
1580422517.02522,-1.17994964522774,-0.449958037689784,-0.000732433051041426
1580422517.05697,-0.82545204852369,-0.636484321355001,-0.171145189593346
1580422517.08872,-0.53492027161059,-0.872816052491036,-0.309819180590525
1580422517.12046,-0.54859235523003,-0.431403067063401,0.0915541313801782
1580422517.15221,-0.218509193560692,-0.330327306019685,0.0666514076447697
1580422517.18396,-0.381597619592585,-0.722423132677195,-0.119874876020447
1580422517.21571,-0.608163576714732,-0.853284504463264,-0.0822766460669868
1580422517.24745,-0.485114824139773,-0.748302433813992,-0.0290531776913099
1580422517.2792,-0.658945601586938,-0.603768978408484,0.00952162966353853
1580422517.31095,-0.891859311818113,-0.173586633096818,0.245365072098878
1580422517.3427,-1.18092622262913,-0.245365072098878,0.149172198062104
1580422517.37445,-1.26198214694438,-0.7048447394522,-0.0476081483176927
1580422517.40619,-0.983657587548638,-0.798596169985505,0.0383306630045013
1580422517.43794,-0.873792629892424,-0.220950637064163,0.000244144350347142
1580422517.46969,-0.992446784161135,-0.284916456855116,0.0583504997329669
1580422517.50144,-1.12233157854581,0.182864118410009,0.29126420996414
1580422517.53319,-1.03492790112154,0.355718318455786,0.484626535439077
1580422517.56493,-1.33669031815061,-0.273197528038454,-0.0686045624475469
1580422517.59668,-1.00025940337224,-0.500251773861295,0.221927214465552
1580422517.62843,-0.871351186388953,-0.411383230334936,-0.119874876020447
1580422517.66018,-1.00807202258335,-0.0588387884336612,-0.10083161669337
1580422517.69192,-1.11842526894026,-0.0817883573662925,-0.10424963759823
1580422517.72367,-1.06178377965972,-0.374761577782865,-0.0393072404058898
1580422517.75542,-1.04078736552987,-0.179934386205844,-0.0432135500114441
1580422517.78717,-0.99293507286183,-0.0920424200808725,-0.0617685206378269
1580422517.81892,-0.985122453650721,-0.32642099641413,0.0407721065079727
1580422517.85066,-0.968032349126421,-0.209719996948195,0.00122072175173571
1580422517.88241,-0.984145876249332,-0.0881361104753182,-0.0534676127260241
1580422517.91416,-1.02809185931182,-0.173586633096818,0.0466315709163041
1580422517.94598,-1.04078736552987,0.0500495918211641,0.167238879987792
1580422517.97773,-0.998306248569467,0.25366598001068,0.181887541008621
1580422518.00948,-1.01441977569238,0.197512779430838,0.190676737621118
1580422518.04123,-1.03395132372015,0.206301976043335,0.159914549477378
1580422518.07297,-1.00123598077363,0.366948958571754,0.160891126878766
1580422518.10472,-1.10035858701457,0.260990310521095,0.191165026321812
1580422518.13647,-1.35817502098116,0.123292896925307,0.342046234836346
1580422518.16822,-1.4743877317464,0.0983901731898982,0.378179598687723
1580422518.19996,-1.5505607690547,-0.250736247806516,0.139406424048218
1580422518.23171,-1.35133897917144,-0.607186999313344,-0.00903334096284425
1580422518.26346,-1.19020370794232,-0.79127183947509,-0.445563439383536
1580422518.2952,-0.515877012283513,-0.716563668268863,-0.243900205996795
1580422518.32695,-0.457770656900893,-0.330327306019685,0.0358892195010299
1580422518.3587,-0.264408331425956,-0.459235523002976,0.0354009308003356
1580422518.39045,-0.321538109407188,-0.709239337758449,-0.152590218966964
1580422518.42219,-0.516853589684901,-0.761974517433433,-0.0236820019836728
1580422518.45394,-0.549568932631418,-0.746837567711909,-0.044678416113527
1580422518.48569,-0.526619363698787,-0.576913099870298,-0.0632333867399097
1580422518.51744,-0.758556496528573,-0.269291218432899,0.0876478217746239
1580422518.54918,-1.07692072938125,-0.196047913328755,0.295658808270389
1580422518.58093,-1.29860379949645,-0.494880598153658,0.0520027466239412
1580422518.61268,-1.11696040283818,-0.675547417410543,0.128175783932249
1580422518.64442,-0.892347600518807,-0.235111009384298,0.0544441901274126
1580422518.67617,-0.925551232166018,-0.0593270771343555,0.0935072861829553
1580422518.70792,-0.936781872281987,-0.413336385137713,0.0139162279697871
1580422518.73967,-1.28883802548257,0.802990768291753,0.147219043259327
1580422518.77141,-0.81177996490425,0.183352407110704,0.354253452353703
1580422518.80316,-1.31667048142214,-0.437262531471733,0.027588311589227
1580422518.83491,-1.12965590905623,-0.574959945067521,0.30493629358358
1580422518.86666,-0.899671931029221,-0.358159761959259,0.0686045624475469
1580422518.8984,-0.998794537270161,0.0388189517051956,-0.296635385671779
1580422518.93015,-1.07008468757153,-0.0598153658350498,-0.192141603723201
1580422518.9619,-1.07985046158541,-0.450934615091173,-0.126222629129472
1580422518.99365,-1.06910811017014,-0.140383001449607,0.0778820477607383
1580422519.02539,-0.968032349126421,-0.0280766002899213,0.034424353398947
1580422519.05714,-0.983657587548638,-0.293705653467613,-0.00854505226214997
1580422519.08889,-0.993423361562524,-0.0988784618905925,-0.000732433051041426
1580422519.12064,-0.99977111467155,-0.0397955291065841,0.00122072175173571
1580422519.15238,-1.0383459220264,-0.145265888456549,0.0432135500114441
1580422519.18413,-1.0036774242771,0.0178225375753414,0.0944838635843439
1580422519.21585,-1.11403067063401,-0.0114747844663157,0.154543373769741
1580422519.2476,-1.0036774242771,0.120851453421835,0.100343327992675
1580422519.27935,-0.992446784161135,0.136476691844052,0.185305561913481
1580422519.31109,-1.01881437399863,0.26392004272526,0.144777599755855
1580422519.34284,-1.07106126497291,0.262943465323872,0.148195620660715
1580422519.37459,-1.21266498817426,-0.0168459601739528,0.237552452887769
1580422519.40634,-1.33229571984436,0.139406424048218,0.416754406042571
1580422519.43808,-1.53102922102693,0.338628213931486,0.334233615625237
1580422519.46983,-1.53151750972763,-0.0280766002899213,0.0500495918211641
1580422519.50158,-1.33424887464714,-0.332768749523156,-0.00415045395590141
1580422519.53333,-1.00123598077363,-0.889417868314641,-0.536385137712672
1580422519.56508,-0.594491493095292,-0.713633936064697,-0.239505607690546
1580422519.59682,-0.489509422446021,-0.598397802700847,0.0246585793850613
1580422519.62857,-0.219974059662775,-0.660898756389715,0.00512703135728998
1580422519.66032,-0.260502021820402,-0.781506065461205,0.0227054245822842
1580422519.69207,-0.316655222400245,-0.651132982375829,0.0046387426565957
1580422519.72382,-0.461188677805753,-0.571053635461967,0.0935072861829553
1580422519.75556,-0.666269932097352,-0.595956359197375,0.0139162279697871
1580422519.78731,-0.922621499961853,-0.520759899290455,0.276127260242617
1580422519.81906,-1.14186312657359,-0.388921950102999,0.10083161669337
1580422519.85081,-1.26393530174716,-0.518318455786984,0.0109864957656214
1580422519.88256,-1.00172426947433,-0.831311512932022,-0.0300297550926985
1580422519.9143,-0.840588998245213,-0.574959945067521,-0.0949721522850382
1580422519.94605,-1.00172426947433,-0.295658808270391,0.126710917830167
1580422519.9778,-1.33571374074922,0.812756542305639,0.678477149614711
1580422520.00955,-1.05885404745556,0.275638971541923,-0.147707331960021
1580422520.04129,-1.4743877317464,-0.494392309452964,0.037842374303807
1580422520.07304,-0.880628671702144,-0.563729304951552,0.555428397039751
1580422520.10479,-0.940688181887541,-0.124269474326695,-0.00561532005798426
1580422520.13654,-1.0979171435111,0.160402838178072,-0.334233615625239
1580422520.16828,-1.09449912260624,-0.402105745021744,-0.142824444953078
1580422520.20003,-1.0383459220264,-0.301518272678722,0.0939955748836496
1580422520.23178,-0.995864805065995,0.159914549477378,0.134523537041275
1580422520.26353,-0.988540474555581,-0.130617227435721,0.0534676127260241
1580422520.29528,-0.976821545738918,-0.328862439917602,0.0749523155565726
1580422520.32702,-1.00123598077363,-0.0441901274128327,0.00854505226214997
1580422520.35877,-0.988540474555581,-0.192629892423895,-0.000732433051041426
1580422520.39052,-1.04371709773404,-0.245853360799572,-0.00805676356145568
1580422520.42227,-1.01637293049516,0.0627450980392155,0.0876478217746239
1580422520.45402,-1.00856031128405,0.186282139314869,0.158937972075989
1580422520.48584,-0.981216144045167,0.280521858548866,0.119386587319752
1580422520.51759,-1.03981078812848,0.266849774929426,0.204837109941252
1580422520.54934,-1.05641260395209,0.218020904859998,0.161379415579461
1580422520.58108,-1.14186312657359,0.00952162966353853,0.0754406042572668
1580422520.61283,-1.19362172884718,0.125734340428778,0.287357900358586
1580422520.64458,-1.26393530174716,0.280033569848172,0.332768749523154
1580422520.67633,-1.50905622949569,0.151125352864881,0.346440833142594
1580422520.70807,-1.38649576562142,-0.236087586785686,0.00561532005798426
1580422520.73982,-1.13405050736248,-0.709239337758449,0.0744640268558783
1580422520.77157,-1.03883421072709,-0.683848325322346,-0.154543373769741
1580422520.80332,-0.653574425879301,-0.454352635996033,0.00122072175173571
1580422520.83506,-0.356206607156482,-0.394293125810636,0.0529793240253298
1580422520.86681,-0.298588540474556,-0.741466392004272,-0.0993667505912867
1580422520.89856,-0.31958495460441,-0.76734569314107,-0.0925307087815668
1580422520.93031,-0.32642099641413,-0.772228580148013,0.0075684748607614
1580422520.96206,-0.449958037689784,-0.632089723048752,0.00122072175173571
1580422520.9938,-0.613046463721675,-0.485603112840467,-0.0402838178072784
1580422521.02555,-0.85621423666743,-0.207278553444723,0.205813687342641
1580422521.0573,-1.23903257801175,-0.156984817273212,0.226321812771801
1580422521.08905,-1.33620202944991,-0.512458991378653,-0.000244144350347142
1580422521.1208,-1.12086671244373,-0.696543831540398,0.0319829098954756
1580422521.15254,-0.92457465476463,-0.295170519569696,0.0651865415426869
1580422521.18429,-0.890882734416724,-0.235599298084992,0.102296482795452
1580422521.21604,-1.02662699320974,-0.048096437018387,-0.0163576714732585
1580422521.24779,-1.20387579156176,0.587655451285574,0.973891813534753
1580422521.27953,-1.13893339436942,0.0847180895704582,0.237552452887769
1580422521.31128,-1.29860379949645,-0.611093308918898,0.0471198596169984
1580422521.34303,-0.906507972838941,-0.273685816739148,0.233646143282215
1580422521.37478,-0.881605249103533,-0.167238879987792,-0.00170901045242999
1580422521.40653,-1.05934233615625,-0.236087586785686,-0.161379415579461
1580422521.43827,-1.12574959945067,-0.212161440451666,-0.0520027466239412
1580422521.47002,-1.07594415197986,-0.261966887922485,-0.0339360646982527
1580422521.50177,-0.954848554207675,-0.313237201495385,-0.0168459601739528
1580422521.53352,-1.04078736552987,-0.208743419546806,-0.0407721065079727
1580422521.56526,-0.997817959868772,-0.145754177157244,0.0559090562294955
1580422521.59701,-0.911879148546578,-0.114015411612115,0.0583504997329669
1580422521.62876,-1.03541618982223,-0.0695811398489354,-0.0627450980392155
1580422521.66051,-1.00123598077363,-0.234134431982909,0.0539559014267184
1580422521.69226,-1.03981078812848,0.0749523155565726,0.228274967574578
1580422521.724,-0.98951705195697,0.297611963073166,0.140871290150301
1580422521.7558,-1.0300450141146,0.185305561913481,0.145754177157244
1580422521.78755,-1.0466468299382,0.272220950637063,0.152590218966964
1580422521.81929,-1.05348287174792,0.187258716716258,0.149660486762798
1580422521.85104,-1.13502708476387,-0.0627450980392155,0.144777599755855
1580422521.88279,-1.18287937743191,-0.0256351567864499,0.100343327992675
1580422521.91454,-1.20680552376593,0.063721675440604,0.219485770962081
1580422521.94629,-1.31471732661936,0.108644235904478,0.274662394140535
1580422521.97803,-1.47829404135195,0.343999389639123,0.405523765926603
1580422522.00978,-1.49489585717556,0.044678416113527,0.141847867551689
1580422522.04153,-1.27467765316243,-0.343999389639125,-0.0285648889906156
1580422522.07328,-0.929945830472267,-0.97926298924239,-0.260013733119708
1580422522.10502,-0.547127489127947,-0.628671702143892,-0.192629892423895
1580422522.13677,-0.478278782330053,-0.340581368734265,0.154543373769741
1580422522.16852,-0.247806515602349,-0.837170977340353,-0.102784771496147
1580422522.20027,-0.365972381170367,-1.01734950789654,-0.101808194094758
1580422522.23201,-0.36401922636759,-0.652597848477912,-0.0432135500114441
1580422522.26376,-0.573495078965438,-0.669687953002212,0.205325398641946
1580422522.29551,-0.802014190890365,-0.473884184023804,0.153566796368352
1580422522.32726,-0.932387273975738,-0.388921950102999,0.295170519569695
1580422522.35901,-1.29323262378882,-0.555916685740444,-0.110109102006561
1580422522.39075,-1.11256580453193,-1.0124666208896,-0.113038834210727
1580422522.4225,-0.829846646829939,-0.891859311818113,-0.164797436484321
1580422522.45425,-0.87672236209659,-0.402594033722439,-0.0827649347676811
1580422522.486,-1.18434424353399,0.340093080033569,0.313237201495383
1580422522.51775,-1.2087586785687,0.216067750057221,0.543221179522394
1580422522.54949,-1.23121995880064,-0.44946974898909,-0.330815594720379
1580422522.58124,-0.888929579613947,-0.549568932631418,0.324956130312046
1580422522.61299,-0.958266575112535,-0.304936293583582,0.0451667048142212
1580422522.64474,-1.11305409323262,0.00317387655451284,-0.184328984512092
1580422522.67648,-1.20582894636454,-0.255619134813459,-0.0788586251621268
1580422522.70823,-1.04567025253681,-0.385992217898833,0.0573739223315783
1580422522.73998,-0.995864805065995,-0.147219043259327,0.0368657969024184
1580422522.77173,-1.00123598077363,-0.103761348897535,0.0334477759975584
1580422522.80348,-0.934340428778516,-0.265384908827345,0.0979018844892039
1580422522.83522,-0.958266575112535,-0.123292896925307,0.044678416113527
1580422522.86697,-0.997817959868772,-0.157473105973907,-0.00170901045242999
1580422522.89872,-1.03590447852293,-0.162844281681544,0.0842298008697639
1580422522.93047,-0.994399938963912,0.163332570382238,0.125734340428778
1580422522.96221,-1.01100175478752,0.239505607690546,0.126222629129472
1580422522.99396,-1.03297474631876,0.189700160219729,0.189700160219729
1580422523.02585,-1.07350270847639,0.28442816815442,0.181399252307926
1580422523.0576,-1.00563057907988,0.127199206530861,0.180910963607232
1580422523.08934,-1.16676585030899,-0.0388189517051956,0.129640650034332
1580422523.12109,-1.19899290455482,0.0754406042572668,0.171145189593346
1580422523.15284,-1.25709925993744,0.181887541008621,0.190188448920424
1580422523.18459,-1.42165255207141,0.330327306019683,0.37671473258564
1580422523.21633,-1.46364538033112,0.117433432516975,0.244388494697489
1580422523.24808,-1.37526512550546,-0.312748912794691,-0.00561532005798426
1580422523.27983,-1.07008468757153,-0.526131074998093,-0.0476081483176927
1580422523.31158,-0.480720225833524,-0.913344014648661,-0.120851453421835
1580422523.34333,-0.659433890287632,-0.622323949034866,-0.136964980544747
1580422523.37507,-0.309330891889831,-0.309819180590525,0.149660486762798
1580422523.40682,-0.294682230869002,-0.712169069962615,-0.12475776302739
1580422523.43857,-0.450934615091173,-0.843030441748684,-0.0886243991760125
1580422523.47032,-0.525154497596704,-0.85621423666743,0.0290531776913099
1580422523.50206,-0.625253681239032,-0.393316548409247,0.149172198062104
1580422523.53381,-0.998794537270161,-0.113527122911421,0.222415503166246
1580422523.56556,-1.30202182040131,-0.457282368200199,0.0461432822156098
1580422523.59731,-1.19850461585412,-0.944594491493095,-0.0495613031204698
1580422523.62906,-0.889417868314641,-0.823987182421607,-0.113527122911421
1580422523.6608,-0.917250324254216,-0.429938200961319,-0.0886243991760125
1580422523.69255,-0.888441290913253,-0.290287632562753,-0.0578622110322726
1580422523.7243,-1.27565423056382,0.483649958037688,0.782970931563288
1580422523.75605,-1.32350652323186,-0.0520027466239412,0.25708400091554
1580422523.7878,-1.18385595483329,-0.780529488059816,0.119386587319752
1580422523.81954,-0.937758449683376,-0.252201113908599,0.257572289616235
1580422523.85129,-1.0383459220264,-0.138429846646829,-0.206301976043335
1580422523.88304,-1.11598382543679,-0.168703746089875,-0.207766842145418
1580422523.91479,-1.11061264972915,-0.317631799801633,0.0583504997329669
1580422523.94653,-0.976821545738918,-0.0754406042572668,0.215091172655832
1580422523.97828,-0.966567483024338,-0.0207522697795071,0.109620813305867
1580422524.01003,-0.987075608453498,-0.180422674906538,0.0261234454871442
1580422524.04178,-0.959731441214618,-0.0393072404058898,-0.0280766002899213
1580422524.07353,-0.958266575112535,0.0837415121690697,-0.0227054245822842
1580422524.10527,-1.03639276722362,-0.240970473792629,0.00170901045242999
1580422524.13702,-1.05494773785,-0.166750591287098,0.172121766994735
1580422524.16877,-1.02320897230488,0.214114595254443,0.155519951171129
1580422524.20052,-1.0124666208896,0.177492942702372,0.133058670939192
1580422524.23226,-1.09108110170138,0.145754177157244,0.153566796368352
1580422524.26401,-1.00660715648127,0.207766842145418,0.149660486762798
1580422524.29574,-1.08326848249027,-0.099855039291981,0.116456855115587
1580422524.32749,-1.23073167009995,-0.063721675440604,0.138918135347524
1580422524.35924,-1.18043793392843,0.0783703364614325,0.314213778896772
1580422524.39099,-1.29665064469368,0.215091172655832,0.33911650263218
1580422524.42273,-1.38747234302281,0.242923628595406,0.286381322957197
1580422524.45448,-1.31813534752422,-0.207278553444723,0.107179369802395
1580422524.48623,-1.24049744411383,-0.423102159151599,0.129640650034332
1580422524.51798,-0.870374608987564,-0.771252002746625,-0.166750591287098
1580422524.54972,-0.622323949034866,-0.76734569314107,-0.302983138780805
1580422524.58147,-0.572030212863355,-0.373785000381476,0.127687495231555
1580422524.61322,-0.283939879453728,-0.586678873884184,0.00122072175173571
1580422524.64497,-0.373785000381476,-0.891371023117419,-0.132570382238498
1580422524.67671,-0.498786907759213,-0.810315098802167,-0.0285648889906156
1580422524.70846,-0.491462577248798,-0.717540245670252,0.0646982528419926
1580422524.74021,-0.576424811169604,-0.457770656900893,0.0441901274128327
1580422524.77196,-0.944594491493095,-0.145265888456549,0.222903791866941
1580422524.8037,-1.12526131074998,-0.451422903791867,0.166750591287098
1580422524.83545,-1.24196231021591,-0.921644922560464,-0.0539559014267184
1580422524.8672,-0.98951705195697,-0.795178149080645,-0.0158693827725642
1580422524.89894,-0.949477378500038,-0.253665980010682,-0.0656748302433812
1580422524.93069,-1.07594415197986,-0.178957808804455,0.0871595330739297
1580422524.96244,-1.30690470740826,0.839612420843824,0.680430304417488
1580422524.99419,-1.07057297627222,0.135011825741969,-0.0813000686655982
1580422525.02593,-1.1745784695201,-0.601327534905012,0.0734874494544897
1580422525.05768,-0.865003433279927,-0.387457084000916,0.3117723353933
1580422525.08943,-1.01393148699168,-0.259525444419014,0.0451667048142212
1580422525.12118,-1.08473334859235,0.0949721522850382,-0.0944838635843439
1580422525.15292,-1.10084687571527,-0.203372243839169,-0.0979018844892039
1580422525.18467,-1.04908827344167,-0.420660715648127,-0.0461432822156098
1580422525.21642,-1.03150988021668,-0.00610360875867855,0.0754406042572668
1580422525.24817,-0.980239566643778,-0.0759288929579611,0.0837415121690697
1580422525.27991,-1.01344319829099,-0.260013733119708,0.0627450980392155
1580422525.31166,-1.00318913557641,-0.114015411612115,0.0202639810788128
1580422525.34341,-1.00221255817502,-0.0847180895704582,0.0852063782711525
1580422525.37515,-1.01783779659724,-0.0905775539787896,0.0490730144197755
1580422525.4069,-0.990493629358358,0.0407721065079727,0.11450370031281
1580422525.43865,-0.98268101014725,0.162355992980849,0.0915541313801782
1580422525.4704,-0.990005340657664,0.188235294117646,0.141359578850995
1580422525.50214,-1.02613870450904,0.136476691844052,0.159914549477378
1580422525.53389,-1.07740901808194,-0.0046387426565957,0.128175783932249
1580422525.5657,-1.13112077515831,-0.0744640268558783,0.12475776302739
1580422525.59745,-1.20387579156176,0.0544441901274126,0.200930800335698
1580422525.6292,-1.28981460288396,0.212649729152361,0.273197528038452
1580422525.66095,-1.51149767299916,0.341069657434957,0.38355077439536
1580422525.69269,-1.47829404135195,-0.10424963759823,0.232181277180132
1580422525.72444,-1.25416952773327,-0.470466163118944,0.0251468680857556
1580422525.75619,-1.01637293049516,-0.34009308003357,-0.238040741588463
1580422525.78794,-0.397222858014802,-0.976333257038224,-0.00415045395590141
1580422525.81968,-0.676035706111238,-0.626718547341115,-0.245365072098878
1580422525.85143,-0.384039063096056,-0.196047913328755,0.208743419546806
1580422525.88318,-0.256595712214848,-0.642832074464026,-0.134035248340581
1580422525.91492,-0.646738384069581,-1.00709544518196,-0.103273060196841
1580422525.94667,-0.525642786297398,-0.891371023117419,-0.0646982528419926
1580422525.97842,-0.500251773861295,-0.39478141451133,0.125246051728084
1580422526.01017,-0.918715190356298,-0.0368657969024184,0.0495613031204698
1580422526.04191,-1.19557488364996,-0.338139925230793,0.103761348897535
1580422526.07366,-1.1916685740444,-1.0642252231632,-0.0925307087815668
1580422526.10541,-0.973891813534753,-0.973891813534753,-0.119386587319752
1580422526.13716,-0.911879148546578,-0.0324711985961699,0.0871595330739297
1580422526.1689,-1.01393148699168,-0.0837415121690697,0.138429846646829
1580422526.20065,-1.27565423056382,0.368413824673837,0.37671473258564
1580422526.2324,-0.943129625391013,0.108155947203784,0.490485999847408
1580422526.26414,-1.33620202944991,-0.434821087968261,-0.102296482795452
1580422526.29589,-1.05934233615625,-0.513923857480735,0.196047913328755
1580422526.32764,-0.88355840390631,-0.162844281681544,0.222415503166246
1580422526.35939,-1.07447928587777,0.112550545510032,-0.146730754558632
1580422526.39113,-1.12721446555276,-0.289311055161365,-0.150637064164187
1580422526.42288,-1.02613870450904,-0.445075150682841,-0.0607919432364383
1580422526.45463,-1.03053330281529,-0.0891126878767068,0.0485847257190812
1580422526.48638,-0.998794537270161,-0.165774013885709,0.0144045166704814
1580422526.51812,-1.01490806439307,-0.289799343862059,0.0256351567864499
1580422526.54987,-0.989028763256275,-0.0822766460669868,0.0393072404058898
1580422526.58162,-0.993911650263218,-0.063721675440604,0.0349126420996413
1580422526.61337,-1.00221255817502,-0.115480277714198,0.0402838178072784
1580422526.64511,-0.999282825970855,0.0422369726100555,0.0749523155565726
1580422526.67686,-1.0295567254139,0.10083161669337,0.139894712748912
1580422526.70861,-0.960219729915313,0.244388494697489,0.136476691844052
1580422526.74036,-0.990981918059052,0.26392004272526,0.162844281681544
1580422526.7721,-1.03395132372015,0.213626306553749,0.126222629129472
1580422526.80385,-1.12477302204929,0.0476081483176927,0.0886243991760125
1580422526.83563,-1.19801632715343,0.0593270771343555,0.204348821240558
1580422526.86738,-1.28102540627146,0.27075608453498,0.343999389639123
1580422526.89913,-1.50319676508736,0.28101014724956,0.353765163653009
1580422526.93087,-1.50514991989014,-0.173098344396124,0.100343327992675
1580422526.96262,-1.2600289921416,-0.70142671854734,0.0144045166704814
1580422526.99437,-1.13014419775692,-0.939711604486153,-0.537361715114061
