Timestamp_seconds,Gyro_X_s,Gyro_Y_s,Gyro_Z_s
1580417193.68925,1.0681315327688,0.152590218966907,0.335698481727377
1580417193.69325,1.0681315327688,0.091554131380235,0.274662394140478
1580417193.69724,1.0070954451819,-0.091554131380235,0.335698481727377
1580417193.70124,1.0681315327688,-0.0305180437933359,0.274662394140478
1580417193.70523,0.823987182421661,0.091554131380235,0.274662394140478
1580417193.70922,0.885023270008332,0.091554131380235,0.396734569314049
1580417193.71322,0.823987182421661,0.0305180437933359,0.335698481727377
1580417193.71721,0.823987182421661,0.0305180437933359,0.335698481727377
1580417193.72121,0.885023270008332,-0.091554131380235,0.396734569314049
1580417193.7252,1.0070954451819,-0.152590218966907,0.335698481727377
1580417193.72919,0.946059357595232,-0.152590218966907,0.335698481727377
1580417193.73319,0.946059357595232,-0.091554131380235,0.457770656900948
1580417193.73718,0.885023270008332,-0.0305180437933359,0.396734569314049
1580417193.74118,1.0070954451819,-0.152590218966907,0.335698481727377
1580417193.74517,1.0070954451819,-0.091554131380235,0.396734569314049
1580417193.74916,1.0681315327688,-0.0305180437933359,0.51880674448762
1580417193.75314,1.19020370794237,-0.0305180437933359,0.70191500724809
1580417193.75714,1.31227588311594,-0.0305180437933359,0.762951094834762
1580417193.76113,1.31227588311594,-0.0305180437933359,0.762951094834762
1580417193.76513,1.37331197070262,-0.0305180437933359,0.70191500724809
1580417193.76912,1.31227588311594,0.091554131380235,0.823987182421661
1580417193.77311,1.37331197070262,0.091554131380235,0.70191500724809
1580417193.77711,1.37331197070262,0.091554131380235,0.762951094834762
1580417193.7811,1.43434805828952,0.274662394140478,0.762951094834762
1580417193.78509,1.49538414587619,0.274662394140478,0.762951094834762
1580417193.78909,1.43434805828952,0.335698481727377,0.640878919661191
1580417193.79308,1.67849240863666,0.335698481727377,0.70191500724809
1580417193.79708,1.80056458381023,0.396734569314049,0.640878919661191
1580417193.80107,1.8616006713969,0.274662394140478,0.70191500724809
1580417193.80506,1.73952849622333,0.213626306553806,0.640878919661191
1580417193.80906,1.73952849622333,0.152590218966907,0.70191500724809
1580417193.81305,1.8616006713969,0.091554131380235,0.762951094834762
1580417193.81705,1.67849240863666,0.152590218966907,0.823987182421661
1580417193.82104,1.67849240863666,0.091554131380235,0.885023270008332
1580417193.82503,1.55642023346309,0.213626306553806,0.823987182421661
1580417193.82903,1.43434805828952,0.274662394140478,0.885023270008332
1580417193.83304,1.43434805828952,0.152590218966907,0.946059357595232
1580417193.83703,1.31227588311594,0.152590218966907,0.823987182421661
1580417193.84103,1.0681315327688,0.091554131380235,0.823987182421661
1580417193.84502,1.0070954451819,0.091554131380235,0.823987182421661
1580417193.84901,0.823987182421661,0.0305180437933359,0.885023270008332
1580417193.85301,0.70191500724809,-0.091554131380235,0.885023270008332
1580417193.857,0.640878919661191,-0.152590218966907,0.823987182421661
1580417193.861,0.70191500724809,-0.0305180437933359,0.885023270008332
1580417193.86499,0.640878919661191,0.0305180437933359,0.762951094834762
1580417193.86898,0.579842832074519,-0.0305180437933359,0.70191500724809
1580417193.87298,0.70191500724809,-0.0305180437933359,0.640878919661191
1580417193.87697,0.762951094834762,0.0305180437933359,0.51880674448762
1580417193.88097,0.823987182421661,0.091554131380235,0.457770656900948
1580417193.88496,1.0070954451819,0.091554131380235,0.396734569314049
1580417193.88895,1.0070954451819,0.091554131380235,0.274662394140478
1580417193.89295,1.0070954451819,0.0305180437933359,0.213626306553806
1580417193.89694,1.0070954451819,0.0305180437933359,0.335698481727377
1580417193.90094,0.823987182421661,-0.0305180437933359,0.335698481727377
1580417193.90493,0.640878919661191,-0.152590218966907,0.335698481727377
1580417193.90892,0.396734569314049,-0.213626306553806,0.335698481727377
1580417193.9129,0.51880674448762,-0.091554131380235,0.396734569314049
1580417193.9169,0.335698481727377,0.091554131380235,0.457770656900948
1580417193.92089,0.396734569314049,0.0305180437933359,0.51880674448762
1580417193.92488,0.51880674448762,0.0305180437933359,0.579842832074519
1580417193.92888,0.640878919661191,-0.0305180437933359,0.457770656900948
1580417193.93287,0.51880674448762,0.0305180437933359,0.51880674448762
1580417193.93687,0.51880674448762,-0.0305180437933359,0.51880674448762
1580417193.94086,0.335698481727377,-0.152590218966907,0.640878919661191
1580417193.94485,0.213626306553806,-0.335698481727377,0.762951094834762
1580417193.94885,0.152590218966907,-0.274662394140478,0.823987182421661
1580417193.95284,0.396734569314049,-0.396734569314049,0.946059357595232
1580417193.95684,0.274662394140478,-0.152590218966907,0.885023270008332
1580417193.96083,0.51880674448762,-0.091554131380235,1.0070954451819
1580417193.96482,0.579842832074519,-0.091554131380235,1.0070954451819
1580417193.96882,0.762951094834762,-0.0305180437933359,0.823987182421661
1580417193.97281,0.70191500724809,-0.0305180437933359,0.823987182421661
1580417193.97681,0.70191500724809,0.0305180437933359,0.823987182421661
1580417193.9808,0.51880674448762,0.0305180437933359,0.946059357595232
1580417193.98479,0.396734569314049,-0.152590218966907,0.762951094834762
1580417193.98879,0.457770656900948,-0.152590218966907,0.823987182421661
1580417193.9928,0.457770656900948,-0.213626306553806,0.640878919661191
1580417193.99679,0.640878919661191,-0.396734569314049,0.70191500724809
1580417194.00078,0.640878919661191,-0.396734569314049,0.579842832074519
1580417194.00478,0.823987182421661,-0.335698481727377,0.51880674448762
1580417194.00877,1.0070954451819,-0.274662394140478,0.396734569314049
1580417194.01277,1.0681315327688,-0.335698481727377,0.396734569314049
1580417194.01676,1.25123979552905,-0.335698481727377,0.396734569314049
1580417194.02075,1.43434805828952,-0.274662394140478,0.335698481727377
1580417194.02475,1.49538414587619,-0.335698481727377,0.335698481727377
1580417194.02874,1.61745632104976,-0.51880674448762,0.335698481727377
1580417194.03274,1.67849240863666,-0.51880674448762,0.274662394140478
1580417194.03673,1.49538414587619,-0.640878919661191,0.274662394140478
1580417194.04072,1.43434805828952,-0.640878919661191,0.274662394140478
1580417194.04472,1.43434805828952,-0.946059357595232,0.274662394140478
1580417194.04871,1.61745632104976,-1.0070954451819,0.213626306553806
1580417194.05271,1.8616006713969,-0.885023270008332,0.152590218966907
1580417194.0567,1.98367284657047,-0.823987182421661,0.274662394140478
1580417194.06069,2.41092545967808,-0.823987182421661,0.274662394140478
1580417194.06469,2.65506981002522,-0.762951094834762,0.335698481727377
1580417194.06868,2.83817807278547,-0.885023270008332,0.335698481727377
1580417194.07266,3.08232242313261,-0.946059357595232,0.335698481727377
1580417194.07666,3.20439459830618,-1.0070954451819,0.396734569314049
1580417194.08065,3.26543068589308,-1.19020370794237,0.396734569314049
1580417194.08464,3.14335851071951,-1.25123979552905,0.457770656900948
1580417194.08864,3.02128633554594,-1.25123979552905,0.213626306553806
1580417194.09263,2.89921416037237,-1.12916762035547,0.0305180437933359
1580417194.09663,2.7161058976119,-1.0070954451819,-0.0305180437933359
1580417194.10062,2.59403372243833,-1.0070954451819,-0.0305180437933359
1580417194.10461,2.47196154726475,-0.885023270008332,0.091554131380235
1580417194.10861,2.59403372243833,-0.762951094834762,0.0305180437933359
1580417194.1126,2.7771419851988,-0.51880674448762,-0.0305180437933359
1580417194.1166,3.02128633554594,-0.335698481727377,0.0305180437933359
1580417194.12059,2.96025024795904,-0.213626306553806,0.152590218966907
1580417194.12458,3.02128633554594,-0.213626306553806,0.213626306553806
1580417194.12858,2.89921416037237,-0.335698481727377,0.335698481727377
1580417194.13257,2.59403372243833,-0.457770656900948,0.274662394140478
1580417194.13657,2.34988937209118,-0.51880674448762,0.335698481727377
1580417194.14056,2.16678110933094,-0.70191500724809,0.274662394140478
1580417194.14455,1.9226367589838,-0.946059357595232,0.213626306553806
1580417194.14855,1.8616006713969,-1.0681315327688,0.091554131380235
1580417194.15256,1.67849240863666,-1.12916762035547,0.0305180437933359
1580417194.15655,1.67849240863666,-1.12916762035547,-0.152590218966907
1580417194.16054,1.61745632104976,-1.12916762035547,-0.335698481727377
1580417194.16454,1.73952849622333,-1.12916762035547,-0.457770656900948
1580417194.16853,1.8616006713969,-1.0681315327688,-0.640878919661191
1580417194.17253,2.04470893415737,-0.885023270008332,-0.70191500724809
1580417194.17652,2.10574502174404,-0.762951094834762,-0.762951094834762
1580417194.18051,2.22781719691761,-0.70191500724809,-0.762951094834762
1580417194.18451,2.41092545967808,-0.51880674448762,-0.762951094834762
1580417194.1885,2.34988937209118,-0.457770656900948,-0.762951094834762
1580417194.1925,2.47196154726475,-0.274662394140478,-0.762951094834762
1580417194.19649,2.65506981002522,-0.213626306553806,-0.762951094834762
1580417194.20048,2.65506981002522,0.152590218966907,-0.823987182421661
1580417194.20448,2.89921416037237,0.091554131380235,-0.885023270008332
1580417194.20847,2.89921416037237,-0.0305180437933359,-0.885023270008332
1580417194.21247,2.83817807278547,-0.091554131380235,-1.0070954451819
1580417194.21646,2.65506981002522,-0.152590218966907,-0.823987182421661
1580417194.22045,2.47196154726475,-0.213626306553806,-0.885023270008332
1580417194.22445,2.16678110933094,-0.335698481727377,-0.885023270008332
1580417194.22844,1.73952849622333,-0.335698481727377,-0.946059357595232
1580417194.23242,1.43434805828952,-0.335698481727377,-0.946059357595232
1580417194.23641,1.12916762035547,-0.396734569314049,-0.762951094834762
1580417194.24041,1.0070954451819,-0.335698481727377,-0.762951094834762
1580417194.2444,0.885023270008332,-0.213626306553806,-0.823987182421661
1580417194.2484,0.762951094834762,-0.0305180437933359,-0.762951094834762
1580417194.25239,0.823987182421661,-0.091554131380235,-1.0070954451819
1580417194.25638,0.946059357595232,-0.213626306553806,-1.0681315327688
1580417194.26038,1.0070954451819,-0.457770656900948,-1.25123979552905
1580417194.26437,1.19020370794237,-0.51880674448762,-1.31227588311594
1580417194.26837,1.25123979552905,-0.640878919661191,-1.49538414587619
1580417194.27236,1.37331197070262,-0.70191500724809,-1.49538414587619
1580417194.27636,1.31227588311594,-0.70191500724809,-1.80056458381023
1580417194.28035,1.31227588311594,-0.70191500724809,-1.9226367589838
1580417194.28434,1.55642023346309,-0.885023270008332,-1.98367284657047
1580417194.28834,1.9226367589838,-0.70191500724809,-1.98367284657047
1580417194.29233,2.28885328450451,-0.640878919661191,-1.9226367589838
1580417194.29632,2.65506981002522,-0.579842832074519,-1.8616006713969
1580417194.30032,2.96025024795904,-0.213626306553806,-1.80056458381023
1580417194.30431,3.20439459830618,-0.091554131380235,-1.80056458381023
1580417194.30831,3.32646677347975,0.0305180437933359,-1.67849240863666
1580417194.31232,3.38750286106665,0.0305180437933359,-1.67849240863666
1580417194.31631,3.14335851071951,-0.213626306553806,-1.49538414587619
1580417194.3203,2.89921416037237,-0.213626306553806,-1.55642023346309
1580417194.3243,2.65506981002522,-0.091554131380235,-1.67849240863666
1580417194.32829,2.41092545967808,-0.274662394140478,-1.73952849622333
1580417194.33229,2.28885328450451,-0.396734569314049,-1.67849240863666
1580417194.33628,2.28885328450451,-0.396734569314049,-1.80056458381023
1580417194.34027,2.28885328450451,-0.396734569314049,-1.9226367589838
1580417194.34427,2.34988937209118,-0.457770656900948,-1.98367284657047
1580417194.34826,2.28885328450451,-0.579842832074519,-2.16678110933094
1580417194.35226,2.34988937209118,-0.70191500724809,-2.16678110933094
1580417194.35625,2.34988937209118,-0.70191500724809,-2.16678110933094
1580417194.36024,2.47196154726475,-0.885023270008332,-2.41092545967808
1580417194.36424,2.34988937209118,-1.0070954451819,-2.53299763485165
1580417194.36823,2.28885328450451,-1.0681315327688,-2.59403372243833
1580417194.37223,2.34988937209118,-1.12916762035547,-2.7161058976119
1580417194.37622,2.28885328450451,-1.12916762035547,-2.65506981002522
1580417194.38021,2.28885328450451,-1.31227588311594,-2.7771419851988
1580417194.38421,2.22781719691761,-1.37331197070262,-2.89921416037237
1580417194.3882,2.41092545967808,-1.43434805828952,-2.83817807278547
1580417194.39218,2.28885328450451,-1.67849240863666,-2.83817807278547
1580417194.39617,2.04470893415737,-1.73952849622333,-2.89921416037237
1580417194.40017,1.8616006713969,-1.80056458381023,-2.83817807278547
1580417194.40416,1.67849240863666,-1.9226367589838,-2.7161058976119
1580417194.40816,1.61745632104976,-2.04470893415737,-2.65506981002522
1580417194.41215,1.55642023346309,-2.04470893415737,-2.53299763485165
1580417194.41614,1.43434805828952,-2.16678110933094,-2.47196154726475
1580417194.42014,1.37331197070262,-2.22781719691761,-2.34988937209118
1580417194.42413,1.43434805828952,-2.04470893415737,-2.47196154726475
1580417194.42813,1.61745632104976,-1.98367284657047,-2.34988937209118
1580417194.43212,1.73952849622333,-1.8616006713969,-2.59403372243833
1580417194.43612,1.80056458381023,-1.73952849622333,-2.7771419851988
1580417194.44011,1.98367284657047,-1.37331197070262,-2.83817807278547
1580417194.4441,2.04470893415737,-1.12916762035547,-3.02128633554594
1580417194.4481,2.04470893415737,-0.946059357595232,-3.20439459830618
1580417194.45209,2.47196154726475,-0.640878919661191,-3.32646677347975
1580417194.45608,2.7161058976119,-0.579842832074519,-3.38750286106665
1580417194.46008,2.83817807278547,-0.640878919661191,-3.38750286106665
1580417194.46407,3.02128633554594,-0.762951094834762,-3.20439459830618
1580417194.46807,3.02128633554594,-0.885023270008332,-3.08232242313261
1580417194.47208,3.02128633554594,-1.12916762035547,-2.96025024795904
1580417194.47607,2.83817807278547,-1.55642023346309,-2.7771419851988
1580417194.48006,2.89921416037237,-1.80056458381023,-2.53299763485165
1580417194.48406,2.7161058976119,-1.9226367589838,-2.34988937209118
1580417194.48805,2.47196154726475,-2.10574502174404,-2.28885328450451
1580417194.49205,2.10574502174404,-2.16678110933094,-2.04470893415737
1580417194.49604,1.9226367589838,-2.28885328450451,-1.98367284657047
1580417194.50003,1.98367284657047,-2.04470893415737,-1.8616006713969
1580417194.50403,1.98367284657047,-1.98367284657047,-1.73952849622333
1580417194.50802,1.9226367589838,-1.98367284657047,-1.80056458381023
1580417194.51202,1.55642023346309,-1.98367284657047,-1.8616006713969
1580417194.51601,1.25123979552905,-1.8616006713969,-1.98367284657047
1580417194.52,0.762951094834762,-1.8616006713969,-2.04470893415737
1580417194.524,0.579842832074519,-1.8616006713969,-2.28885328450451
1580417194.52799,0.274662394140478,-1.73952849622333,-2.47196154726475
1580417194.53199,0.152590218966907,-1.67849240863666,-2.96025024795904
1580417194.53598,0.274662394140478,-1.49538414587619,-3.14335851071951
1580417194.53997,0.457770656900948,-1.25123979552905,-3.38750286106665
1580417194.54397,0.51880674448762,-0.946059357595232,-3.69268329900046
1580417194.54796,0.579842832074519,-0.946059357595232,-3.93682764934761
1580417194.55194,0.457770656900948,-0.885023270008332,-4.05889982452118
1580417194.55593,0.579842832074519,-1.0681315327688,-4.24200808728165
1580417194.55993,0.579842832074519,-1.37331197070262,-4.30304417486832
1580417194.56392,0.762951094834762,-1.43434805828952,-4.30304417486832
1580417194.56792,0.762951094834762,-1.37331197070262,-4.36408026245522
1580417194.57191,0.823987182421661,-1.37331197070262,-4.24200808728165
1580417194.5759,1.0070954451819,-1.19020370794237,-3.99786373693451
1580417194.5799,1.25123979552905,-1.0681315327688,-3.87579156176093
1580417194.58389,1.43434805828952,-0.762951094834762,-3.75371938658736
1580417194.58789,1.61745632104976,-0.640878919661191,-3.44853894865332
1580417194.59188,1.9226367589838,-0.51880674448762,-3.02128633554594
1580417194.59587,2.22781719691761,-0.51880674448762,-2.65506981002522
1580417194.59987,2.34988937209118,-0.579842832074519,-2.28885328450451
1580417194.60386,2.53299763485165,-0.51880674448762,-1.8616006713969
1580417194.60786,2.41092545967808,-0.640878919661191,-1.67849240863666
1580417194.61185,2.28885328450451,-0.885023270008332,-1.31227588311594
1580417194.61584,2.16678110933094,-1.12916762035547,-1.19020370794237
1580417194.61984,2.10574502174404,-1.25123979552905,-1.25123979552905
1580417194.62383,2.10574502174404,-1.37331197070262,-1.31227588311594
1580417194.62783,2.04470893415737,-1.67849240863666,-1.43434805828952
1580417194.63184,1.55642023346309,-1.9226367589838,-1.80056458381023
1580417194.63583,1.25123979552905,-1.9226367589838,-2.10574502174404
1580417194.63982,0.946059357595232,-2.22781719691761,-2.47196154726475
1580417194.64382,0.579842832074519,-2.59403372243833,-2.83817807278547
1580417194.64781,0.396734569314049,-2.96025024795904,-2.89921416037237
1580417194.65181,0.335698481727377,-3.32646677347975,-3.08232242313261
1580417194.6558,0.091554131380235,-3.50957503624022,-3.02128633554594
1580417194.65979,0.0305180437933359,-3.57061112382689,-3.08232242313261
1580417194.66379,-0.152590218966907,-3.57061112382689,-2.96025024795904
1580417194.66778,-0.152590218966907,-3.69268329900046,-2.83817807278547
1580417194.67177,-0.396734569314049,-3.50957503624022,-2.53299763485165
1580417194.67577,-0.457770656900948,-3.44853894865332,-2.28885328450451
1580417194.67976,-0.51880674448762,-3.32646677347975,-2.16678110933094
1580417194.68376,-0.640878919661191,-3.08232242313261,-1.9226367589838
1580417194.68775,-0.579842832074519,-3.08232242313261,-1.80056458381023
1580417194.69175,-0.457770656900948,-3.02128633554594,-1.98367284657047
1580417194.69574,-0.274662394140478,-2.96025024795904,-2.22781719691761
1580417194.69973,0.152590218966907,-3.02128633554594,-2.47196154726475
1580417194.70373,0.152590218966907,-3.14335851071951,-2.7771419851988
1580417194.70772,0.457770656900948,-3.08232242313261,-3.26543068589308
1580417194.7117,0.823987182421661,-3.26543068589308,-3.50957503624022
1580417194.71569,1.25123979552905,-3.14335851071951,-3.75371938658736
1580417194.71969,1.8616006713969,-3.20439459830618,-3.87579156176093
1580417194.72368,2.41092545967808,-3.20439459830618,-4.18097199969475
1580417194.72768,2.96025024795904,-3.14335851071951,-4.11993591210808
1580417194.73167,3.38750286106665,-3.20439459830618,-4.11993591210808
1580417194.73566,3.87579156176093,-3.32646677347975,-3.81475547417404
1580417194.73966,4.60822461280236,-3.50957503624022,-3.38750286106665
1580417194.74365,5.34065766384379,-3.69268329900046,-3.08232242313261
1580417194.74765,5.88998245212474,-3.63164721141379,-2.7161058976119
1580417194.75164,6.74448767833974,-3.63164721141379,-2.34988937209118
1580417194.75563,7.53795681696806,-3.57061112382689,-1.9226367589838
1580417194.75963,8.39246204318306,-3.69268329900046,-1.55642023346309
1580417194.76362,9.24696726939806,-3.75371938658736,-1.31227588311594
1580417194.76762,10.1014724956131,-3.99786373693451,-1.0681315327688
1580417194.77161,11.0170138094147,-4.05889982452118,-1.0070954451819
1580417194.7756,11.7494468604561,-4.24200808728165,-1.12916762035547
1580417194.7796,12.0546272983902,-4.30304417486832,-1.31227588311594
1580417194.78359,11.9935912108033,-4.36408026245522,-1.37331197070262
1580417194.78759,11.6884107728695,-4.42511635004189,-1.55642023346309
1580417194.79156,10.955977721828,-4.66926070038903,-1.55642023346309
1580417194.79556,10.0404364080262,-5.09651331349664,-1.61745632104976
1580417194.79955,8.81971465629044,-5.46272983901736,-1.55642023346309
1580417194.80355,7.53795681696806,-5.82894636453807,-1.43434805828952
1580417194.80754,6.01205462729831,-6.07309071488521,-1.19020370794237
1580417194.81153,4.42511635004189,-6.43930724040592,-1.0070954451819
1580417194.81553,3.08232242313261,-6.86655985351331,-1.0070954451819
1580417194.81952,2.10574502174404,-7.17174029144735,-0.885023270008332
1580417194.82352,1.25123979552905,-7.29381246662092,-0.70191500724809
1580417194.82751,0.640878919661191,-7.29381246662092,-0.70191500724809
1580417194.8315,0.335698481727377,-7.17174029144735,-0.885023270008332
1580417194.8355,0.213626306553806,-7.17174029144735,-1.12916762035547
1580417194.83949,0.0305180437933359,-7.11070420386045,-1.25123979552905
1580417194.84349,0.152590218966907,-7.04966811627378,-1.19020370794237
1580417194.84748,0.152590218966907,-7.17174029144735,-1.12916762035547
1580417194.85147,0.213626306553806,-7.17174029144735,-1.0681315327688
1580417194.85547,0.091554131380235,-7.11070420386045,-1.0681315327688
1580417194.85946,-0.152590218966907,-7.04966811627378,-0.946059357595232
1580417194.86346,-0.274662394140478,-7.11070420386045,-0.823987182421661
1580417194.86745,-0.213626306553806,-7.04966811627378,-0.579842832074519
1580417194.87146,-0.274662394140478,-7.11070420386045,-0.396734569314049
1580417194.87545,-0.51880674448762,-7.17174029144735,-0.457770656900948
1580417194.87945,-0.70191500724809,-7.17174029144735,-0.335698481727377
1580417194.88344,-1.0681315327688,-7.29381246662092,-0.274662394140478
1580417194.88744,-1.19020370794237,-7.41588464179449,-0.396734569314049
1580417194.89143,-1.25123979552905,-7.47692072938116,-0.457770656900948
1580417194.89542,-1.31227588311594,-7.72106507972831,-0.579842832074519
1580417194.89942,-1.0070954451819,-7.96520943007545,-0.70191500724809
1580417194.90341,-0.335698481727377,-8.02624551766235,-0.946059357595232
1580417194.9074,0.579842832074519,-7.96520943007545,-1.0070954451819
1580417194.9114,1.73952849622333,-7.7821011673152,-1.19020370794237
1580417194.91539,2.7771419851988,-7.53795681696806,-1.19020370794237
1580417194.91939,3.69268329900046,-7.41588464179449,-1.31227588311594
1580417194.92338,4.54718852521546,-7.11070420386045,-1.43434805828952
1580417194.92737,5.15754940108332,-6.92759594110021,-1.49538414587619
1580417194.93137,5.95101853971164,-6.74448767833974,-1.43434805828952
1580417194.93536,6.56137941557949,-6.62241550316617,-1.43434805828952
1580417194.93936,6.98863202868688,-6.5003433279926,-1.43434805828952
1580417194.94335,7.23277637903402,-6.19516289005878,-1.37331197070262
1580417194.94735,7.66002899214163,-5.76791027695117,-1.19020370794237
1580417194.95132,7.96520943007545,-5.15754940108332,-1.19020370794237
1580417194.95532,8.20935378042259,-4.7913328755626,-0.885023270008332
1580417194.95931,8.14831769283592,-4.24200808728165,-0.640878919661191
1580417194.96331,7.90417334248878,-3.81475547417404,-0.51880674448762
1580417194.9673,7.53795681696806,-3.50957503624022,-0.213626306553806
1580417194.97129,7.17174029144735,-3.08232242313261,0.0305180437933359
1580417194.97529,6.74448767833974,-2.7161058976119,0.152590218966907
1580417194.97928,6.43930724040592,-2.28885328450451,0.335698481727377
1580417194.98328,6.25619897764545,-1.9226367589838,0.457770656900948
1580417194.98727,5.82894636453807,-1.37331197070262,0.51880674448762
1580417194.99126,5.82894636453807,-1.12916762035547,0.579842832074519
1580417194.99526,5.52376592660403,-0.762951094834762,0.579842832074519
1580417194.99925,5.03547722590974,-0.640878919661191,0.579842832074519
1580417195.00325,4.42511635004189,-0.457770656900948,0.274662394140478
1580417195.00724,3.50957503624022,-0.579842832074519,0.213626306553806
1580417195.01123,2.65506981002522,-0.640878919661191,0.152590218966907
1580417195.01523,1.73952849622333,-0.70191500724809,-0.091554131380235
1580417195.01922,1.0070954451819,-0.946059357595232,-0.213626306553806
1580417195.02322,0.457770656900948,-0.823987182421661,-0.152590218966907
1580417195.02721,0.091554131380235,-0.579842832074519,-0.152590218966907
1580417195.03122,-0.0305180437933359,-0.152590218966907,-0.152590218966907
1580417195.03521,0.0305180437933359,0.51880674448762,-0.0305180437933359
1580417195.03921,0.335698481727377,1.19020370794237,0.335698481727377
1580417195.0432,0.762951094834762,1.80056458381023,0.762951094834762
1580417195.04719,1.25123979552905,2.47196154726475,1.0070954451819
1580417195.05119,1.73952849622333,3.20439459830618,1.43434805828952
1580417195.05518,2.04470893415737,3.87579156176093,1.73952849622333
1580417195.05918,2.16678110933094,4.48615243762879,2.34988937209118
1580417195.06317,2.04470893415737,5.15754940108332,2.59403372243833
1580417195.06716,1.49538414587619,5.58480201419093,2.7771419851988
1580417195.07116,0.946059357595232,5.88998245212474,2.7771419851988
1580417195.07515,0.396734569314049,6.07309071488521,2.7161058976119
1580417195.07915,0.091554131380235,5.95101853971164,2.59403372243833
1580417195.08314,-0.274662394140478,5.7068741893645,2.65506981002522
1580417195.08713,-0.762951094834762,5.40169375143046,2.41092545967808
1580417195.09113,-1.0681315327688,5.15754940108332,2.34988937209118
1580417195.09512,-1.49538414587619,4.91340505073617,2.04470893415737
1580417195.09912,-2.10574502174404,4.66926070038903,1.67849240863666
1580417195.10311,-2.83817807278547,4.42511635004189,1.25123979552905
1580417195.10711,-3.08232242313261,3.99786373693451,0.823987182421661
1580417195.11108,-3.08232242313261,3.63164721141379,0.396734569314049
1580417195.11508,-2.59403372243833,3.20439459830618,0.0305180437933359
1580417195.11907,-1.80056458381023,2.83817807278547,-0.274662394140478
1580417195.12307,-0.70191500724809,2.59403372243833,-0.579842832074519
1580417195.12706,0.51880674448762,2.47196154726475,-0.885023270008332
1580417195.13105,1.9226367589838,2.22781719691761,-1.0070954451819
1580417195.13505,3.08232242313261,1.9226367589838,-1.31227588311594
1580417195.13904,4.11993591210808,1.37331197070262,-1.55642023346309
1580417195.14304,4.97444113832307,0.51880674448762,-1.80056458381023
1580417195.14703,5.76791027695117,-0.579842832074519,-2.10574502174404
1580417195.15102,6.37827115281902,-1.9226367589838,-2.7161058976119
1580417195.15502,6.92759594110021,-3.20439459830618,-2.89921416037237
1580417195.15901,7.35484855420759,-4.24200808728165,-3.14335851071951
1580417195.163,7.7821011673152,-5.15754940108332,-3.32646677347975
1580417195.167,8.39246204318306,-5.40169375143046,-3.32646677347975
1580417195.17099,9.12489509422448,-5.52376592660403,-3.14335851071951
1580417195.17499,9.55214770733187,-5.46272983901736,-2.96025024795904
1580417195.17898,9.97940032043948,-5.27962157625689,-2.7161058976119
1580417195.18297,10.4676890211338,-4.97444113832307,-2.22781719691761
1580417195.18697,10.7118333714809,-4.54718852521546,-1.49538414587619
1580417195.19098,10.8339055466545,-4.05889982452118,-1.0681315327688
1580417195.19497,10.4066529335469,-3.32646677347975,-0.51880674448762
1580417195.19897,9.85732814526591,-2.47196154726475,-0.091554131380235
1580417195.20296,9.4300755321583,-1.61745632104976,0.335698481727377
1580417195.20695,9.00282291905091,-0.885023270008332,0.579842832074519
1580417195.21095,8.81971465629044,-0.457770656900948,0.946059357595232
1580417195.21494,8.20935378042259,-0.274662394140478,1.0681315327688
1580417195.21894,7.23277637903402,-0.579842832074519,1.19020370794237
1580417195.22293,6.01205462729831,-1.31227588311594,1.19020370794237
1580417195.22692,4.91340505073617,-2.53299763485165,1.31227588311594
1580417195.23092,3.50957503624022,-3.57061112382689,1.37331197070262
1580417195.23491,1.61745632104976,-4.60822461280236,1.25123979552905
1580417195.23891,-0.762951094834762,-5.58480201419093,0.762951094834762
1580417195.2429,-2.96025024795904,-6.25619897764545,0.396734569314049
1580417195.24689,-4.7913328755626,-6.74448767833974,0.335698481727377
1580417195.25089,-5.82894636453807,-7.17174029144735,0.091554131380235
1580417195.25488,-6.13412680247188,-7.41588464179449,-0.0305180437933359
1580417195.25888,-5.88998245212474,-7.04966811627378,-0.152590218966907
1580417195.26287,-5.40169375143046,-6.43930724040592,-0.152590218966907
1580417195.26686,-5.15754940108332,-5.7068741893645,-0.0305180437933359
1580417195.27084,-4.60822461280236,-5.15754940108332,-0.0305180437933359
1580417195.27484,-4.11993591210808,-4.73029678797593,0.213626306553806
1580417195.27883,-3.26543068589308,-4.30304417486832,0.640878919661191
1580417195.28282,-1.8616006713969,-3.93682764934761,0.885023270008332
1580417195.28682,-0.335698481727377,-3.14335851071951,1.19020370794237
1580417195.29081,1.0681315327688,-2.28885328450451,1.31227588311594
1580417195.29481,2.34988937209118,-1.43434805828952,1.19020370794237
1580417195.2988,3.26543068589308,-0.946059357595232,1.0681315327688
1580417195.30279,3.93682764934761,-0.640878919661191,0.762951094834762
1580417195.30679,4.42511635004189,-0.579842832074519,0.457770656900948
1580417195.31078,4.66926070038903,-0.70191500724809,0.274662394140478
1580417195.31478,4.8523689631495,-0.946059357595232,-0.091554131380235
1580417195.31877,4.7913328755626,-1.19020370794237,-0.457770656900948
1580417195.32276,4.48615243762879,-1.37331197070262,-0.70191500724809
1580417195.32676,4.18097199969475,-1.43434805828952,-0.762951094834762
1580417195.33075,3.81475547417404,-1.49538414587619,-0.823987182421661
1580417195.33475,3.63164721141379,-1.43434805828952,-0.762951094834762
1580417195.33874,3.32646677347975,-1.19020370794237,-0.51880674448762
1580417195.34273,3.14335851071951,-0.762951094834762,-0.213626306553806
1580417195.34673,3.20439459830618,-0.640878919661191,0.152590218966907
1580417195.35074,3.08232242313261,-0.579842832074519,0.640878919661191
1580417195.35473,3.14335851071951,-0.457770656900948,1.25123979552905
1580417195.35873,3.44853894865332,-0.457770656900948,1.55642023346309
1580417195.36272,3.26543068589308,-0.457770656900948,1.98367284657047
1580417195.36671,3.02128633554594,-0.396734569314049,2.28885328450451
1580417195.37071,2.83817807278547,-0.335698481727377,2.47196154726475
1580417195.3747,2.65506981002522,-0.274662394140478,2.53299763485165
1580417195.3787,2.65506981002522,-0.396734569314049,2.41092545967808
1580417195.38269,2.47196154726475,-0.396734569314049,2.22781719691761
1580417195.38668,2.16678110933094,-0.579842832074519,1.98367284657047
1580417195.39068,1.98367284657047,-0.946059357595232,1.55642023346309
1580417195.39467,1.61745632104976,-1.37331197070262,1.12916762035547
1580417195.39867,1.25123979552905,-1.98367284657047,0.579842832074519
1580417195.40266,0.762951094834762,-2.53299763485165,0.091554131380235
1580417195.40665,0.335698481727377,-3.08232242313261,-0.335698481727377
1580417195.41065,-0.152590218966907,-3.63164721141379,-1.0070954451819
1580417195.41464,-0.579842832074519,-4.18097199969475,-1.43434805828952
1580417195.41864,-0.823987182421661,-4.73029678797593,-1.98367284657047
1580417195.42263,-1.0070954451819,-5.21858548867021,-2.41092545967808
1580417195.42662,-1.12916762035547,-5.7068741893645,-2.7771419851988
1580417195.4306,-1.31227588311594,-5.88998245212474,-3.26543068589308
1580417195.4346,-1.37331197070262,-6.25619897764545,-3.57061112382689
1580417195.43859,-1.31227588311594,-6.62241550316617,-3.93682764934761
1580417195.44258,-1.19020370794237,-6.86655985351331,-4.11993591210808
1580417195.44658,-0.946059357595232,-6.92759594110021,-4.30304417486832
1580417195.45057,-0.51880674448762,-7.11070420386045,-4.60822461280236
1580417195.45457,-0.091554131380235,-7.11070420386045,-4.8523689631495
1580417195.45856,0.091554131380235,-7.17174029144735,-5.03547722590974
1580417195.46255,0.640878919661191,-7.47692072938116,-5.27962157625689
1580417195.46655,0.946059357595232,-8.02624551766235,-5.58480201419093
1580417195.47054,1.67849240863666,-8.51453421835663,-5.7068741893645
1580417195.47454,1.9226367589838,-9.18593118181116,-6.01205462729831
1580417195.47853,1.98367284657047,-9.79629205767901,-6.31723506523235
1580417195.48252,2.22781719691761,-10.4066529335469,-6.56137941557949
1580417195.48652,2.53299763485165,-11.0780498970016,-6.80552376592664
1580417195.49051,2.83817807278547,-11.810482948043,-7.04966811627378
1580417195.49451,3.32646677347975,-12.5429159990845,-7.23277637903402
1580417195.4985,3.87579156176093,-13.2753490501259,-7.41588464179449
1580417195.50249,4.60822461280236,-13.7636377508202,-7.41588464179449
1580417195.50649,5.09651331349664,-14.2519264515145,-7.41588464179449
1580417195.5105,5.58480201419093,-14.5571068894483,-7.53795681696806
1580417195.51449,5.76791027695117,-14.7402151522087,-7.72106507972831
1580417195.51849,5.82894636453807,-15.228503852903,-7.90417334248878
1580417195.52248,5.95101853971164,-15.6557564660104,-7.96520943007545
1580417195.52647,6.13412680247188,-16.1440451667047,-8.27038986800949
1580417195.53047,6.43930724040592,-16.5712977798123,-8.27038986800949
1580417195.53446,6.62241550316617,-17.0595864805066,-8.51453421835663
1580417195.53846,6.80552376592664,-17.486839093614,-8.5755703059433
1580417195.54245,7.11070420386045,-17.7309834439611,-8.81971465629044
1580417195.54644,7.29381246662092,-17.8530556191347,-8.94178683146401
1580417195.55044,7.41588464179449,-17.9140917067216,-9.18593118181116
1580417195.55443,7.29381246662092,-18.0971999694818,-9.4300755321583
1580417195.55843,7.47692072938116,-17.9140917067216,-9.61318379491877
1580417195.56242,7.59899290455473,-17.7309834439611,-9.79629205767901
1580417195.56641,7.7821011673152,-17.5478751812009,-9.73525597009234
1580417195.57041,8.08728160524902,-17.2426947432668,-9.73525597009234
1580417195.5744,7.96520943007545,-16.8764782177461,-9.4911116197452
1580417195.57839,7.96520943007545,-16.3881895170518,-9.36903944457163
1580417195.58239,7.84313725490188,-15.7167925535973,-8.94178683146401
1580417195.58638,7.84313725490188,-14.9843595025559,-8.5755703059433
1580417195.59036,7.90417334248878,-14.2519264515145,-8.33142595559616
1580417195.59436,7.96520943007545,-13.3974212252995,-7.72106507972831
1580417195.59835,8.27038986800949,-12.6039520866711,-7.41588464179449
1580417195.60234,8.27038986800949,-11.6884107728695,-6.98863202868688
1580417195.60634,8.14831769283592,-10.8339055466545,-6.62241550316617
1580417195.61033,7.66002899214163,-9.91836423285258,-6.25619897764545
1580417195.61433,6.68345159075307,-9.24696726939806,-6.07309071488521
1580417195.61832,5.34065766384379,-8.94178683146401,-5.7068741893645
1580417195.62231,3.69268329900046,-8.6366063935302,-5.34065766384379
1580417195.62631,2.28885328450451,-8.45349813076973,-5.09651331349664
1580417195.6303,1.19020370794237,-8.27038986800949,-4.60822461280236
1580417195.6343,0.335698481727377,-8.08728160524902,-4.05889982452118
1580417195.63829,-0.396734569314049,-7.66002899214163,-3.57061112382689
1580417195.64228,-1.0070954451819,-6.98863202868688,-2.96025024795904
1580417195.64628,-1.43434805828952,-6.01205462729831,-2.41092545967808
1580417195.65027,-1.55642023346309,-4.91340505073617,-1.73952849622333
1580417195.65427,-1.8616006713969,-3.44853894865332,-1.12916762035547
1580417195.65826,-1.8616006713969,-1.80056458381023,-0.640878919661191
1580417195.66225,-1.67849240863666,-0.213626306553806,-0.0305180437933359
1580417195.66625,-1.55642023346309,1.49538414587619,0.51880674448762
1580417195.67026,-1.43434805828952,3.32646677347975,1.0681315327688
1580417195.67425,-0.946059357595232,5.15754940108332,1.37331197070262
1580417195.67824,-0.457770656900948,7.04966811627378,1.9226367589838
1580417195.68224,0.152590218966907,8.81971465629044,2.34988937209118
1580417195.68623,0.640878919661191,10.650797283894,2.65506981002522
1580417195.69023,0.946059357595232,12.359807736324,3.08232242313261
1580417195.69422,1.0070954451819,14.068818188754,3.26543068589308
1580417195.69822,1.0070954451819,15.3505760280766,3.57061112382689
1580417195.70221,0.823987182421661,16.5102616922254,3.81475547417404
1580417195.7062,0.823987182421661,17.6699473563745,4.36408026245522
1580417195.7102,0.51880674448762,18.7075608453497,4.8523689631495
1580417195.71419,0.152590218966907,19.6231021591516,5.34065766384379
1580417195.71818,-0.274662394140478,20.5386434729533,6.01205462729831
1580417195.72218,-1.0070954451819,21.5152208743418,6.80552376592664
1580417195.72617,-1.67849240863666,22.2476539253832,7.72106507972831
1580417195.73017,-2.41092545967808,22.9800869764247,8.45349813076973
1580417195.73416,-3.26543068589308,23.5904478522925,9.4300755321583
1580417195.73815,-4.11993591210808,24.0787365529868,10.2845807583733
1580417195.74215,-4.7913328755626,24.8111696040282,11.1390859845883
1580417195.74614,-5.52376592660403,25.5436026550697,11.9935912108033
1580417195.75015,-6.25619897764545,26.0929274433508,12.7260242618447
1580417195.75415,-7.04966811627378,26.7032883192187,13.3974212252995
1580417195.75814,-7.7821011673152,27.191577019913,13.8857099259938
1580417195.76213,-8.33142595559616,27.3136491950866,14.3129625391011
1580417195.76613,-8.5755703059433,27.4357213702601,14.7402151522087
1580417195.77012,-8.33142595559616,27.3746852826732,15.0453955901426
1580417195.77412,-7.90417334248878,27.191577019913,15.228503852903
1580417195.77811,-7.53795681696806,27.191577019913,15.1674677653161
1580417195.7821,-6.92759594110021,27.0695048447394,15.1064316777295
1580417195.7861,-6.5003433279926,26.8253604943923,14.8622873273823
1580417195.79009,-5.95101853971164,26.3981078812847,14.5571068894483
1580417195.79409,-5.27962157625689,25.7877470054168,14.0077821011673
1580417195.79808,-4.60822461280236,25.0553139543754,13.4584573128861
1580417195.80207,-4.11993591210808,24.1397726405737,12.9701686121919
1580417195.80607,-3.81475547417404,23.1631952391851,12.0546272983902
1580417195.81006,-3.81475547417404,21.9424734874494,11.2611581597619
1580417195.81406,-4.11993591210808,20.4776073853666,10.4066529335469
1580417195.81805,-4.73029678797593,18.5854886701761,9.61318379491877
1580417195.82204,-5.21858548867021,16.4492256046387,8.5755703059433
1580417195.82604,-5.34065766384379,14.068818188754,7.41588464179449
1580417195.83002,-5.34065766384379,11.5663385976959,6.31723506523235
1580417195.83401,-4.97444113832307,9.18593118181116,4.97444113832307
1580417195.838,-4.66926070038903,6.74448767833974,3.75371938658736
1580417195.842,-4.42511635004189,4.42511635004189,2.28885328450451
1580417195.84599,-4.24200808728165,2.28885328450451,1.19020370794237
1580417195.84999,-4.18097199969475,-0.091554131380235,0.0305180437933359
1580417195.85398,-3.87579156176093,-2.22781719691761,-0.823987182421661
1580417195.85798,-3.02128633554594,-4.24200808728165,-1.80056458381023
1580417195.86197,-1.8616006713969,-6.01205462729831,-2.41092545967808
1580417195.86596,-0.091554131380235,-7.53795681696806,-3.02128633554594
1580417195.86996,1.9226367589838,-8.69764248111687,-3.26543068589308
1580417195.87395,3.93682764934761,-9.61318379491877,-3.44853894865332
1580417195.87794,5.76791027695117,-10.7118333714809,-3.75371938658736
1580417195.88194,7.41588464179449,-11.9325551232166,-4.05889982452118
1580417195.88593,8.69764248111687,-13.0922407873654,-4.42511635004189
1580417195.88993,9.85732814526591,-14.2519264515145,-4.8523689631495
1580417195.89392,10.8339055466545,-15.4726482032502,-5.52376592660403
1580417195.89791,11.6273746852826,-16.2661173418783,-5.95101853971164
1580417195.90191,12.2987716487373,-16.9985503929197,-6.37827115281902
1580417195.9059,12.9701686121919,-17.4258030060273,-6.92759594110021
1580417195.90991,13.519493400473,-17.9751277943083,-7.29381246662092
1580417195.91391,14.373998626688,-18.341344319829,-7.53795681696806
1580417195.9179,15.1674677653161,-18.4023804074159,-7.72106507972831
1580417195.92189,15.6557564660104,-18.2803082322423,-7.72106507972831
1580417195.92589,15.8388647287709,-18.341344319829,-7.59899290455473
1580417195.92988,15.4726482032502,-18.7075608453497,-7.35484855420759
1580417195.93388,15.0453955901426,-19.3789578088044,-6.80552376592664
1580417195.93787,14.4960708018616,-20.050354772259,-6.37827115281902
1580417195.94186,13.6415655756466,-20.7827878233004,-5.82894636453807
1580417195.94586,12.359807736324,-21.5152208743418,-5.34065766384379
1580417195.94985,10.3456168459602,-22.0035095750361,-4.91340505073617
1580417195.95385,7.96520943007545,-22.3086900129701,-4.73029678797593
1580417195.95784,5.46272983901736,-22.3086900129701,-4.66926070038903
1580417195.96183,3.32646677347975,-22.1255817502097,-4.54718852521546
1580417195.96583,1.67849240863666,-21.8814373998625,-4.54718852521546
1580417195.96982,0.70191500724809,-21.210040436408,-4.66926070038903
1580417195.97382,0.213626306553806,-20.355535210193,-4.73029678797593
1580417195.97781,-0.274662394140478,-19.4399938963911,-5.03547722590974
1580417195.9818,-0.457770656900948,-18.4634164950025,-4.97444113832307
1580417195.9858,-0.579842832074519,-17.486839093614,-5.03547722590974
1580417195.98981,-0.885023270008332,-16.7544060425726,-5.15754940108332
1580417195.9938,-1.12916762035547,-15.8999008163576,-5.34065766384379
1580417195.99779,-1.25123979552905,-15.2895399404897,-5.52376592660403
1580417196.00179,-1.19020370794237,-14.7402151522087,-5.58480201419093
1580417196.00578,-1.25123979552905,-14.1298542763409,-5.6458381017776
1580417196.00978,-0.946059357595232,-13.4584573128861,-5.6458381017776
1580417196.01377,-0.70191500724809,-12.8480964370183,-5.6458381017776
1580417196.01777,-0.396734569314049,-11.9325551232166,-5.58480201419093
1580417196.02176,0.0305180437933359,-11.0780498970016,-5.40169375143046
1580417196.02575,0.335698481727377,-10.2235446707866,-4.8523689631495
1580417196.02975,0.51880674448762,-9.24696726939806,-4.42511635004189
1580417196.03374,0.579842832074519,-8.14831769283592,-3.81475547417404
1580417196.03773,0.396734569314049,-6.98863202868688,-3.20439459830618
1580417196.04173,0.152590218966907,-5.7068741893645,-2.34988937209118
1580417196.04572,-0.091554131380235,-4.30304417486832,-1.67849240863666
1580417196.04972,-0.51880674448762,-2.96025024795904,-0.823987182421661
1580417196.05371,-0.579842832074519,-1.37331197070262,0.213626306553806
1580417196.0577,-0.885023270008332,0.152590218966907,1.19020370794237
1580417196.0617,-1.0681315327688,1.61745632104976,2.10574502174404
1580417196.06569,-1.37331197070262,3.20439459830618,2.96025024795904
1580417196.06967,-1.73952849622333,4.60822461280236,3.99786373693451
1580417196.07366,-2.41092545967808,5.82894636453807,4.73029678797593
1580417196.07766,-3.50957503624022,7.11070420386045,5.34065766384379
1580417196.08165,-4.8523689631495,8.33142595559616,5.6458381017776
1580417196.08565,-6.19516289005878,9.4911116197452,5.95101853971164
1580417196.08964,-7.35484855420759,10.5287251087204,6.19516289005878
1580417196.09363,-8.45349813076973,11.5663385976959,6.37827115281902
1580417196.09763,-9.12489509422448,12.4208438239109,6.56137941557949
1580417196.10162,-9.61318379491877,13.214312962539,6.62241550316617
1580417196.10562,-10.1014724956131,13.9467460135804,6.80552376592664
1580417196.10961,-10.7118333714809,14.6181429770352,6.98863202868688
1580417196.11361,-11.0780498970016,15.4116121156633,7.04966811627378
1580417196.1176,-11.2611581597619,15.9609369039445,7.17174029144735
1580417196.12159,-11.2611581597619,16.8154421301595,7.29381246662092
1580417196.12559,-10.955977721828,17.8530556191347,7.35484855420759
1580417196.12958,-10.5287251087204,18.8296330205233,7.41588464179449
1580417196.13357,-9.61318379491877,19.8672465094987,7.53795681696806
1580417196.13757,-8.88075074387734,20.4165712977797,7.29381246662092
1580417196.14156,-7.90417334248878,20.4776073853666,6.92759594110021
1580417196.14556,-6.80552376592664,19.8672465094987,6.01205462729831
1580417196.14957,-6.62241550316617,19.0737773708704,4.91340505073617
1580417196.15356,-7.72106507972831,18.646524757763,3.38750286106665
1580417196.15755,-10.3456168459602,17.9140917067216,1.37331197070262
1580417196.16155,-13.0312046997788,16.7544060425726,-0.823987182421661
1580417196.16554,-13.6415655756466,14.6791790646218,-2.53299763485165
1580417196.16954,-11.4442664225223,12.2987716487373,-3.81475547417404
1580417196.17353,-7.59899290455473,9.85732814526591,-4.73029678797593
1580417196.17752,-3.99786373693451,7.96520943007545,-5.52376592660403
1580417196.18152,-2.10574502174404,7.29381246662092,-6.62241550316617
1580417196.18551,-1.98367284657047,7.47692072938116,-7.90417334248878
1580417196.18951,-2.83817807278547,7.23277637903402,-8.94178683146401
1580417196.1935,-2.96025024795904,6.07309071488521,-9.67421988250544
1580417196.19749,-1.49538414587619,4.36408026245522,-10.2235446707866
1580417196.20149,2.04470893415737,2.89921416037237,-9.97940032043948
1580417196.20548,7.23277637903402,2.7161058976119,-9.30800335698473
1580417196.20948,12.8480964370183,3.69268329900046,-8.27038986800949
1580417196.21347,17.8530556191347,5.46272983901736,-7.17174029144735
1580417196.21746,21.4541847867551,6.74448767833974,-6.07309071488521
1580417196.22146,22.9800869764247,6.92759594110021,-5.09651331349664
1580417196.22545,22.4307621881437,5.76791027695117,-4.24200808728165
1580417196.22943,20.5386434729533,3.44853894865332,-3.75371938658736
1580417196.23342,17.9140917067216,0.274662394140478,-3.50957503624022
1580417196.23742,15.3505760280766,-2.7771419851988,-3.63164721141379
1580417196.24141,13.0312046997788,-5.58480201419093,-4.05889982452118
1580417196.24541,10.8949416342411,-7.53795681696806,-4.36408026245522
1580417196.2494,9.30800335698473,-8.33142595559616,-4.8523689631495
1580417196.25339,8.51453421835663,-8.27038986800949,-4.97444113832307
1580417196.25739,8.27038986800949,-7.53795681696806,-5.09651331349664
1580417196.26138,8.69764248111687,-6.5003433279926,-5.03547722590974
1580417196.26538,9.36903944457163,-5.7068741893645,-4.8523689631495
1580417196.26937,9.97940032043948,-5.40169375143046,-4.42511635004189
1580417196.27337,10.2845807583733,-5.7068741893645,-4.18097199969475
1580417196.27736,10.0404364080262,-6.56137941557949,-3.93682764934761
1580417196.28135,9.30800335698473,-7.72106507972831,-3.75371938658736
1580417196.28535,8.39246204318306,-8.81971465629044,-3.69268329900046
1580417196.28934,7.29381246662092,-9.97940032043948,-3.75371938658736
1580417196.29333,6.25619897764545,-10.7728694590676,-3.99786373693451
1580417196.29733,5.34065766384379,-11.1390859845883,-4.18097199969475
1580417196.30132,4.54718852521546,-11.3832303349354,-4.42511635004189
1580417196.30532,3.87579156176093,-11.3221942473488,-4.54718852521546
1580417196.30933,3.26543068589308,-11.1390859845883,-4.60822461280236
1580417196.31332,2.7771419851988,-10.4066529335469,-4.36408026245522
1580417196.31731,2.41092545967808,-9.61318379491877,-3.99786373693451
1580417196.32131,1.9226367589838,-8.5755703059433,-3.69268329900046
1580417196.3253,1.25123979552905,-7.59899290455473,-3.08232242313261
1580417196.3293,0.213626306553806,-6.56137941557949,-2.41092545967808
1580417196.33329,-0.885023270008332,-5.7068741893645,-1.73952849622333
1580417196.33728,-1.98367284657047,-4.91340505073617,-1.19020370794237
1580417196.34128,-2.96025024795904,-4.42511635004189,-0.70191500724809
1580417196.34527,-3.93682764934761,-3.99786373693451,-0.274662394140478
1580417196.34927,-4.42511635004189,-3.50957503624022,0.0305180437933359
1580417196.35326,-4.54718852521546,-3.14335851071951,0.396734569314049
1580417196.35725,-4.48615243762879,-2.7161058976119,0.457770656900948
1580417196.36125,-4.11993591210808,-2.28885328450451,0.640878919661191
1580417196.36524,-3.50957503624022,-1.73952849622333,0.823987182421661
1580417196.36924,-2.83817807278547,-1.12916762035547,1.0070954451819
1580417196.37323,-2.10574502174404,-0.396734569314049,1.0681315327688
1580417196.37722,-1.37331197070262,0.396734569314049,1.25123979552905
1580417196.38122,-0.823987182421661,1.12916762035547,1.49538414587619
1580417196.38521,-0.396734569314049,1.80056458381023,1.67849240863666
1580417196.38919,0.0305180437933359,2.53299763485165,1.61745632104976
1580417196.39318,0.152590218966907,3.08232242313261,1.67849240863666
1580417196.39718,0.213626306553806,3.38750286106665,1.67849240863666
1580417196.40117,0.213626306553806,3.57061112382689,1.80056458381023
1580417196.40517,0.274662394140478,3.93682764934761,1.61745632104976
1580417196.40916,0.152590218966907,3.93682764934761,1.43434805828952
1580417196.41315,0.152590218966907,3.87579156176093,1.25123979552905
1580417196.41715,0.335698481727377,3.75371938658736,0.946059357595232
1580417196.42114,0.579842832074519,3.38750286106665,0.762951094834762
1580417196.42514,0.70191500724809,3.02128633554594,0.51880674448762
1580417196.42913,0.885023270008332,2.53299763485165,0.51880674448762
1580417196.43312,1.0681315327688,2.04470893415737,0.335698481727377
1580417196.43712,1.25123979552905,1.67849240863666,0.274662394140478
1580417196.44111,1.49538414587619,1.37331197070262,0.0305180437933359
1580417196.44511,1.8616006713969,0.946059357595232,-0.152590218966907
1580417196.4491,2.28885328450451,0.579842832074519,-0.274662394140478
1580417196.45309,2.7771419851988,0.213626306553806,-0.396734569314049
1580417196.45709,3.44853894865332,-0.0305180437933359,-0.640878919661191
1580417196.46108,4.05889982452118,-0.213626306553806,-0.70191500724809
1580417196.46508,4.66926070038903,-0.274662394140478,-0.823987182421661
1580417196.46908,5.21858548867021,-0.274662394140478,-0.885023270008332
1580417196.47308,5.46272983901736,-0.396734569314049,-0.762951094834762
1580417196.47707,6.01205462729831,-0.51880674448762,-0.640878919661191
1580417196.48107,6.01205462729831,-0.70191500724809,-0.70191500724809
1580417196.48506,5.95101853971164,-0.885023270008332,-0.70191500724809
1580417196.48905,5.58480201419093,-1.25123979552905,-0.762951094834762
1580417196.49305,4.97444113832307,-1.61745632104976,-0.823987182421661
1580417196.49704,4.18097199969475,-1.9226367589838,-0.885023270008332
1580417196.50104,3.08232242313261,-2.28885328450451,-1.0681315327688
1580417196.50503,1.9226367589838,-2.41092545967808,-1.37331197070262
1580417196.50902,0.70191500724809,-2.7161058976119,-1.61745632104976
1580417196.51302,-0.396734569314049,-2.89921416037237,-1.98367284657047
1580417196.51701,-1.61745632104976,-2.96025024795904,-2.53299763485165
1580417196.52101,-2.53299763485165,-3.02128633554594,-2.89921416037237
1580417196.525,-3.32646677347975,-3.14335851071951,-3.20439459830618
1580417196.529,-3.75371938658736,-3.20439459830618,-3.44853894865332
1580417196.53299,-4.05889982452118,-3.08232242313261,-3.69268329900046
1580417196.53698,-4.05889982452118,-2.96025024795904,-3.81475547417404
1580417196.54098,-3.93682764934761,-2.89921416037237,-3.87579156176093
1580417196.54497,-3.81475547417404,-2.7771419851988,-3.75371938658736
1580417196.54895,-3.44853894865332,-2.7771419851988,-3.75371938658736
1580417196.55294,-3.20439459830618,-2.83817807278547,-3.63164721141379
1580417196.55694,-2.96025024795904,-2.89921416037237,-3.63164721141379
1580417196.56093,-2.83817807278547,-3.14335851071951,-3.44853894865332
1580417196.56493,-2.59403372243833,-3.32646677347975,-3.50957503624022
1580417196.56892,-2.28885328450451,-3.44853894865332,-3.50957503624022
1580417196.57291,-1.8616006713969,-3.63164721141379,-3.63164721141379
1580417196.57691,-1.25123979552905,-3.57061112382689,-3.69268329900046
1580417196.5809,-0.51880674448762,-3.44853894865332,-3.69268329900046
1580417196.5849,0.335698481727377,-3.32646677347975,-3.93682764934761
1580417196.58889,0.823987182421661,-3.26543068589308,-3.93682764934761
1580417196.59288,1.31227588311594,-3.08232242313261,-4.24200808728165
1580417196.59688,1.73952849622333,-2.96025024795904,-4.48615243762879
1580417196.60087,2.04470893415737,-2.7771419851988,-4.8523689631495
1580417196.60487,2.34988937209118,-2.7161058976119,-5.09651331349664
1580417196.60886,2.65506981002522,-2.59403372243833,-5.46272983901736
1580417196.61285,3.08232242313261,-2.7161058976119,-5.7068741893645
1580417196.61685,3.69268329900046,-2.96025024795904,-5.82894636453807
1580417196.62084,4.42511635004189,-3.32646677347975,-5.76791027695117
1580417196.62484,4.73029678797593,-3.57061112382689,-5.82894636453807
1580417196.62884,4.91340505073617,-3.87579156176093,-6.13412680247188
1580417196.63284,5.15754940108332,-3.87579156176093,-6.37827115281902
1580417196.63683,5.40169375143046,-4.30304417486832,-6.62241550316617
1580417196.64083,5.95101853971164,-4.7913328755626,-6.74448767833974
1580417196.64482,6.19516289005878,-5.15754940108332,-6.80552376592664
1580417196.64881,6.62241550316617,-5.7068741893645,-6.68345159075307
1580417196.65281,6.62241550316617,-6.01205462729831,-6.62241550316617
1580417196.6568,6.62241550316617,-6.37827115281902,-6.5003433279926
1580417196.6608,6.56137941557949,-6.68345159075307,-6.31723506523235
1580417196.66479,6.37827115281902,-6.74448767833974,-6.13412680247188
1580417196.66878,6.01205462729831,-6.92759594110021,-6.01205462729831
1580417196.67278,5.6458381017776,-7.17174029144735,-5.95101853971164
1580417196.67677,5.15754940108332,-7.66002899214163,-5.76791027695117
1580417196.68077,4.91340505073617,-8.14831769283592,-5.88998245212474
1580417196.68476,4.36408026245522,-8.45349813076973,-5.7068741893645
1580417196.68876,4.18097199969475,-8.81971465629044,-5.88998245212474
1580417196.69275,3.93682764934761,-9.24696726939806,-5.95101853971164
1580417196.69674,3.81475547417404,-9.61318379491877,-6.19516289005878
1580417196.70074,3.69268329900046,-9.85732814526591,-6.31723506523235
1580417196.70473,3.63164721141379,-9.97940032043948,-6.31723506523235
1580417196.70871,3.44853894865332,-10.2845807583733,-6.62241550316617
1580417196.7127,3.14335851071951,-10.7118333714809,-6.80552376592664
1580417196.7167,2.96025024795904,-11.0170138094147,-7.11070420386045
1580417196.72069,2.83817807278547,-11.3832303349354,-7.35484855420759
1580417196.72468,2.7161058976119,-11.6884107728695,-7.53795681696806
1580417196.72868,2.34988937209118,-11.8715190356297,-7.7821011673152
1580417196.73267,2.16678110933094,-12.2377355611504,-8.08728160524902
1580417196.73667,2.41092545967808,-12.4208438239109,-8.27038986800949
1580417196.74066,2.53299763485165,-12.7870603494316,-8.45349813076973
1580417196.74465,2.7771419851988,-12.8480964370183,-8.6366063935302
1580417196.74865,3.08232242313261,-12.7870603494316,-8.5755703059433
1580417196.75264,3.32646677347975,-12.7870603494316,-8.51453421835663
1580417196.75664,3.69268329900046,-12.664988174258,-8.33142595559616
1580417196.76063,3.99786373693451,-12.4818799114976,-7.96520943007545
1580417196.76462,4.48615243762879,-12.1766994735638,-7.59899290455473
1580417196.76862,4.8523689631495,-11.7494468604561,-7.17174029144735
1580417196.77261,5.21858548867021,-11.2001220721752,-6.5003433279926
1580417196.77661,5.52376592660403,-10.5897611963073,-5.76791027695117
1580417196.7806,5.82894636453807,-9.85732814526591,-4.97444113832307
1580417196.7846,6.07309071488521,-9.00282291905091,-4.05889982452118
1580417196.7886,6.31723506523235,-8.20935378042259,-3.02128633554594
1580417196.7926,6.68345159075307,-7.23277637903402,-1.98367284657047
1580417196.79659,6.80552376592664,-6.19516289005878,-1.0681315327688
1580417196.80059,6.68345159075307,-4.97444113832307,-0.213626306553806
1580417196.80458,6.31723506523235,-3.93682764934761,0.396734569314049
1580417196.80857,5.88998245212474,-2.83817807278547,0.946059357595232
1580417196.81257,5.09651331349664,-1.80056458381023,1.19020370794237
1580417196.81656,4.05889982452118,-1.0681315327688,1.12916762035547
1580417196.82056,2.96025024795904,-0.335698481727377,0.885023270008332
1580417196.82455,2.04470893415737,0.213626306553806,0.579842832074519
1580417196.82854,0.885023270008332,0.51880674448762,0.274662394140478
1580417196.83254,0.091554131380235,0.70191500724809,-0.213626306553806
1580417196.83653,-0.579842832074519,0.70191500724809,-0.457770656900948
1580417196.84053,-1.12916762035547,0.579842832074519,-0.640878919661191
1580417196.84452,-1.37331197070262,0.579842832074519,-0.823987182421661
1580417196.84851,-1.49538414587619,0.51880674448762,-0.762951094834762
1580417196.85251,-1.37331197070262,0.51880674448762,-0.70191500724809
1580417196.8565,-1.12916762035547,0.823987182421661,-0.579842832074519
1580417196.8605,-0.70191500724809,1.25123979552905,-0.396734569314049
1580417196.86449,-0.0305180437933359,1.80056458381023,-0.091554131380235
1580417196.86847,0.762951094834762,2.65506981002522,0.213626306553806
1580417196.87246,1.49538414587619,3.69268329900046,0.579842832074519
1580417196.87646,2.04470893415737,4.8523689631495,1.12916762035547
1580417196.88045,2.65506981002522,5.95101853971164,1.67849240863666
1580417196.88444,3.14335851071951,6.98863202868688,1.98367284657047
1580417196.88844,3.38750286106665,7.90417334248878,2.47196154726475
1580417196.89243,3.50957503624022,8.5755703059433,2.89921416037237
1580417196.89643,3.81475547417404,9.12489509422448,3.26543068589308
1580417196.90042,3.87579156176093,9.4300755321583,3.75371938658736
1580417196.90441,3.81475547417404,9.61318379491877,4.36408026245522
1580417196.90841,3.69268329900046,9.91836423285258,4.73029678797593
1580417196.9124,3.38750286106665,10.0404364080262,5.03547722590974
1580417196.9164,3.20439459830618,10.1625085831997,5.40169375143046
1580417196.92039,3.20439459830618,10.4066529335469,5.6458381017776
1580417196.92438,3.26543068589308,10.650797283894,5.7068741893645
1580417196.92838,3.26543068589308,10.8339055466545,5.88998245212474
1580417196.93237,3.02128633554594,11.0170138094147,5.82894636453807
1580417196.93637,2.7771419851988,10.8949416342411,5.82894636453807
1580417196.94036,2.28885328450451,10.5897611963073,5.82894636453807
1580417196.94436,1.80056458381023,10.1625085831997,5.95101853971164
1580417196.94836,1.12916762035547,9.67421988250544,6.07309071488521
1580417196.95236,0.51880674448762,9.18593118181116,6.25619897764545
1580417196.95635,-0.0305180437933359,8.5755703059433,6.31723506523235
1580417196.96035,-0.335698481727377,7.84313725490188,6.68345159075307
1580417196.96434,-0.51880674448762,7.17174029144735,6.92759594110021
1580417196.96833,-0.640878919661191,6.37827115281902,7.11070420386045
1580417196.97233,-0.70191500724809,5.52376592660403,7.41588464179449
1580417196.97632,-0.70191500724809,4.97444113832307,7.84313725490188
1580417196.98032,-0.762951094834762,4.54718852521546,8.14831769283592
1580417196.98431,-0.762951094834762,4.11993591210808,8.69764248111687
1580417196.9883,-0.70191500724809,3.81475547417404,9.12489509422448
1580417196.9923,-0.640878919661191,3.57061112382689,9.30800335698473
1580417196.99629,-0.396734569314049,3.38750286106665,9.61318379491877
1580417197.00029,0.274662394140478,3.14335851071951,9.97940032043948
1580417197.00428,0.885023270008332,3.08232242313261,10.4676890211338
1580417197.00827,1.43434805828952,3.14335851071951,10.5897611963073
1580417197.01227,1.8616006713969,3.50957503624022,10.8339055466545
1580417197.01626,2.04470893415737,3.50957503624022,10.8339055466545
1580417197.02026,2.16678110933094,3.63164721141379,10.7118333714809
1580417197.02425,2.22781719691761,3.44853894865332,10.5897611963073
1580417197.02823,1.9226367589838,3.26543068589308,10.4066529335469
1580417197.03222,1.61745632104976,2.7771419851988,9.97940032043948
1580417197.03622,1.12916762035547,2.22781719691761,9.67421988250544
1580417197.04021,0.51880674448762,1.49538414587619,9.12489509422448
1580417197.0442,-0.091554131380235,0.885023270008332,8.5755703059433
1580417197.0482,-0.579842832074519,0.213626306553806,8.27038986800949
1580417197.05219,-1.31227588311594,-0.457770656900948,7.7821011673152
1580417197.05619,-1.9226367589838,-1.12916762035547,7.35484855420759
1580417197.06018,-2.47196154726475,-1.55642023346309,6.86655985351331
1580417197.06417,-3.08232242313261,-2.04470893415737,6.80552376592664
1580417197.06817,-3.38750286106665,-2.65506981002522,6.56137941557949
1580417197.07216,-3.87579156176093,-3.32646677347975,6.68345159075307
1580417197.07616,-4.18097199969475,-3.75371938658736,6.80552376592664
1580417197.08015,-4.11993591210808,-3.87579156176093,7.04966811627378
1580417197.08414,-3.81475547417404,-3.87579156176093,7.04966811627378
1580417197.08814,-3.08232242313261,-3.87579156176093,7.23277637903402
1580417197.09213,-2.16678110933094,-3.57061112382689,7.35484855420759
1580417197.09613,-1.12916762035547,-3.32646677347975,7.59899290455473
1580417197.10012,-0.091554131380235,-3.08232242313261,7.66002899214163
1580417197.10411,1.0070954451819,-2.83817807278547,7.7821011673152
1580417197.10812,1.8616006713969,-2.59403372243833,7.96520943007545
1580417197.11212,2.7161058976119,-2.47196154726475,7.96520943007545
1580417197.11611,3.63164721141379,-2.65506981002522,8.08728160524902
1580417197.12011,4.36408026245522,-2.7161058976119,7.96520943007545
1580417197.1241,5.09651331349664,-2.89921416037237,7.90417334248878
1580417197.12809,5.7068741893645,-2.96025024795904,7.90417334248878
1580417197.13209,6.01205462729831,-2.89921416037237,7.84313725490188
1580417197.13608,6.25619897764545,-3.02128633554594,7.66002899214163
1580417197.14007,6.5003433279926,-3.08232242313261,7.47692072938116
1580417197.14407,6.74448767833974,-3.26543068589308,7.47692072938116
1580417197.14806,6.68345159075307,-3.50957503624022,7.47692072938116
1580417197.15206,6.25619897764545,-3.87579156176093,7.47692072938116
1580417197.15605,5.82894636453807,-4.24200808728165,7.53795681696806
1580417197.16004,5.15754940108332,-4.60822461280236,7.72106507972831
1580417197.16404,4.42511635004189,-4.8523689631495,7.96520943007545
1580417197.16803,3.81475547417404,-4.97444113832307,8.14831769283592
1580417197.17203,3.08232242313261,-4.8523689631495,8.27038986800949
1580417197.17602,2.59403372243833,-4.54718852521546,8.39246204318306
1580417197.18001,2.16678110933094,-4.24200808728165,8.45349813076973
1580417197.18401,1.80056458381023,-3.99786373693451,8.51453421835663
1580417197.18799,1.19020370794237,-3.81475547417404,8.45349813076973
1580417197.19198,0.640878919661191,-3.75371938658736,8.39246204318306
1580417197.19598,-0.091554131380235,-3.75371938658736,8.14831769283592
1580417197.19997,-0.640878919661191,-3.99786373693451,7.66002899214163
1580417197.20396,-1.19020370794237,-4.54718852521546,7.47692072938116
1580417197.20796,-1.8616006713969,-5.15754940108332,7.11070420386045
1580417197.21195,-2.28885328450451,-5.76791027695117,6.68345159075307
1580417197.21595,-2.7771419851988,-6.56137941557949,6.31723506523235
1580417197.21994,-3.26543068589308,-7.29381246662092,5.95101853971164
1580417197.22393,-3.57061112382689,-8.02624551766235,5.6458381017776
1580417197.22793,-3.75371938658736,-8.6366063935302,5.15754940108332
1580417197.23192,-3.99786373693451,-9.06385900663759,4.91340505073617
1580417197.23592,-3.99786373693451,-9.36903944457163,4.42511635004189
1580417197.23991,-3.81475547417404,-9.67421988250544,4.18097199969475
1580417197.2439,-3.38750286106665,-9.85732814526591,3.81475547417404
1580417197.2479,-2.89921416037237,-9.85732814526591,3.63164721141379
1580417197.25189,-2.34988937209118,-9.97940032043948,3.32646677347975
1580417197.25589,-1.9226367589838,-10.1014724956131,2.89921416037237
1580417197.25988,-1.67849240863666,-10.2235446707866,2.41092545967808
1580417197.26387,-1.43434805828952,-10.5897611963073,1.80056458381023
1580417197.26788,-1.25123979552905,-11.0170138094147,1.55642023346309
1580417197.27188,-0.823987182421661,-11.3832303349354,0.823987182421661
1580417197.27587,-0.457770656900948,-11.810482948043,0.274662394140478
1580417197.27987,0.091554131380235,-12.1156633859769,-0.213626306553806
1580417197.28386,0.579842832074519,-12.664988174258,-0.885023270008332
1580417197.28785,1.12916762035547,-12.9701686121919,-1.31227588311594
1580417197.29185,1.8616006713969,-13.4584573128861,-1.80056458381023
1580417197.29584,2.7161058976119,-13.7026016632333,-2.10574502174404
1580417197.29983,3.63164721141379,-13.9467460135804,-2.22781719691761
1580417197.30383,4.42511635004189,-14.068818188754,-2.53299763485165
1580417197.30782,5.27962157625689,-13.9467460135804,-2.59403372243833
1580417197.31182,5.82894636453807,-13.4584573128861,-2.47196154726475
1580417197.31581,6.43930724040592,-12.9091325246052,-2.28885328450451
1580417197.3198,7.04966811627378,-12.4208438239109,-1.9226367589838
1580417197.3238,7.59899290455473,-11.810482948043,-1.67849240863666
1580417197.32779,8.20935378042259,-11.4442664225223,-1.31227588311594
1580417197.33179,8.6366063935302,-11.1390859845883,-0.885023270008332
1580417197.33578,9.00282291905091,-10.7728694590676,-0.396734569314049
1580417197.33977,8.81971465629044,-10.3456168459602,0.152590218966907
1580417197.34377,8.51453421835663,-9.79629205767901,0.640878919661191
1580417197.34775,7.7821011673152,-9.24696726939806,1.19020370794237
1580417197.35174,7.17174029144735,-8.5755703059433,1.55642023346309
1580417197.35573,6.74448767833974,-7.72106507972831,1.8616006713969
1580417197.35973,6.25619897764545,-6.86655985351331,2.34988937209118
1580417197.36372,5.88998245212474,-5.95101853971164,2.83817807278547
1580417197.36772,5.76791027695117,-4.7913328755626,3.44853894865332
1580417197.37171,5.6458381017776,-3.50957503624022,3.99786373693451
1580417197.37571,5.52376592660403,-2.04470893415737,4.54718852521546
1580417197.3797,5.46272983901736,-0.579842832074519,5.34065766384379
1580417197.38369,5.21858548867021,1.12916762035547,6.13412680247188
1580417197.38769,5.09651331349664,2.89921416037237,6.80552376592664
1580417197.39168,5.03547722590974,4.60822461280236,7.47692072938116
1580417197.39567,4.8523689631495,6.56137941557949,8.08728160524902
1580417197.39967,4.60822461280236,8.33142595559616,8.5755703059433
1580417197.40366,4.60822461280236,10.1625085831997,9.06385900663759
1580417197.40766,4.60822461280236,11.9325551232166,9.30800335698473
1580417197.41165,4.54718852521546,13.519493400473,9.61318379491877
1580417197.41564,4.36408026245522,14.923323414969,9.85732814526591
1580417197.41964,4.11993591210808,16.2050812542916,9.85732814526591
1580417197.42363,3.57061112382689,17.1206225680933,9.97940032043948
1580417197.42761,2.41092545967808,17.8530556191347,10.1014724956131
1580417197.43161,1.0681315327688,18.0361638818952,10.1625085831997
1580417197.4356,-0.579842832074519,17.792019531548,10.3456168459602
1580417197.43959,-2.59403372243833,17.5478751812009,10.4676890211338
1580417197.44359,-4.54718852521546,16.937514305333,10.5287251087204
1580417197.44758,-6.31723506523235,16.3271534294652,10.7728694590676
1580417197.45158,-8.08728160524902,16.083009079118,11.0170138094147
1580417197.45557,-9.67421988250544,15.777828641184,11.0780498970016
1580417197.45956,-11.2001220721752,15.5336842908368,11.0780498970016
1580417197.46356,-12.4818799114976,15.2895399404897,11.0780498970016
1580417197.46755,-13.4584573128861,15.0453955901426,10.955977721828
1580417197.47155,-14.068818188754,14.4960708018616,10.955977721828
1580417197.47554,-14.4960708018616,14.1298542763409,10.8339055466545
1580417197.47953,-14.6181429770352,13.4584573128861,10.8949416342411
1580417197.48353,-14.373998626688,12.9091325246052,10.7118333714809
1580417197.48752,-13.8857099259938,12.4818799114976,10.7118333714809
1580417197.49152,-13.2753490501259,12.1156633859769,10.5287251087204
1580417197.49551,-12.4818799114976,11.9325551232166,10.4066529335469
1580417197.4995,-11.3832303349354,11.9325551232166,10.2235446707866
1580417197.5035,-10.1625085831997,11.8715190356297,9.91836423285258
1580417197.50751,-9.24696726939806,11.505302510109,9.4911116197452
1580417197.5115,-8.14831769283592,11.1390859845883,9.12489509422448
1580417197.51549,-7.59899290455473,10.1625085831997,8.6366063935302
1580417197.51949,-7.04966811627378,9.12489509422448,7.90417334248878
1580417197.52348,-6.80552376592664,7.90417334248878,7.17174029144735
1580417197.52748,-6.62241550316617,6.62241550316617,6.19516289005878
1580417197.53147,-6.56137941557949,5.40169375143046,5.40169375143046
1580417197.53547,-6.5003433279926,4.18097199969475,4.42511635004189
1580417197.53946,-6.13412680247188,3.08232242313261,3.44853894865332
1580417197.54345,-5.58480201419093,1.9226367589838,2.47196154726475
1580417197.54745,-4.7913328755626,0.762951094834762,1.61745632104976
1580417197.55144,-3.50957503624022,-0.396734569314049,0.823987182421661
1580417197.55543,-2.10574502174404,-1.61745632104976,0.274662394140478
1580417197.55943,-0.335698481727377,-2.65506981002522,-0.274662394140478
1580417197.56342,1.49538414587619,-3.38750286106665,-0.579842832074519
1580417197.56742,3.44853894865332,-3.93682764934761,-0.762951094834762
1580417197.57141,5.52376592660403,-4.05889982452118,-0.823987182421661
1580417197.5754,7.66002899214163,-4.18097199969475,-0.70191500724809
1580417197.5794,9.79629205767901,-4.05889982452118,-0.51880674448762
1580417197.58339,11.810482948043,-3.99786373693451,-0.274662394140478
1580417197.58737,13.519493400473,-3.75371938658736,-0.0305180437933359
1580417197.59136,14.6181429770352,-3.32646677347975,0.152590218966907
1580417197.59536,15.1674677653161,-3.20439459830618,0.152590218966907
1580417197.59935,14.9843595025559,-3.02128633554594,-0.0305180437933359
1580417197.60335,14.4960708018616,-3.14335851071951,0.0305180437933359
1580417197.60734,13.6415655756466,-3.32646677347975,-0.274662394140478
1580417197.61134,12.4208438239109,-3.63164721141379,-0.640878919661191
1580417197.61533,11.2611581597619,-4.05889982452118,-1.0070954451819
1580417197.61932,10.1014724956131,-4.36408026245522,-1.37331197070262
1580417197.62332,9.06385900663759,-4.91340505073617,-1.73952849622333
1580417197.62731,8.08728160524902,-5.46272983901736,-1.98367284657047
1580417197.6313,7.11070420386045,-5.82894636453807,-2.16678110933094
1580417197.6353,6.01205462729831,-6.13412680247188,-2.53299763485165
1580417197.63929,5.03547722590974,-6.19516289005878,-2.7161058976119
1580417197.64329,4.30304417486832,-5.95101853971164,-2.7161058976119
1580417197.64728,3.63164721141379,-5.76791027695117,-2.65506981002522
1580417197.65127,3.20439459830618,-5.58480201419093,-2.53299763485165
1580417197.65527,3.32646677347975,-5.27962157625689,-2.34988937209118
1580417197.65926,3.57061112382689,-4.97444113832307,-1.98367284657047
1580417197.66326,3.81475547417404,-4.73029678797593,-1.61745632104976
1580417197.66727,3.75371938658736,-4.48615243762879,-1.12916762035547
1580417197.67126,3.63164721141379,-4.30304417486832,-0.579842832074519
1580417197.67525,3.26543068589308,-3.81475547417404,-0.213626306553806
1580417197.67925,2.7161058976119,-3.38750286106665,0.213626306553806
1580417197.68324,2.16678110933094,-2.96025024795904,0.70191500724809
1580417197.68724,1.8616006713969,-2.65506981002522,1.19020370794237
1580417197.69123,1.67849240863666,-2.22781719691761,1.31227588311594
1580417197.69522,1.8616006713969,-1.98367284657047,1.61745632104976
1580417197.69922,2.04470893415737,-1.49538414587619,2.16678110933094
1580417197.70321,2.16678110933094,-1.0681315327688,2.41092545967808
1580417197.70721,2.04470893415737,-0.70191500724809,2.47196154726475
1580417197.7112,1.98367284657047,-0.396734569314049,2.7161058976119
1580417197.71519,1.61745632104976,-0.0305180437933359,2.96025024795904
1580417197.71919,1.12916762035547,0.0305180437933359,3.02128633554594
1580417197.72318,0.640878919661191,0.091554131380235,3.14335851071951
1580417197.72718,0.091554131380235,0.0305180437933359,3.20439459830618
1580417197.73117,-0.335698481727377,0.091554131380235,3.38750286106665
1580417197.73516,-0.70191500724809,-0.0305180437933359,3.57061112382689
1580417197.73916,-0.946059357595232,0.152590218966907,3.81475547417404
1580417197.74315,-0.823987182421661,0.579842832074519,3.93682764934761
1580417197.74713,-0.640878919661191,1.0681315327688,4.18097199969475
1580417197.75112,-0.640878919661191,1.49538414587619,4.18097199969475
1580417197.75512,-0.640878919661191,1.98367284657047,4.36408026245522
1580417197.75911,-0.885023270008332,2.28885328450451,4.48615243762879
1580417197.76311,-1.25123979552905,2.53299763485165,4.42511635004189
1580417197.7671,-1.49538414587619,2.47196154726475,4.42511635004189
1580417197.7711,-1.73952849622333,2.34988937209118,4.18097199969475
1580417197.77509,-2.10574502174404,1.98367284657047,3.93682764934761
1580417197.77908,-2.28885328450451,1.61745632104976,3.57061112382689
1580417197.78308,-2.59403372243833,1.0070954451819,3.14335851071951
1580417197.78707,-2.7771419851988,0.51880674448762,2.7161058976119
1580417197.79106,-2.96025024795904,-0.091554131380235,2.16678110933094
1580417197.79506,-2.89921416037237,-0.579842832074519,1.61745632104976
1580417197.79905,-2.89921416037237,-0.885023270008332,0.946059357595232
1580417197.80305,-2.28885328450451,-0.885023270008332,0.335698481727377
1580417197.80704,-1.61745632104976,-0.762951094834762,-0.335698481727377
1580417197.81103,-0.885023270008332,-0.640878919661191,-0.946059357595232
1580417197.81503,-0.213626306553806,-0.51880674448762,-1.61745632104976
1580417197.81902,0.51880674448762,-0.213626306553806,-2.16678110933094
1580417197.82302,1.37331197070262,-0.152590218966907,-2.47196154726475
1580417197.82703,2.34988937209118,-0.0305180437933359,-2.7161058976119
1580417197.83102,3.57061112382689,0.274662394140478,-2.7771419851988
1580417197.83501,4.54718852521546,0.762951094834762,-2.65506981002522
1580417197.83901,5.46272983901736,1.25123979552905,-2.53299763485165
1580417197.843,6.19516289005878,1.67849240863666,-2.22781719691761
1580417197.847,6.74448767833974,2.28885328450451,-1.9226367589838
1580417197.85099,6.86655985351331,2.89921416037237,-1.55642023346309
1580417197.85498,6.5003433279926,3.38750286106665,-1.43434805828952
1580417197.85898,5.88998245212474,3.99786373693451,-1.37331197070262
1580417197.86297,5.09651331349664,4.54718852521546,-1.19020370794237
1580417197.86697,4.18097199969475,4.91340505073617,-1.31227588311594
1580417197.87096,3.38750286106665,5.03547722590974,-1.19020370794237
1580417197.87495,2.28885328450451,5.21858548867021,-1.0681315327688
1580417197.87895,1.25123979552905,5.34065766384379,-1.31227588311594
1580417197.88294,0.274662394140478,5.52376592660403,-1.37331197070262
1580417197.88694,-0.823987182421661,5.40169375143046,-1.37331197070262
1580417197.89093,-1.8616006713969,5.52376592660403,-1.31227588311594
1580417197.89492,-2.7771419851988,5.88998245212474,-1.31227588311594
1580417197.89892,-3.32646677347975,6.13412680247188,-1.49538414587619
1580417197.90291,-4.05889982452118,6.43930724040592,-1.55642023346309
1580417197.90689,-4.42511635004189,6.74448767833974,-1.73952849622333
1580417197.91088,-4.7913328755626,7.04966811627378,-1.8616006713969
1580417197.91488,-5.03547722590974,7.04966811627378,-2.04470893415737
1580417197.91887,-5.21858548867021,6.86655985351331,-2.34988937209118
1580417197.92287,-5.27962157625689,6.68345159075307,-2.7161058976119
1580417197.92686,-5.21858548867021,6.56137941557949,-3.20439459830618
1580417197.93085,-5.09651331349664,6.25619897764545,-3.57061112382689
1580417197.93485,-4.73029678797593,6.01205462729831,-3.99786373693451
1580417197.93884,-4.24200808728165,5.76791027695117,-4.24200808728165
1580417197.94284,-3.57061112382689,5.27962157625689,-4.66926070038903
1580417197.94683,-2.83817807278547,5.09651331349664,-4.97444113832307
1580417197.95082,-1.98367284657047,4.8523689631495,-5.40169375143046
1580417197.95482,-1.0681315327688,4.7913328755626,-5.52376592660403
1580417197.95881,-0.091554131380235,4.54718852521546,-5.7068741893645
1580417197.96281,1.12916762035547,4.36408026245522,-5.7068741893645
1580417197.9668,2.47196154726475,4.11993591210808,-5.82894636453807
1580417197.97079,3.75371938658736,3.63164721141379,-5.76791027695117
1580417197.97479,4.7913328755626,3.26543068589308,-5.6458381017776
1580417197.97878,5.95101853971164,3.02128633554594,-5.58480201419093
1580417197.98278,6.92759594110021,2.7771419851988,-5.34065766384379
1580417197.98679,7.35484855420759,2.65506981002522,-5.27962157625689
1580417197.99078,7.47692072938116,2.7161058976119,-5.15754940108332
1580417197.99477,7.59899290455473,2.53299763485165,-5.03547722590974
1580417197.99877,7.35484855420759,2.22781719691761,-5.03547722590974
1580417198.00276,6.98863202868688,1.98367284657047,-4.7913328755626
1580417198.00675,6.68345159075307,1.80056458381023,-4.7913328755626
1580417198.01075,6.31723506523235,1.31227588311594,-4.73029678797593
1580417198.01474,5.58480201419093,0.762951094834762,-4.73029678797593
1580417198.01874,4.8523689631495,0.274662394140478,-4.7913328755626
1580417198.02273,4.24200808728165,-0.396734569314049,-5.03547722590974
1580417198.02672,3.44853894865332,-0.946059357595232,-5.03547722590974
1580417198.03072,2.53299763485165,-1.43434805828952,-5.27962157625689
1580417198.03471,2.10574502174404,-1.80056458381023,-5.27962157625689
1580417198.03871,1.73952849622333,-2.04470893415737,-5.21858548867021
1580417198.0427,1.55642023346309,-2.28885328450451,-5.15754940108332
1580417198.04669,1.80056458381023,-2.41092545967808,-5.09651331349664
1580417198.05069,1.9226367589838,-2.34988937209118,-4.97444113832307
1580417198.05468,2.22781719691761,-2.34988937209118,-4.73029678797593
1580417198.05868,2.59403372243833,-2.41092545967808,-4.60822461280236
1580417198.06267,2.65506981002522,-2.34988937209118,-4.48615243762879
1580417198.06665,2.65506981002522,-2.34988937209118,-4.48615243762879
1580417198.07064,2.53299763485165,-2.53299763485165,-4.60822461280236
1580417198.07464,2.22781719691761,-2.59403372243833,-4.66926070038903
1580417198.07863,1.67849240863666,-2.7161058976119,-4.7913328755626
1580417198.08263,1.0070954451819,-2.89921416037237,-5.03547722590974
1580417198.08662,0.579842832074519,-3.02128633554594,-5.27962157625689
1580417198.09061,0.0305180437933359,-3.32646677347975,-5.58480201419093
1580417198.09461,0.0305180437933359,-3.32646677347975,-5.82894636453807
1580417198.0986,0.335698481727377,-2.96025024795904,-6.01205462729831
1580417198.1026,0.762951094834762,-2.7161058976119,-6.13412680247188
1580417198.10659,1.37331197070262,-2.16678110933094,-6.19516289005878
1580417198.11058,2.22781719691761,-1.67849240863666,-6.19516289005878
1580417198.11458,2.83817807278547,-1.0070954451819,-5.95101853971164
1580417198.11857,3.69268329900046,-0.579842832074519,-5.76791027695117
1580417198.12257,4.73029678797593,-0.335698481727377,-5.46272983901736
1580417198.12656,5.88998245212474,-0.213626306553806,-4.97444113832307
1580417198.13055,6.80552376592664,-0.0305180437933359,-4.48615243762879
1580417198.13455,7.53795681696806,0.0305180437933359,-4.18097199969475
1580417198.13854,7.84313725490188,0.091554131380235,-3.93682764934761
1580417198.14254,7.84313725490188,-0.0305180437933359,-3.63164721141379
1580417198.14654,7.59899290455473,0.152590218966907,-3.26543068589308
1580417198.15054,7.11070420386045,0.335698481727377,-3.08232242313261
1580417198.15453,6.31723506523235,0.457770656900948,-2.96025024795904
1580417198.15853,5.34065766384379,0.579842832074519,-2.7771419851988
1580417198.16252,4.36408026245522,0.762951094834762,-2.65506981002522
1580417198.16651,3.32646677347975,0.640878919661191,-2.7161058976119
1580417198.17051,2.65506981002522,0.213626306553806,-2.65506981002522
1580417198.1745,1.43434805828952,-0.0305180437933359,-2.47196154726475
1580417198.1785,0.213626306553806,-0.213626306553806,-2.28885328450451
1580417198.18249,-1.0681315327688,-0.274662394140478,-1.98367284657047
1580417198.18648,-2.04470893415737,-0.213626306553806,-1.8616006713969
1580417198.19048,-2.89921416037237,-0.091554131380235,-1.80056458381023
1580417198.19447,-3.08232242313261,0.213626306553806,-1.55642023346309
1580417198.19847,-2.7161058976119,0.640878919661191,-1.25123979552905
1580417198.20246,-1.80056458381023,1.0070954451819,-1.0070954451819
1580417198.20645,-0.579842832074519,1.49538414587619,-0.640878919661191
1580417198.21045,1.31227588311594,2.04470893415737,-0.152590218966907
1580417198.21444,3.26543068589308,2.53299763485165,0.396734569314049
1580417198.21844,5.03547722590974,2.7771419851988,0.70191500724809
1580417198.22243,6.74448767833974,2.96025024795904,1.19020370794237
1580417198.22644,7.96520943007545,2.89921416037237,1.55642023346309
1580417198.23043,8.88075074387734,2.7161058976119,1.8616006713969
1580417198.23443,9.06385900663759,2.10574502174404,2.04470893415737
1580417198.23842,8.6366063935302,1.19020370794237,2.04470893415737
1580417198.24242,7.90417334248878,0.335698481727377,2.34988937209118
1580417198.24641,6.86655985351331,-0.457770656900948,2.47196154726475
1580417198.2504,5.7068741893645,-0.885023270008332,2.41092545967808
1580417198.2544,4.54718852521546,-1.37331197070262,2.41092545967808
1580417198.25839,3.81475547417404,-1.55642023346309,2.34988937209118
1580417198.26239,3.26543068589308,-1.43434805828952,2.47196154726475
1580417198.26638,3.14335851071951,-1.19020370794237,2.53299763485165
1580417198.27037,3.32646677347975,-1.12916762035547,2.65506981002522
1580417198.27437,3.93682764934761,-1.25123979552905,3.02128633554594
1580417198.27836,4.42511635004189,-1.31227588311594,3.50957503624022
1580417198.28236,4.60822461280236,-1.43434805828952,4.30304417486832
1580417198.28635,4.24200808728165,-1.80056458381023,5.03547722590974
1580417198.29034,3.14335851071951,-2.04470893415737,5.95101853971164
1580417198.29434,1.8616006713969,-2.28885328450451,6.98863202868688
1580417198.29833,0.579842832074519,-2.41092545967808,8.20935378042259
1580417198.30233,-0.579842832074519,-2.53299763485165,9.12489509422448
1580417198.3063,-1.19020370794237,-2.83817807278547,9.91836423285258
1580417198.3103,-1.43434805828952,-2.89921416037237,10.8949416342411
1580417198.31429,-1.37331197070262,-3.26543068589308,11.6884107728695
1580417198.31829,-1.49538414587619,-3.50957503624022,12.2987716487373
1580417198.32228,-2.04470893415737,-3.75371938658736,12.7870603494316
1580417198.32627,-2.89921416037237,-3.93682764934761,13.2753490501259
1580417198.33027,-4.05889982452118,-4.18097199969475,13.5805294880597
1580417198.33426,-5.40169375143046,-4.24200808728165,13.6415655756466
1580417198.33826,-6.80552376592664,-4.18097199969475,13.6415655756466
1580417198.34225,-8.14831769283592,-4.18097199969475,13.7026016632333
1580417198.34624,-9.24696726939806,-3.99786373693451,13.4584573128861
1580417198.35024,-9.73525597009234,-3.63164721141379,13.3974212252995
1580417198.35423,-9.85732814526591,-3.26543068589308,13.1532768749523
1580417198.35823,-9.79629205767901,-2.7161058976119,12.7870603494316
1580417198.36222,-9.73525597009234,-2.04470893415737,12.4818799114976
1580417198.36621,-9.4300755321583,-1.43434805828952,11.8715190356297
1580417198.37021,-9.00282291905091,-0.640878919661191,11.2611581597619
1580417198.3742,-8.81971465629044,0.152590218966907,10.4066529335469
1580417198.3782,-8.69764248111687,0.640878919661191,9.61318379491877
1580417198.38219,-8.39246204318306,1.25123979552905,8.6366063935302
1580417198.3862,-7.96520943007545,1.67849240863666,7.47692072938116
1580417198.39019,-7.11070420386045,1.80056458381023,6.19516289005878
1580417198.39419,-6.37827115281902,1.43434805828952,5.09651331349664
1580417198.39818,-5.7068741893645,1.0070954451819,4.42511635004189
1580417198.40218,-5.40169375143046,0.640878919661191,3.63164721141379
1580417198.40617,-5.15754940108332,0.579842832074519,3.08232242313261
1580417198.41016,-5.15754940108332,0.396734569314049,2.96025024795904
1580417198.41416,-5.34065766384379,0.579842832074519,3.14335851071951
1580417198.41815,-5.58480201419093,0.762951094834762,3.57061112382689
1580417198.42214,-5.52376592660403,1.19020370794237,4.60822461280236
1580417198.42614,-5.09651331349664,1.9226367589838,5.76791027695117
1580417198.43013,-4.36408026245522,2.65506981002522,6.80552376592664
1580417198.43413,-3.02128633554594,3.02128633554594,8.20935378042259
1580417198.43812,-1.73952849622333,3.20439459830618,9.79629205767901
1580417198.44211,-0.579842832074519,3.50957503624022,11.3221942473488
1580417198.44611,0.579842832074519,3.87579156176093,13.0312046997788
1580417198.4501,1.43434805828952,4.11993591210808,14.6791790646218
1580417198.4541,1.8616006713969,3.81475547417404,16.4492256046387
1580417198.45809,1.61745632104976,3.14335851071951,17.9140917067216
1580417198.46209,0.70191500724809,2.34988937209118,19.195849546044
1580417198.46609,-0.152590218966907,1.31227588311594,20.050354772259
1580417198.47009,-1.25123979552905,0.335698481727377,20.6607156481268
1580417198.47408,-2.47196154726475,-0.274662394140478,21.2710765239947
1580417198.47808,-4.05889982452118,-0.51880674448762,21.5152208743418
1580417198.48207,-5.7068741893645,-0.274662394140478,21.5762569619287
1580417198.48606,-7.53795681696806,0.213626306553806,21.4541847867551
1580417198.49006,-8.94178683146401,0.885023270008332,21.5152208743418
1580417198.49405,-10.3456168459602,1.43434805828952,21.0269321736475
1580417198.49805,-11.5663385976959,1.8616006713969,20.6607156481268
1580417198.50204,-12.1156633859769,1.8616006713969,19.9893186846723
1580417198.50603,-12.7870603494316,1.61745632104976,19.3789578088044
1580417198.51003,-13.0312046997788,1.37331197070262,18.5854886701761
1580417198.51402,-13.0922407873654,1.19020370794237,17.6699473563745
1580417198.51802,-12.9701686121919,1.12916762035547,16.7544060425726
1580417198.52201,-12.4818799114976,1.43434805828952,15.777828641184
1580417198.526,-11.6884107728695,1.8616006713969,14.4960708018616
1580417198.53,-10.955977721828,2.28885328450451,13.214312962539
1580417198.53399,-10.2235446707866,2.7161058976119,11.810482948043
1580417198.53799,-9.79629205767901,2.83817807278547,10.2845807583733
1580417198.54198,-9.30800335698473,2.7771419851988,8.69764248111687
1580417198.54596,-9.30800335698473,2.59403372243833,7.41588464179449
1580417198.54995,-9.55214770733187,2.41092545967808,6.07309071488521
1580417198.55395,-9.73525597009234,2.28885328450451,4.8523689631495
1580417198.55794,-9.4300755321583,2.22781719691761,4.05889982452118
1580417198.56193,-8.45349813076973,2.16678110933094,3.32646677347975
1580417198.56593,-7.04966811627378,2.34988937209118,2.7771419851988
1580417198.56992,-5.09651331349664,2.59403372243833,2.34988937209118
1580417198.57392,-2.65506981002522,2.83817807278547,1.80056458381023
1580417198.57791,-0.213626306553806,2.96025024795904,1.49538414587619
1580417198.5819,2.04470893415737,3.26543068589308,1.37331197070262
1580417198.5859,4.66926070038903,3.99786373693451,1.49538414587619
1580417198.58989,7.17174029144735,4.66926070038903,1.67849240863666
1580417198.59389,9.4300755321583,5.27962157625689,1.8616006713969
1580417198.59788,11.4442664225223,5.95101853971164,2.04470893415737
1580417198.60187,13.2753490501259,6.56137941557949,2.10574502174404
1580417198.60587,14.8622873273823,6.98863202868688,2.10574502174404
1580417198.60986,16.2050812542916,7.17174029144735,2.04470893415737
1580417198.61386,16.9985503929197,6.80552376592664,1.80056458381023
1580417198.61785,16.8764782177461,6.25619897764545,1.37331197070262
1580417198.62185,16.083009079118,5.52376592660403,0.885023270008332
1580417198.62585,14.8622873273823,5.03547722590974,0.0305180437933359
1580417198.62985,13.6415655756466,4.60822461280236,-1.0070954451819
1580417198.63384,12.4208438239109,4.36408026245522,-2.28885328450451
1580417198.63784,11.1390859845883,3.99786373693451,-3.57061112382689
1580417198.64183,9.73525597009234,3.50957503624022,-4.91340505073617
1580417198.64582,8.45349813076973,3.26543068589308,-6.31723506523235
1580417198.64982,7.11070420386045,2.89921416037237,-7.53795681696806
1580417198.65381,5.34065766384379,2.65506981002522,-8.75867856870377
1580417198.65781,3.44853894865332,2.53299763485165,-9.79629205767901
1580417198.6618,1.19020370794237,2.59403372243833,-10.7118333714809
1580417198.66579,-0.70191500724809,3.08232242313261,-12.0546272983902
1580417198.66979,-2.10574502174404,3.63164721141379,-13.0312046997788
1580417198.67378,-3.02128633554594,4.24200808728165,-14.1298542763409
1580417198.67778,-3.57061112382689,4.66926070038903,-15.3505760280766
1580417198.68177,-4.05889982452118,5.34065766384379,-16.632333867399
1580417198.68576,-4.54718852521546,6.07309071488521,-17.7309834439611
1580417198.68976,-4.66926070038903,6.68345159075307,-19.0127412832837
1580417198.69375,-4.66926070038903,7.41588464179449,-20.2944991226061
1580417198.69775,-3.87579156176093,7.84313725490188,-21.5152208743418
1580417198.70174,-2.34988937209118,8.14831769283592,-22.613870450904
1580417198.70572,-0.946059357595232,8.14831769283592,-23.4073395895323
1580417198.70971,0.335698481727377,7.84313725490188,-23.8345922026397
1580417198.71371,1.37331197070262,7.41588464179449,-24.2618448157473
1580417198.7177,2.53299763485165,6.86655985351331,-24.2618448157473
1580417198.72169,4.11993591210808,6.43930724040592,-23.773556115053
1580417198.72569,6.19516289005878,6.01205462729831,-23.1631952391851
1580417198.72968,8.45349813076973,5.58480201419093,-21.8814373998625
1580417198.73368,10.8339055466545,5.27962157625689,-20.355535210193
1580417198.73767,12.7260242618447,5.27962157625689,-18.4634164950025
1580417198.74166,14.1298542763409,5.15754940108332,-16.083009079118
1580417198.74566,14.8012512397954,4.91340505073617,-13.5805294880597
1580417198.74965,14.7402151522087,4.66926070038903,-10.8339055466545
1580417198.75365,14.7402151522087,4.48615243762879,-8.27038986800949
1580417198.75764,15.1674677653161,4.24200808728165,-5.88998245212474
1580417198.76163,16.083009079118,4.11993591210808,-3.57061112382689
1580417198.76563,16.8764782177461,3.81475547417404,-1.67849240863666
1580417198.76962,17.3037308308537,3.69268329900046,0.0305180437933359
1580417198.77362,17.5478751812009,3.50957503624022,1.61745632104976
1580417198.77761,17.7309834439611,3.20439459830618,2.7161058976119
1580417198.7816,17.8530556191347,2.89921416037237,3.87579156176093
1580417198.78561,18.0361638818952,2.16678110933094,4.60822461280236
1580417198.78961,17.9751277943083,1.0681315327688,5.15754940108332
1580417198.7936,17.7309834439611,-0.274662394140478,5.6458381017776
1580417198.7976,16.9985503929197,-1.73952849622333,5.95101853971164
1580417198.80159,15.8388647287709,-3.32646677347975,5.95101853971164
1580417198.80558,14.1908903639276,-4.48615243762879,6.07309071488521
1580417198.80958,12.2377355611504,-5.40169375143046,5.88998245212474
1580417198.81357,10.2235446707866,-5.82894636453807,5.58480201419093
1580417198.81757,8.20935378042259,-6.07309071488521,5.27962157625689
1580417198.82156,6.19516289005878,-6.19516289005878,4.8523689631495
1580417198.82555,4.18097199969475,-6.01205462729831,4.54718852521546
1580417198.82955,2.41092545967808,-5.88998245212474,4.42511635004189
1580417198.83354,1.19020370794237,-5.7068741893645,4.11993591210808
1580417198.83753,0.274662394140478,-5.27962157625689,3.81475547417404
1580417198.84153,-0.152590218966907,-4.66926070038903,3.57061112382689
1580417198.84552,-0.274662394140478,-4.18097199969475,3.38750286106665
1580417198.84952,-0.213626306553806,-3.75371938658736,3.26543068589308
1580417198.85351,-0.152590218966907,-3.38750286106665,3.20439459830618
1580417198.8575,-0.213626306553806,-3.08232242313261,3.20439459830618
1580417198.8615,-0.274662394140478,-3.32646677347975,3.38750286106665
1580417198.86548,-1.0070954451819,-3.99786373693451,3.87579156176093
1580417198.86947,-1.9226367589838,-4.7913328755626,4.60822461280236
1580417198.87347,-2.89921416037237,-5.58480201419093,5.82894636453807
1580417198.87746,-3.93682764934761,-6.31723506523235,7.23277637903402
1580417198.88145,-5.09651331349664,-6.98863202868688,8.75867856870377
1580417198.88545,-5.88998245212474,-7.66002899214163,10.5287251087204
1580417198.88944,-6.19516289005878,-8.14831769283592,12.1156633859769
1580417198.89344,-5.76791027695117,-8.08728160524902,13.7026016632333
1580417198.89743,-5.09651331349664,-7.29381246662092,15.1674677653161
1580417198.90142,-4.8523689631495,-5.95101853971164,16.5712977798123
1580417198.90542,-4.42511635004189,-4.24200808728165,17.9140917067216
1580417198.90941,-3.93682764934761,-2.65506981002522,19.0127412832837
1580417198.91341,-3.02128633554594,-1.55642023346309,19.7451743343252
1580417198.9174,-1.55642023346309,-0.762951094834762,19.9282825970854
1580417198.92139,0.091554131380235,-0.152590218966907,19.8062104219118
1580417198.92539,1.49538414587619,0.335698481727377,19.3179217212175
1580417198.92938,2.96025024795904,1.0681315327688,18.5244525825894
1580417198.93338,4.18097199969475,1.9226367589838,17.486839093614
1580417198.93737,5.15754940108332,2.96025024795904,16.4492256046387
1580417198.94136,5.82894636453807,4.11993591210808,15.3505760280766
1580417198.94537,6.31723506523235,5.21858548867021,14.3129625391011
1580417198.94937,6.01205462729831,6.37827115281902,13.0312046997788
1580417198.95336,4.97444113832307,7.17174029144735,11.9935912108033
1580417198.95736,3.44853894865332,7.35484855420759,10.7118333714809
1580417198.96135,1.55642023346309,6.98863202868688,9.18593118181116
1580417198.96534,-0.640878919661191,6.5003433279926,7.59899290455473
1580417198.96934,-2.96025024795904,6.07309071488521,6.07309071488521
1580417198.97333,-5.09651331349664,5.88998245212474,4.36408026245522
1580417198.97732,-6.98863202868688,6.01205462729831,2.65506981002522
1580417198.98132,-8.88075074387734,5.95101853971164,1.0070954451819
1580417198.98531,-10.2845807583733,5.58480201419093,-0.579842832074519
1580417198.98931,-11.505302510109,5.03547722590974,-1.9226367589838
1580417198.9933,-12.359807736324,4.24200808728165,-3.08232242313261
1580417198.99729,-12.8480964370183,3.20439459830618,-3.87579156176093
1580417199.00129,-12.7870603494316,2.28885328450451,-4.54718852521546
1580417199.00528,-12.359807736324,1.43434805828952,-4.97444113832307
1580417199.00928,-11.2001220721752,0.885023270008332,-5.21858548867021
1580417199.01327,-9.4300755321583,0.457770656900948,-5.27962157625689
1580417199.01726,-6.92759594110021,0.335698481727377,-5.03547722590974
1580417199.02126,-4.18097199969475,0.396734569314049,-4.66926070038903
1580417199.02524,-1.67849240863666,0.640878919661191,-4.05889982452118
1580417199.02923,0.762951094834762,1.0070954451819,-3.44853894865332
1580417199.03323,2.7161058976119,1.43434805828952,-3.02128633554594
1580417199.03722,4.18097199969475,1.98367284657047,-2.47196154726475
1580417199.04121,5.52376592660403,2.34988937209118,-2.28885328450451
1580417199.04521,6.43930724040592,2.7771419851988,-2.28885328450451
1580417199.0492,7.23277637903402,3.14335851071951,-2.47196154726475
1580417199.0532,8.45349813076973,3.26543068589308,-2.96025024795904
1580417199.05719,9.97940032043948,3.38750286106665,-3.57061112382689
1580417199.06118,11.505302510109,3.50957503624022,-4.48615243762879
1580417199.06518,12.664988174258,3.57061112382689,-5.34065766384379
1580417199.06917,13.2753490501259,3.63164721141379,-6.43930724040592
1580417199.07317,13.4584573128861,3.38750286106665,-7.41588464179449
1580417199.07716,13.519493400473,2.96025024795904,-8.20935378042259
1580417199.08115,13.214312962539,2.41092545967808,-8.88075074387734
1580417199.08515,12.4208438239109,1.80056458381023,-9.61318379491877
1580417199.08914,11.2001220721752,1.31227588311594,-10.5287251087204
1580417199.09313,9.4911116197452,1.19020370794237,-11.505302510109
1580417199.09713,7.53795681696806,1.12916762035547,-12.1766994735638
1580417199.10112,5.40169375143046,1.19020370794237,-12.7260242618447
1580417199.10513,3.02128633554594,1.19020370794237,-13.0312046997788
1580417199.10913,1.0070954451819,1.37331197070262,-12.9091325246052
1580417199.11312,-0.51880674448762,1.8616006713969,-12.4818799114976
1580417199.11712,-1.25123979552905,2.47196154726475,-11.505302510109
1580417199.12111,-1.67849240863666,3.08232242313261,-10.3456168459602
1580417199.1251,-1.80056458381023,3.99786373693451,-8.94178683146401
1580417199.1291,-1.61745632104976,4.91340505073617,-7.53795681696806
1580417199.13309,-1.25123979552905,5.76791027695117,-6.07309071488521
1580417199.13708,-0.885023270008332,6.56137941557949,-4.97444113832307
1580417199.14108,-0.274662394140478,7.41588464179449,-4.24200808728165
1580417199.14507,0.457770656900948,7.96520943007545,-3.81475547417404
1580417199.14907,1.0070954451819,8.14831769283592,-3.93682764934761
1580417199.15306,1.73952849622333,8.20935378042259,-4.36408026245522
1580417199.15705,2.7161058976119,8.14831769283592,-4.91340505073617
1580417199.16105,3.57061112382689,7.72106507972831,-5.52376592660403
1580417199.16504,4.30304417486832,6.68345159075307,-6.19516289005878
1580417199.16904,4.66926070038903,5.21858548867021,-6.56137941557949
1580417199.17303,4.8523689631495,3.63164721141379,-6.80552376592664
1580417199.17702,4.66926070038903,2.22781719691761,-6.62241550316617
1580417199.18102,4.24200808728165,0.946059357595232,-6.13412680247188
1580417199.185,3.93682764934761,0.213626306553806,-5.09651331349664
1580417199.18899,4.05889982452118,-0.213626306553806,-3.93682764934761
1580417199.19298,4.30304417486832,-0.51880674448762,-2.59403372243833
1580417199.19698,4.97444113832307,-0.885023270008332,-1.12916762035547
1580417199.20097,5.6458381017776,-1.25123979552905,0.457770656900948
1580417199.20497,6.13412680247188,-1.61745632104976,2.10574502174404
1580417199.20896,6.37827115281902,-1.98367284657047,3.57061112382689
1580417199.21295,6.31723506523235,-2.53299763485165,4.73029678797593
1580417199.21695,6.25619897764545,-2.83817807278547,5.7068741893645
1580417199.22094,6.43930724040592,-3.32646677347975,6.5003433279926
1580417199.22494,6.68345159075307,-3.93682764934761,6.74448767833974
1580417199.22893,6.86655985351331,-4.42511635004189,6.98863202868688
1580417199.23292,6.80552376592664,-4.66926070038903,6.92759594110021
1580417199.23692,6.5003433279926,-4.91340505073617,6.68345159075307
1580417199.24091,6.07309071488521,-5.27962157625689,6.31723506523235
1580417199.24491,5.27962157625689,-5.58480201419093,5.88998245212474
1580417199.2489,4.36408026245522,-5.6458381017776,5.40169375143046
1580417199.25289,3.38750286106665,-5.58480201419093,4.97444113832307
1580417199.25689,2.65506981002522,-5.7068741893645,4.30304417486832
1580417199.26088,2.41092545967808,-5.58480201419093,3.87579156176093
1580417199.26489,2.22781719691761,-5.52376592660403,3.44853894865332
1580417199.26889,2.04470893415737,-5.15754940108332,3.20439459830618
1580417199.27288,1.98367284657047,-4.48615243762879,3.02128633554594
1580417199.27687,1.9226367589838,-3.38750286106665,2.65506981002522
1580417199.28087,1.8616006713969,-1.8616006713969,2.28885328450451
1580417199.28486,1.98367284657047,-1.0070954451819,1.98367284657047
1580417199.28886,2.04470893415737,-0.335698481727377,1.49538414587619
1580417199.29285,2.47196154726475,0.0305180437933359,1.0070954451819
1580417199.29684,3.14335851071951,0.335698481727377,0.640878919661191
1580417199.30084,3.75371938658736,0.51880674448762,0.457770656900948
1580417199.30483,4.24200808728165,0.396734569314049,0.152590218966907
1580417199.30883,4.36408026245522,0.335698481727377,0.091554131380235
1580417199.31282,3.99786373693451,0.274662394140478,0.335698481727377
1580417199.31681,3.38750286106665,-0.091554131380235,0.579842832074519
1580417199.32081,2.22781719691761,-0.640878919661191,1.0070954451819
1580417199.3248,0.823987182421661,-1.61745632104976,1.67849240863666
1580417199.3288,-0.640878919661191,-2.28885328450451,2.34988937209118
1580417199.33279,-1.55642023346309,-2.59403372243833,3.08232242313261
1580417199.33678,-1.9226367589838,-2.65506981002522,3.99786373693451
1580417199.34078,-1.80056458381023,-2.16678110933094,4.91340505073617
1580417199.34476,-1.31227588311594,-1.31227588311594,5.82894636453807
1580417199.34875,-0.335698481727377,-0.152590218966907,6.43930724040592
1580417199.35274,1.0070954451819,1.0070954451819,6.80552376592664
1580417199.35674,2.53299763485165,1.73952849622333,6.80552376592664
1580417199.36073,4.18097199969475,2.34988937209118,6.31723506523235
1580417199.36473,5.95101853971164,2.7161058976119,5.15754940108332
1580417199.36872,7.53795681696806,2.7161058976119,3.69268329900046
1580417199.37271,8.88075074387734,2.47196154726475,1.80056458381023
1580417199.37671,10.0404364080262,1.98367284657047,-0.152590218966907
1580417199.3807,10.7118333714809,1.43434805828952,-1.80056458381023
1580417199.3847,11.1390859845883,1.0070954451819,-3.20439459830618
1580417199.38869,10.7118333714809,0.579842832074519,-4.18097199969475
1580417199.39268,10.1014724956131,0.152590218966907,-4.8523689631495
1580417199.39668,9.4300755321583,-0.335698481727377,-4.73029678797593
1580417199.40067,8.27038986800949,-0.885023270008332,-4.11993591210808
1580417199.40467,6.80552376592664,-1.19020370794237,-3.20439459830618
1580417199.40866,4.97444113832307,-1.12916762035547,-1.9226367589838
1580417199.41265,2.96025024795904,-0.579842832074519,-0.640878919661191
1580417199.41665,1.49538414587619,0.152590218966907,0.70191500724809
1580417199.42064,0.51880674448762,0.823987182421661,1.8616006713969
1580417199.42465,0.152590218966907,1.37331197070262,2.7161058976119
1580417199.42865,0.274662394140478,1.80056458381023,3.26543068589308
1580417199.43264,0.823987182421661,1.73952849622333,3.44853894865332
1580417199.43663,1.12916762035547,1.43434805828952,3.44853894865332
1580417199.44063,1.0681315327688,0.885023270008332,3.20439459830618
1580417199.44462,0.579842832074519,0.457770656900948,2.89921416037237
1580417199.44862,0.0305180437933359,0.091554131380235,2.47196154726475
1580417199.45261,-0.274662394140478,-0.335698481727377,2.34988937209118
1580417199.4566,-0.152590218966907,-0.762951094834762,2.47196154726475
1580417199.4606,-0.396734569314049,-0.946059357595232,2.65506981002522
1580417199.46459,-1.12916762035547,-0.823987182421661,3.14335851071951
1580417199.46859,-2.34988937209118,-0.213626306553806,3.69268329900046
1580417199.47258,-3.87579156176093,0.51880674448762,4.42511635004189
1580417199.47657,-5.03547722590974,1.31227588311594,4.7913328755626
1580417199.48057,-5.40169375143046,1.98367284657047,4.8523689631495
1580417199.48456,-4.73029678797593,2.65506981002522,4.66926070038903
1580417199.48856,-3.57061112382689,3.14335851071951,4.18097199969475
1580417199.49255,-2.47196154726475,3.63164721141379,3.44853894865332
1580417199.49654,-1.8616006713969,3.93682764934761,2.41092545967808
1580417199.50054,-1.49538414587619,4.36408026245522,1.0681315327688
1580417199.50452,-1.0681315327688,4.66926070038903,-0.579842832074519
1580417199.50851,-0.335698481727377,4.73029678797593,-2.10574502174404
1580417199.5125,1.12916762035547,4.36408026245522,-3.44853894865332
1580417199.5165,3.08232242313261,4.05889982452118,-4.8523689631495
1580417199.52049,5.40169375143046,3.81475547417404,-5.95101853971164
1580417199.52449,7.41588464179449,3.75371938658736,-6.92759594110021
1580417199.52848,8.81971465629044,3.57061112382689,-7.41588464179449
1580417199.53247,9.97940032043948,3.38750286106665,-7.47692072938116
1580417199.53647,10.7728694590676,3.32646677347975,-7.04966811627378
1580417199.54046,11.3832303349354,3.02128633554594,-6.07309071488521
1580417199.54446,11.2611581597619,2.7771419851988,-4.73029678797593
1580417199.54845,10.1014724956131,2.53299763485165,-2.96025024795904
1580417199.55244,8.14831769283592,2.41092545967808,-1.12916762035547
1580417199.55644,5.52376592660403,2.59403372243833,1.0681315327688
1580417199.56043,2.89921416037237,3.08232242313261,3.57061112382689
1580417199.56443,0.70191500724809,3.93682764934761,5.82894636453807
1580417199.56842,-0.946059357595232,5.09651331349664,7.72106507972831
1580417199.57241,-1.67849240863666,6.07309071488521,9.06385900663759
1580417199.57641,-1.55642023346309,6.80552376592664,9.55214770733187
1580417199.5804,-0.823987182421661,7.11070420386045,9.12489509422448
1580417199.58441,0.091554131380235,6.56137941557949,7.7821011673152
1580417199.5884,0.885023270008332,5.21858548867021,5.76791027695117
1580417199.5924,1.43434805828952,3.57061112382689,2.96025024795904
1580417199.59639,1.37331197070262,1.80056458381023,0.213626306553806
1580417199.60039,0.640878919661191,-0.274662394140478,-2.65506981002522
1580417199.60438,-0.51880674448762,-2.22781719691761,-5.34065766384379
1580417199.60837,-1.80056458381023,-3.93682764934761,-7.35484855420759
1580417199.61237,-2.7161058976119,-5.52376592660403,-9.00282291905091
1580417199.61636,-3.20439459830618,-6.68345159075307,-9.85732814526591
1580417199.62036,-3.50957503624022,-7.17174029144735,-10.2235446707866
1580417199.62435,-3.50957503624022,-7.11070420386045,-9.97940032043948
1580417199.62835,-3.26543068589308,-6.43930724040592,-9.24696726939806
1580417199.63234,-2.53299763485165,-5.09651331349664,-7.90417334248878
1580417199.63633,-1.31227588311594,-3.26543068589308,-6.5003433279926
1580417199.64033,0.335698481727377,-1.43434805828952,-5.21858548867021
1580417199.64432,2.65506981002522,0.091554131380235,-3.57061112382689
1580417199.64831,5.15754940108332,1.25123979552905,-2.28885328450451
1580417199.65231,7.47692072938116,1.73952849622333,-0.946059357595232
1580417199.6563,8.94178683146401,1.61745632104976,0.152590218966907
1580417199.6603,9.00282291905091,1.19020370794237,1.37331197070262
1580417199.66428,8.14831769283592,0.457770656900948,2.16678110933094
1580417199.66827,6.56137941557949,-0.396734569314049,2.7771419851988
1580417199.67226,4.73029678797593,-1.0681315327688,3.38750286106665
1580417199.67626,2.7771419851988,-1.37331197070262,3.57061112382689
1580417199.68025,1.0681315327688,-1.49538414587619,3.44853894865332
1580417199.68425,-0.946059357595232,-1.37331197070262,3.08232242313261
1580417199.68824,-2.59403372243833,-1.49538414587619,2.59403372243833
1580417199.69223,-3.99786373693451,-1.73952849622333,2.10574502174404
1580417199.69623,-4.7913328755626,-1.73952849622333,1.43434805828952
1580417199.70022,-4.97444113832307,-1.12916762035547,0.457770656900948
1580417199.70422,-4.36408026245522,-0.091554131380235,-0.457770656900948
1580417199.70821,-3.26543068589308,1.37331197070262,-1.37331197070262
1580417199.7122,-1.80056458381023,2.7161058976119,-2.47196154726475
1580417199.7162,-0.396734569314049,3.75371938658736,-3.44853894865332
1580417199.72019,1.0070954451819,4.54718852521546,-4.54718852521546
1580417199.72419,2.53299763485165,5.15754940108332,-5.27962157625689
1580417199.72818,3.87579156176093,5.34065766384379,-5.7068741893645
1580417199.73217,4.97444113832307,5.09651331349664,-5.7068741893645
1580417199.73617,5.58480201419093,4.54718852521546,-5.21858548867021
1580417199.74016,6.31723506523235,4.24200808728165,-4.18097199969475
1580417199.74417,7.23277637903402,4.11993591210808,-2.83817807278547
1580417199.74816,8.14831769283592,4.48615243762879,-1.19020370794237
1580417199.75216,8.6366063935302,5.15754940108332,0.51880674448762
1580417199.75615,8.45349813076973,5.6458381017776,2.04470893415737
1580417199.76015,7.84313725490188,5.76791027695117,3.02128633554594
1580417199.76414,6.5003433279926,5.21858548867021,3.69268329900046
1580417199.76813,5.34065766384379,3.99786373693451,4.18097199969475
1580417199.77213,4.05889982452118,2.34988937209118,4.30304417486832
1580417199.77612,2.89921416037237,0.640878919661191,4.36408026245522
1580417199.78012,1.9226367589838,-0.885023270008332,4.05889982452118
1580417199.78411,1.19020370794237,-2.04470893415737,3.93682764934761
1580417199.78811,0.457770656900948,-2.7771419851988,3.81475547417404
1580417199.7921,0.0305180437933359,-3.14335851071951,3.50957503624022
1580417199.79609,-0.396734569314049,-3.38750286106665,3.26543068589308
1580417199.80009,-0.640878919661191,-3.26543068589308,2.96025024795904
1580417199.80408,-0.396734569314049,-2.89921416037237,2.22781719691761
1580417199.80807,0.457770656900948,-2.22781719691761,1.25123979552905
1580417199.81207,1.73952849622333,-1.43434805828952,0.091554131380235
1580417199.81606,3.08232242313261,-0.823987182421661,-1.19020370794237
1580417199.82006,4.05889982452118,-0.396734569314049,-2.41092545967808
1580417199.82403,4.66926070038903,-0.274662394140478,-3.50957503624022
1580417199.82803,5.09651331349664,-0.457770656900948,-4.24200808728165
1580417199.83202,5.03547722590974,-0.70191500724809,-4.54718852521546
1580417199.83602,4.48615243762879,-1.0070954451819,-4.54718852521546
1580417199.84001,3.38750286106665,-1.0070954451819,-4.05889982452118
1580417199.844,2.28885328450451,-1.12916762035547,-3.08232242313261
1580417199.848,0.762951094834762,-1.31227588311594,-1.98367284657047
1580417199.85199,-0.823987182421661,-1.55642023346309,-0.70191500724809
1580417199.85599,-2.22781719691761,-1.61745632104976,0.640878919661191
1580417199.85998,-3.32646677347975,-1.49538414587619,1.98367284657047
1580417199.86397,-3.87579156176093,-1.25123979552905,3.08232242313261
1580417199.86797,-3.75371938658736,-0.946059357595232,3.99786373693451
1580417199.87196,-3.26543068589308,-0.885023270008332,4.60822461280236
1580417199.87596,-2.41092545967808,-0.51880674448762,4.97444113832307
1580417199.87995,-1.80056458381023,-0.091554131380235,4.91340505073617
1580417199.88394,-1.25123979552905,0.274662394140478,4.36408026245522
1580417199.88794,-1.0070954451819,0.457770656900948,3.44853894865332
1580417199.89193,-1.25123979552905,0.946059357595232,2.04470893415737
1580417199.89593,-1.37331197070262,1.67849240863666,0.51880674448762
1580417199.89992,-1.0070954451819,2.7161058976119,-1.37331197070262
1580417199.90393,-0.152590218966907,3.57061112382689,-3.32646677347975
1580417199.90792,0.946059357595232,4.48615243762879,-4.97444113832307
1580417199.91192,2.28885328450451,5.52376592660403,-6.31723506523235
1580417199.91591,4.54718852521546,6.13412680247188,-6.98863202868688
1580417199.91991,7.29381246662092,6.74448767833974,-7.04966811627378
1580417199.9239,9.4300755321583,7.04966811627378,-6.43930724040592
1580417199.92789,11.0780498970016,7.23277637903402,-4.97444113832307
1580417199.93189,11.6884107728695,7.29381246662092,-3.14335851071951
1580417199.93588,11.505302510109,7.23277637903402,-0.823987182421661
1580417199.93988,10.4676890211338,6.98863202868688,1.8616006713969
1580417199.94387,9.18593118181116,6.56137941557949,4.8523689631495
1580417199.94786,7.29381246662092,6.19516289005878,7.72106507972831
1580417199.95186,5.46272983901736,5.88998245212474,10.650797283894
1580417199.95585,3.75371938658736,5.82894636453807,13.0312046997788
1580417199.95985,1.80056458381023,5.82894636453807,14.9843595025559
1580417199.96384,-0.0305180437933359,6.01205462729831,16.6933699549859
1580417199.96783,-1.61745632104976,6.19516289005878,17.9140917067216
1580417199.97183,-3.08232242313261,6.74448767833974,18.8296330205233
1580417199.97582,-4.60822461280236,7.29381246662092,19.0737773708704
1580417199.97982,-6.01205462729831,7.72106507972831,19.0737773708704
1580417199.98379,-7.41588464179449,8.02624551766235,18.7075608453497
1580417199.98779,-8.45349813076973,7.96520943007545,17.8530556191347
1580417199.99178,-9.06385900663759,7.72106507972831,16.6933699549859
1580417199.99578,-9.12489509422448,7.35484855420759,15.1064316777295
1580417199.99977,-8.94178683146401,7.17174029144735,13.1532768749523
1580417200.00376,-8.75867856870377,6.86655985351331,11.2611581597619
1580417200.00776,-8.81971465629044,6.92759594110021,9.24696726939806
1580417200.01175,-8.81971465629044,6.68345159075307,6.86655985351331
1580417200.01575,-9.06385900663759,6.37827115281902,4.42511635004189
1580417200.01974,-9.36903944457163,6.01205462729831,2.10574502174404
1580417200.02374,-9.24696726939806,5.27962157625689,-0.274662394140478
1580417200.02773,-8.69764248111687,4.48615243762879,-2.65506981002522
1580417200.03172,-7.72106507972831,3.69268329900046,-4.97444113832307
1580417200.03572,-6.01205462729831,3.26543068589308,-7.29381246662092
1580417200.03971,-3.69268329900046,3.26543068589308,-9.12489509422448
1580417200.0437,-0.885023270008332,3.44853894865332,-10.5287251087204
1580417200.0477,1.8616006713969,3.50957503624022,-11.4442664225223
1580417200.05169,4.48615243762879,3.08232242313261,-11.8715190356297
1580417200.05569,6.37827115281902,2.34988937209118,-11.9325551232166
1580417200.05968,7.53795681696806,1.49538414587619,-11.7494468604561
1580417200.06369,7.84313725490188,0.579842832074519,-11.0780498970016
1580417200.06768,7.7821011673152,0.091554131380235,-10.0404364080262
1580417200.07168,7.53795681696806,0.091554131380235,-8.94178683146401
1580417200.07567,7.7821011673152,0.762951094834762,-7.59899290455473
1580417200.07967,8.51453421835663,1.55642023346309,-6.43930724040592
1580417200.08366,9.61318379491877,2.22781719691761,-5.27962157625689
1580417200.08765,10.8339055466545,2.65506981002522,-4.42511635004189
1580417200.09165,12.0546272983902,3.02128633554594,-4.11993591210808
1580417200.09564,12.9091325246052,3.32646677347975,-4.18097199969475
1580417200.09964,13.519493400473,3.57061112382689,-5.09651331349664
1580417200.10363,13.9467460135804,3.50957503624022,-6.80552376592664
1580417200.10762,14.3129625391011,3.20439459830618,-9.00282291905091
1580417200.11162,14.373998626688,2.65506981002522,-11.505302510109
1580417200.11561,14.1298542763409,1.80056458381023,-14.1908903639276
1580417200.11961,13.2753490501259,0.70191500724809,-16.5712977798123
1580417200.1236,12.2377355611504,-0.213626306553806,-18.4634164950025
1580417200.12759,11.505302510109,-0.762951094834762,-19.8672465094987
1580417200.13159,11.0780498970016,-0.51880674448762,-20.6607156481268
1580417200.13558,10.5287251087204,0.457770656900948,-20.8438239108873
1580417200.13958,9.79629205767901,1.98367284657047,-20.7217517357137
1580417200.14355,8.94178683146401,3.57061112382689,-20.2944991226061
1580417200.14755,7.84313725490188,5.27962157625689,-19.9893186846723
1580417200.15154,6.74448767833974,6.86655985351331,-19.6841382467383
1580417200.15554,5.6458381017776,8.45349813076973,-19.0127412832837
1580417200.15953,4.36408026245522,9.73525597009234,-18.7685969329366
1580417200.16352,3.63164721141379,10.7118333714809,-18.5854886701761
1580417200.16752,3.26543068589308,11.0170138094147,-18.341344319829
1580417200.17151,3.63164721141379,11.0170138094147,-18.0971999694818
1580417200.17551,4.54718852521546,10.4066529335469,-17.792019531548
1580417200.1795,5.03547722590974,9.4300755321583,-17.3037308308537
1580417200.18349,4.97444113832307,8.14831769283592,-16.8764782177461
1580417200.18749,4.18097199969475,6.98863202868688,-16.3271534294652
1580417200.19148,2.89921416037237,5.95101853971164,-15.8999008163576
1580417200.19548,1.61745632104976,5.03547722590974,-15.3505760280766
1580417200.19947,0.70191500724809,4.30304417486832,-14.7402151522087
1580417200.20346,0.274662394140478,3.50957503624022,-14.0077821011673
1580417200.20746,0.274662394140478,2.96025024795904,-13.0312046997788
1580417200.21145,0.640878919661191,2.96025024795904,-11.8715190356297
1580417200.21545,1.67849240863666,3.08232242313261,-10.4066529335469
1580417200.21944,3.32646677347975,3.44853894865332,-8.6366063935302
1580417200.22345,5.58480201419093,4.30304417486832,-6.56137941557949
1580417200.22744,7.96520943007545,5.40169375143046,-4.18097199969475
1580417200.23144,10.2845807583733,6.56137941557949,-1.73952849622333
1580417200.23543,11.6273746852826,7.72106507972831,0.640878919661191
1580417200.23942,12.4818799114976,8.75867856870377,2.83817807278547
1580417200.24342,12.6039520866711,9.30800335698473,5.09651331349664
1580417200.24741,12.0546272983902,9.18593118181116,6.98863202868688
1580417200.25141,11.0170138094147,8.51453421835663,8.51453421835663
1580417200.2554,9.36903944457163,7.11070420386045,9.4300755321583
1580417200.25939,7.29381246662092,5.03547722590974,10.0404364080262
1580417200.26339,5.09651331349664,2.34988937209118,9.91836423285258
1580417200.26738,2.89921416037237,-0.335698481727377,9.4300755321583
1580417200.27138,0.823987182421661,-2.83817807278547,8.69764248111687
1580417200.27537,-0.823987182421661,-4.7913328755626,7.7821011673152
1580417200.27936,-1.73952849622333,-5.95101853971164,6.86655985351331
1580417200.28336,-1.67849240863666,-6.37827115281902,6.01205462729831
1580417200.28735,-0.823987182421661,-6.43930724040592,5.52376592660403
1580417200.29135,0.457770656900948,-6.43930724040592,5.09651331349664
1580417200.29534,1.98367284657047,-6.43930724040592,5.09651331349664
1580417200.29934,3.44853894865332,-6.43930724040592,5.52376592660403
1580417200.30331,5.15754940108332,-6.25619897764545,6.07309071488521
1580417200.30731,6.92759594110021,-5.95101853971164,6.92759594110021
1580417200.3113,8.45349813076973,-5.76791027695117,7.90417334248878
1580417200.3153,9.85732814526591,-5.7068741893645,9.24696726939806
1580417200.31929,11.1390859845883,-5.76791027695117,10.5897611963073
1580417200.32328,11.6273746852826,-5.88998245212474,11.9935912108033
1580417200.32728,11.3221942473488,-5.95101853971164,13.5805294880597
1580417200.33127,9.85732814526591,-6.25619897764545,15.0453955901426
1580417200.33527,7.47692072938116,-6.5003433279926,16.5102616922254
1580417200.33926,4.8523689631495,-7.17174029144735,17.792019531548
1580417200.34325,2.16678110933094,-7.84313725490188,18.9517051956968
1580417200.34725,-0.640878919661191,-8.20935378042259,20.050354772259
1580417200.35124,-2.89921416037237,-8.27038986800949,20.9658960860609
1580417200.35524,-4.54718852521546,-7.72106507972831,21.5152208743418
1580417200.35923,-5.52376592660403,-7.04966811627378,21.5762569619287
1580417200.36322,-6.19516289005878,-6.31723506523235,21.3321126115816
1580417200.36722,-6.25619897764545,-5.88998245212474,20.4165712977797
1580417200.37121,-6.13412680247188,-5.82894636453807,19.2568856336309
1580417200.37521,-5.76791027695117,-6.13412680247188,17.8530556191347
1580417200.3792,-5.21858548867021,-6.86655985351331,15.9609369039445
1580417200.38321,-4.48615243762879,-7.66002899214163,13.7636377508202
1580417200.3872,-3.63164721141379,-8.39246204318306,11.6273746852826
1580417200.3912,-3.14335851071951,-8.6366063935302,9.55214770733187
1580417200.39519,-2.7771419851988,-8.5755703059433,7.35484855420759
1580417200.39918,-2.59403372243833,-8.45349813076973,5.52376592660403
1580417200.40318,-2.53299763485165,-8.14831769283592,3.87579156176093
1580417200.40717,-2.22781719691761,-7.72106507972831,2.53299763485165
1580417200.41117,-0.946059357595232,-7.04966811627378,1.49538414587619
1580417200.41516,1.19020370794237,-5.95101853971164,0.70191500724809
1580417200.41915,3.63164721141379,-4.48615243762879,0.091554131380235
1580417200.42315,6.19516289005878,-2.7771419851988,-0.579842832074519
1580417200.42714,8.27038986800949,-1.19020370794237,-1.12916762035547
1580417200.43114,9.73525597009234,0.274662394140478,-1.73952849622333
1580417200.43513,10.5287251087204,1.19020370794237,-2.65506981002522
1580417200.43912,11.1390859845883,1.9226367589838,-3.81475547417404
1580417200.44312,11.6273746852826,2.41092545967808,-5.21858548867021
1580417200.44711,11.9325551232166,2.59403372243833,-6.56137941557949
1580417200.45111,11.8715190356297,2.7161058976119,-8.08728160524902
1580417200.4551,11.2001220721752,2.65506981002522,-9.36903944457163
1580417200.4591,9.73525597009234,2.16678110933094,-10.650797283894
1580417200.46307,7.84313725490188,1.55642023346309,-11.4442664225223
1580417200.46707,5.95101853971164,1.12916762035547,-12.0546272983902
1580417200.47106,4.8523689631495,0.823987182421661,-12.5429159990845
1580417200.47505,4.54718852521546,0.762951094834762,-12.6039520866711
1580417200.47905,4.48615243762879,1.0681315327688,-12.6039520866711
1580417200.48304,4.24200808728165,1.55642023346309,-12.5429159990845
1580417200.48704,3.99786373693451,1.98367284657047,-12.664988174258
1580417200.49103,3.87579156176093,2.53299763485165,-12.7260242618447
1580417200.49502,3.81475547417404,3.02128633554594,-12.9091325246052
1580417200.49902,4.05889982452118,3.57061112382689,-13.0312046997788
1580417200.50301,4.66926070038903,4.24200808728165,-13.3363851377126
1580417200.50701,5.58480201419093,4.66926070038903,-13.8246738384069
1580417200.511,6.43930724040592,4.7913328755626,-14.2519264515145
1580417200.51499,7.04966811627378,4.91340505073617,-14.8622873273823
1580417200.51899,7.04966811627378,4.73029678797593,-15.2895399404897
1580417200.52298,6.68345159075307,4.60822461280236,-15.5336842908368
1580417200.52698,6.25619897764545,4.54718852521546,-15.6557564660104
1580417200.53097,5.6458381017776,4.66926070038903,-15.8388647287709
1580417200.53497,5.21858548867021,5.09651331349664,-16.0219729915311
1580417200.53896,5.15754940108332,6.07309071488521,-16.2050812542916
1580417200.54294,5.76791027695117,7.17174029144735,-16.3271534294652
1580417200.54693,6.92759594110021,7.84313725490188,-16.5102616922254
1580417200.55093,7.90417334248878,8.14831769283592,-16.632333867399
1580417200.55492,8.5755703059433,8.08728160524902,-16.632333867399
1580417200.55891,8.94178683146401,7.72106507972831,-16.3271534294652
1580417200.56291,8.81971465629044,7.04966811627378,-15.6557564660104
1580417200.5669,8.51453421835663,6.31723506523235,-14.8012512397954
1580417200.5709,8.02624551766235,5.40169375143046,-13.7026016632333
