Timestamp_seconds,Accel_X_g,Accel_Y_g,Accel_Z_g
1580422672.2522,-0.981216144045167,-0.134523537041275,0.190676737621118
1580422672.2562,-0.977798123140307,-0.141847867551689,0.193606469825284
1580422672.2602,-0.981216144045167,-0.134523537041275,0.199954222934309
1580422672.26419,-0.979751277943084,-0.123292896925307,0.189211871519035
1580422672.26819,-0.978286411841001,-0.119874876020447,0.192629892423895
1580422672.27219,-0.970473792629893,-0.116456855115587,0.189211871519035
1580422672.27619,-0.963149462119478,-0.120851453421835,0.196536202029449
1580422672.28019,-0.964614328221561,-0.132570382238498,0.199465934233615
1580422672.28419,-0.96559090562295,-0.133546959639887,0.197024490730143
1580422672.28819,-0.96900892652781,-0.135500114442664,0.191653315022506
1580422672.29219,-0.961684596017395,-0.131593804837109,0.193118181124589
1580422672.29619,-0.964614328221561,-0.128175783932249,0.186282139314869
1580422672.30018,-0.960219729915313,-0.132570382238498,0.197512779430838
1580422672.30418,-0.962661173418784,-0.132570382238498,0.197024490730143
1580422672.30818,-0.965102616922255,-0.134523537041275,0.194094758525978
1580422672.31218,-0.966079194323644,-0.135011825741969,0.196536202029449
1580422672.31618,-0.968520637827115,-0.141847867551689,0.193606469825284
1580422672.32018,-0.970962081330587,-0.143801022354467,0.184817273212786
1580422672.32416,-0.974380102235447,-0.149660486762798,0.180910963607232
1580422672.32816,-0.981216144045167,-0.142336156252384,0.180910963607232
1580422672.33215,-0.988052185854887,-0.134523537041275,0.186770428015564
1580422672.33615,-0.98951705195697,-0.129640650034332,0.182864118410009
1580422672.34015,-0.988052185854887,-0.129152361333638,0.177004654001678
1580422672.34415,-0.990005340657664,-0.132570382238498,0.178469520103761
1580422672.34815,-0.991470206759747,-0.129152361333638,0.181399252307926
1580422672.35215,-0.991958495460441,-0.130617227435721,0.183352407110704
1580422672.35615,-0.993423361562524,-0.131593804837109,0.183352407110704
1580422672.36015,-0.992446784161135,-0.130128938735027,0.185793850614175
1580422672.36415,-0.986587319752804,-0.132082093537804,0.185793850614175
1580422672.36814,-0.98268101014725,-0.138429846646829,0.184328984512092
1580422672.37214,-0.987563897154192,-0.145265888456549,0.190188448920424
1580422672.37614,-0.988052185854887,-0.149172198062104,0.194094758525978
1580422672.38014,-0.98951705195697,-0.144289311055161,0.195071335927366
1580422672.38414,-0.985122453650721,-0.141847867551689,0.194094758525978
1580422672.38814,-0.981704432745861,-0.135988403143358,0.190188448920424
1580422672.39214,-0.976333257038224,-0.132570382238498,0.189700160219729
1580422672.39613,-0.974380102235447,-0.132570382238498,0.194094758525978
1580422672.40013,-0.974380102235447,-0.131105516136415,0.196536202029449
1580422672.40414,-0.976821545738918,-0.129640650034332,0.193118181124589
1580422672.40814,-0.976821545738918,-0.128664072632944,0.192141603723201
1580422672.41214,-0.976333257038224,-0.130617227435721,0.193118181124589
1580422672.41614,-0.976821545738918,-0.128664072632944,0.186770428015564
1580422672.42014,-0.96900892652781,-0.136476691844052,0.184328984512092
1580422672.42414,-0.970473792629893,-0.143312733653772,0.181399252307926
1580422672.42814,-0.969497215228504,-0.149660486762798,0.186770428015564
1580422672.43213,-0.973403524834058,-0.149172198062104,0.191165026321812
1580422672.43613,-0.97584496833753,-0.146730754558632,0.176516365300984
1580422672.44013,-0.97926298924239,-0.144289311055161,0.179934386205844
1580422672.44413,-0.97584496833753,-0.145754177157244,0.169192034790569
1580422672.44813,-0.977798123140307,-0.152590218966964,0.164309147783626
1580422672.45213,-0.975356679636835,-0.154543373769741,0.171633478294041
1580422672.45613,-0.980239566643778,-0.154543373769741,0.173098344396124
1580422672.46013,-0.988540474555581,-0.157961394674601,0.172610055695429
1580422672.46412,-0.985610742351415,-0.156984817273212,0.173586633096818
1580422672.46812,-0.987563897154192,-0.153078507667658,0.162355992980849
1580422672.47212,-0.980727855344472,-0.152590218966964,0.166750591287098
1580422672.47612,-0.985122453650721,-0.152590218966964,0.158449683375295
1580422672.48012,-0.98268101014725,-0.151613641565575,0.158449683375295
1580422672.4841,-0.984634164950027,-0.151125352864881,0.171145189593346
1580422672.4881,-0.987075608453498,-0.147219043259327,0.165285725185015
1580422672.4921,-0.985610742351415,-0.145754177157244,0.167238879987792
1580422672.4961,-0.987075608453498,-0.144289311055161,0.169680323491264
1580422672.50009,-0.985610742351415,-0.140383001449607,0.174563210498206
1580422672.50409,-0.987563897154192,-0.138429846646829,0.179446097505149
1580422672.50809,-0.98609903105211,-0.138429846646829,0.181887541008621
1580422672.51209,-0.98951705195697,-0.146242465857938,0.185305561913481
1580422672.51609,-0.986587319752804,-0.146242465857938,0.184817273212786
1580422672.52009,-0.985610742351415,-0.142824444953078,0.178957808804455
1580422672.52409,-0.985122453650721,-0.141847867551689,0.183840695811398
1580422672.52809,-0.985610742351415,-0.135500114442664,0.175539787899595
1580422672.53208,-0.987075608453498,-0.128175783932249,0.175539787899595
1580422672.53608,-0.987563897154192,-0.132570382238498,0.175051499198901
1580422672.54008,-0.986587319752804,-0.131105516136415,0.173586633096818
1580422672.54408,-0.987075608453498,-0.128175783932249,0.170656900892652
1580422672.54808,-0.986587319752804,-0.132082093537804,0.170656900892652
1580422672.55208,-0.986587319752804,-0.133546959639887,0.166750591287098
1580422672.55608,-0.98951705195697,-0.126710917830167,0.169680323491264
1580422672.56008,-0.988540474555581,-0.125734340428778,0.164309147783626
1580422672.56409,-0.98951705195697,-0.127199206530861,0.163332570382238
1580422672.56808,-0.990005340657664,-0.129152361333638,0.164797436484321
1580422672.57208,-0.98609903105211,-0.131593804837109,0.162844281681544
1580422672.57608,-0.988052185854887,-0.135500114442664,0.162844281681544
1580422672.58008,-0.986587319752804,-0.139406424048218,0.176028076600289
1580422672.58408,-0.987563897154192,-0.136964980544747,0.180910963607232
1580422672.58808,-0.993423361562524,-0.133058670939192,0.171145189593346
1580422672.59208,-0.990981918059052,-0.126710917830167,0.171633478294041
1580422672.59608,-0.987563897154192,-0.128175783932249,0.163332570382238
1580422672.60008,-0.981704432745861,-0.132082093537804,0.178469520103761
1580422672.60407,-0.984145876249332,-0.130617227435721,0.179446097505149
1580422672.60807,-0.986587319752804,-0.131105516136415,0.181399252307926
1580422672.61207,-0.990493629358358,-0.128664072632944,0.186282139314869
1580422672.61607,-0.988052185854887,-0.129152361333638,0.177004654001678
1580422672.62007,-0.98268101014725,-0.130617227435721,0.175051499198901
1580422672.62407,-0.982192721446555,-0.132082093537804,0.185793850614175
1580422672.62807,-0.984634164950027,-0.134035248340581,0.180910963607232
1580422672.63206,-0.97926298924239,-0.132570382238498,0.185305561913481
1580422672.63606,-0.980239566643778,-0.123781185626001,0.185793850614175
1580422672.64006,-0.983169298847944,-0.120851453421835,0.182864118410009
1580422672.64404,-0.983169298847944,-0.123781185626001,0.180910963607232
1580422672.64804,-0.987563897154192,-0.124269474326695,0.183840695811398
1580422672.65204,-0.990005340657664,-0.128175783932249,0.178469520103761
1580422672.65604,-0.982192721446555,-0.134523537041275,0.177004654001678
1580422672.66004,-0.988540474555581,-0.129152361333638,0.176516365300984
1580422672.66404,-0.990493629358358,-0.132570382238498,0.171633478294041
1580422672.66804,-0.99635309376669,-0.132082093537804,0.174563210498206
1580422672.67203,-0.988052185854887,-0.132082093537804,0.168215457389181
1580422672.67603,-0.990005340657664,-0.132082093537804,0.172610055695429
1580422672.68003,-0.997817959868772,-0.131593804837109,0.175051499198901
1580422672.68403,-0.992446784161135,-0.142336156252384,0.168703746089875
1580422672.68803,-0.98951705195697,-0.141847867551689,0.174563210498206
1580422672.69203,-0.996841382467384,-0.132570382238498,0.168703746089875
1580422672.69603,-0.993911650263218,-0.131105516136415,0.153078507667658
1580422672.70002,-0.985610742351415,-0.130617227435721,0.146242465857938
1580422672.70402,-0.988052185854887,-0.130128938735027,0.138918135347524
1580422672.70802,-0.98609903105211,-0.135011825741969,0.144777599755855
1580422672.71202,-0.984145876249332,-0.135500114442664,0.149172198062104
1580422672.71602,-0.984145876249332,-0.133058670939192,0.151125352864881
1580422672.72002,-0.987563897154192,-0.129152361333638,0.158937972075989
1580422672.72403,-0.98609903105211,-0.131105516136415,0.152590218966964
1580422672.72803,-0.98268101014725,-0.135500114442664,0.158449683375295
1580422672.73203,-0.987563897154192,-0.144289311055161,0.168215457389181
1580422672.73602,-0.993423361562524,-0.149172198062104,0.177004654001678
1580422672.74002,-0.99293507286183,-0.158449683375295,0.187747005416952
1580422672.74402,-0.991958495460441,-0.165774013885709,0.198001068131532
1580422672.74802,-0.989028763256275,-0.166750591287098,0.191165026321812
1580422672.75202,-0.991958495460441,-0.168703746089875,0.192629892423895
1580422672.75602,-0.984634164950027,-0.167238879987792,0.185793850614175
1580422672.76002,-0.98268101014725,-0.164797436484321,0.185793850614175
1580422672.76402,-0.982192721446555,-0.152590218966964,0.186770428015564
1580422672.76801,-0.978774700541695,-0.145754177157244,0.184817273212786
1580422672.77201,-0.980239566643778,-0.144777599755855,0.184328984512092
1580422672.77601,-0.981216144045167,-0.146242465857938,0.187258716716258
1580422672.78001,-0.986587319752804,-0.147219043259327,0.174563210498206
1580422672.78401,-0.981704432745861,-0.153566796368352,0.180910963607232
1580422672.78801,-0.988540474555581,-0.145265888456549,0.197024490730143
1580422672.79201,-0.985610742351415,-0.146242465857938,0.199954222934309
1580422672.79601,-0.987075608453498,-0.142824444953078,0.205813687342641
1580422672.80001,-0.984145876249332,-0.150148775463492,0.197512779430838
1580422672.80398,-0.979751277943084,-0.159426260776684,0.200930800335698
1580422672.80798,-0.984145876249332,-0.168215457389181,0.205813687342641
1580422672.81198,-0.980727855344472,-0.173098344396124,0.209231708247501
1580422672.81598,-0.973891813534753,-0.174074921797512,0.206790264744029
1580422672.81998,-0.974380102235447,-0.163332570382238,0.212649729152361
1580422672.82398,-0.965102616922255,-0.167238879987792,0.198489356832226
1580422672.82798,-0.96559090562295,-0.170168612191958,0.200930800335698
1580422672.83198,-0.967055771725033,-0.165285725185015,0.206790264744029
1580422672.83597,-0.963637750820173,-0.165774013885709,0.203860532539863
1580422672.83997,-0.962661173418784,-0.166750591287098,0.203860532539863
1580422672.84397,-0.961684596017395,-0.161867704280155,0.195071335927366
1580422672.84797,-0.954848554207675,-0.170168612191958,0.203372243839169
1580422672.85197,-0.956313420309758,-0.171633478294041,0.205325398641946
1580422672.85597,-0.953871976806287,-0.176516365300984,0.205813687342641
1580422672.85997,-0.959731441214618,-0.186282139314869,0.217532616159303
1580422672.86397,-0.949477378500038,-0.193118181124589,0.209719996948195
1580422672.86796,-0.94850080109865,-0.194094758525978,0.209719996948195
1580422672.87196,-0.954360265506981,-0.196047913328755,0.201907377737086
1580422672.87596,-0.951430533302815,-0.201907377737086,0.199465934233615
1580422672.87996,-0.950453955901427,-0.208255130846112,0.200442511635003
1580422672.88397,-0.950453955901427,-0.206790264744029,0.197024490730143
1580422672.88797,-0.958266575112535,-0.201419089036392,0.198489356832226
1580422672.89197,-0.958266575112535,-0.198977645532921,0.198001068131532
1580422672.89597,-0.959731441214618,-0.198977645532921,0.197024490730143
1580422672.89997,-0.961196307316701,-0.194094758525978,0.196536202029449
1580422672.90397,-0.952895399404898,-0.195559624628061,0.198001068131532
1580422672.90796,-0.956313420309758,-0.196536202029449,0.193118181124589
1580422672.91196,-0.954848554207675,-0.198489356832226,0.193118181124589
1580422672.91596,-0.953871976806287,-0.193606469825284,0.197024490730143
1580422672.91996,-0.95533684290837,-0.189700160219729,0.188723582818341
1580422672.92396,-0.953871976806287,-0.195559624628061,0.189700160219729
1580422672.92796,-0.960708018616007,-0.193606469825284,0.186282139314869
1580422672.93196,-0.960708018616007,-0.194094758525978,0.192141603723201
1580422672.93596,-0.954848554207675,-0.196536202029449,0.191653315022506
1580422672.93995,-0.954848554207675,-0.193118181124589,0.191653315022506
1580422672.94395,-0.959243152513924,-0.192629892423895,0.197512779430838
1580422672.94795,-0.960219729915313,-0.181887541008621,0.208743419546806
1580422672.95195,-0.962661173418784,-0.173098344396124,0.200930800335698
1580422672.95595,-0.96559090562295,-0.173586633096818,0.200442511635003
1580422672.95995,-0.969985503929198,-0.176516365300984,0.201419089036392
1580422672.96393,-0.970962081330587,-0.183352407110704,0.195071335927366
1580422672.96793,-0.974868390936141,-0.187258716716258,0.199954222934309
1580422672.97193,-0.976821545738918,-0.188235294117646,0.202395666437781
1580422672.97592,-0.975356679636835,-0.183352407110704,0.204348821240558
1580422672.97992,-0.97926298924239,-0.177492942702372,0.200930800335698
1580422672.98392,-0.978286411841001,-0.177492942702372,0.195071335927366
1580422672.98792,-0.979751277943084,-0.185793850614175,0.198489356832226
1580422672.99192,-0.983657587548638,-0.188723582818341,0.198489356832226
1580422672.99592,-0.985610742351415,-0.193118181124589,0.200442511635003
1580422672.99992,-0.98609903105211,-0.191653315022506,0.198977645532921
1580422673.00391,-0.985122453650721,-0.188235294117646,0.202883955138475
1580422673.00791,-0.983169298847944,-0.187258716716258,0.198001068131532
1580422673.01191,-0.983657587548638,-0.183840695811398,0.196047913328755
1580422673.01591,-0.984145876249332,-0.180910963607232,0.195071335927366
1580422673.01991,-0.983169298847944,-0.180910963607232,0.202883955138475
1580422673.02391,-0.987563897154192,-0.180910963607232,0.202883955138475
1580422673.02791,-0.98609903105211,-0.182375829709315,0.202395666437781
1580422673.03191,-0.98268101014725,-0.182864118410009,0.208743419546806
1580422673.0359,-0.981704432745861,-0.180910963607232,0.210696574349583
1580422673.0399,-0.979751277943084,-0.178957808804455,0.206790264744029
1580422673.04391,-0.977309834439613,-0.183352407110704,0.200930800335698
1580422673.04791,-0.97242694743267,-0.181887541008621,0.198489356832226
1580422673.05191,-0.970962081330587,-0.180910963607232,0.199954222934309
1580422673.05591,-0.969985503929198,-0.180422674906538,0.201419089036392
1580422673.05991,-0.968032349126421,-0.180422674906538,0.199954222934309
1580422673.06391,-0.968032349126421,-0.183352407110704,0.195071335927366
1580422673.06791,-0.966079194323644,-0.181399252307926,0.196047913328755
1580422673.07191,-0.962661173418784,-0.185305561913481,0.191165026321812
1580422673.0759,-0.96559090562295,-0.187747005416952,0.192629892423895
1580422673.0799,-0.960219729915313,-0.190188448920424,0.183352407110704
1580422673.0839,-0.95533684290837,-0.196536202029449,0.188235294117646
1580422673.0879,-0.956313420309758,-0.197024490730143,0.184817273212786
1580422673.0919,-0.95191882200351,-0.189211871519035,0.188235294117646
1580422673.0959,-0.95191882200351,-0.189211871519035,0.184817273212786
1580422673.0999,-0.952895399404898,-0.190676737621118,0.182864118410009
1580422673.1039,-0.952895399404898,-0.190676737621118,0.182375829709315
1580422673.10789,-0.953871976806287,-0.188723582818341,0.186770428015564
1580422673.11189,-0.957289997711147,-0.189700160219729,0.188723582818341
1580422673.11589,-0.95533684290837,-0.186282139314869,0.188235294117646
1580422673.11989,-0.955825131609064,-0.185305561913481,0.190188448920424
1580422673.12387,-0.958266575112535,-0.188723582818341,0.192141603723201
1580422673.12787,-0.959243152513924,-0.188723582818341,0.201419089036392
1580422673.13187,-0.960708018616007,-0.185793850614175,0.199954222934309
1580422673.13587,-0.966079194323644,-0.187258716716258,0.198001068131532
1580422673.13987,-0.96900892652781,-0.194094758525978,0.209231708247501
1580422673.14386,-0.969497215228504,-0.196047913328755,0.198977645532921
1580422673.14786,-0.973891813534753,-0.199954222934309,0.194583047226672
1580422673.15186,-0.974868390936141,-0.204837109941252,0.194583047226672
1580422673.15586,-0.974868390936141,-0.205813687342641,0.185793850614175
1580422673.15986,-0.976821545738918,-0.207766842145418,0.190676737621118
1580422673.16386,-0.978286411841001,-0.200930800335698,0.191165026321812
1580422673.16786,-0.978286411841001,-0.200442511635003,0.184817273212786
1580422673.17186,-0.974868390936141,-0.197512779430838,0.184817273212786
1580422673.17585,-0.974380102235447,-0.200442511635003,0.185305561913481
1580422673.17985,-0.973403524834058,-0.203860532539863,0.176028076600289
1580422673.18385,-0.965102616922255,-0.199954222934309,0.178957808804455
1580422673.18785,-0.965102616922255,-0.193606469825284,0.175051499198901
1580422673.19185,-0.963149462119478,-0.188235294117646,0.171633478294041
1580422673.19585,-0.953383688105593,-0.184328984512092,0.172610055695429
1580422673.19985,-0.953871976806287,-0.183840695811398,0.167727168688486
1580422673.20386,-0.953383688105593,-0.181399252307926,0.170656900892652
1580422673.20786,-0.95533684290837,-0.181887541008621,0.168703746089875
1580422673.21185,-0.955825131609064,-0.181399252307926,0.166750591287098
1580422673.21585,-0.955825131609064,-0.182864118410009,0.165285725185015
1580422673.21985,-0.957778286411841,-0.184328984512092,0.168215457389181
1580422673.22385,-0.958266575112535,-0.182375829709315,0.168703746089875
1580422673.22785,-0.964614328221561,-0.183840695811398,0.172610055695429
1580422673.23185,-0.967544060425727,-0.181887541008621,0.176028076600289
1580422673.23585,-0.971938658731975,-0.180422674906538,0.177492942702372
1580422673.23985,-0.975356679636835,-0.181399252307926,0.180422674906538
1580422673.24384,-0.975356679636835,-0.181887541008621,0.174563210498206
1580422673.24784,-0.978774700541695,-0.189700160219729,0.182864118410009
1580422673.25184,-0.978286411841001,-0.186282139314869,0.177492942702372
1580422673.25584,-0.977309834439613,-0.179934386205844,0.180910963607232
1580422673.25984,-0.975356679636835,-0.172610055695429,0.177004654001678
1580422673.26384,-0.97242694743267,-0.167727168688486,0.169680323491264
1580422673.26784,-0.970473792629893,-0.170168612191958,0.174563210498206
1580422673.27184,-0.977309834439613,-0.167727168688486,0.172610055695429
1580422673.27584,-0.977309834439613,-0.176516365300984,0.169192034790569
1580422673.27983,-0.978774700541695,-0.179934386205844,0.175539787899595
1580422673.28381,-0.979751277943084,-0.178469520103761,0.174074921797512
1580422673.28781,-0.974868390936141,-0.178469520103761,0.177981231403066
1580422673.29181,-0.977309834439613,-0.173098344396124,0.185305561913481
1580422673.29581,-0.974868390936141,-0.166262302586404,0.182375829709315
1580422673.29981,-0.972915236133364,-0.164309147783626,0.179934386205844
1580422673.30381,-0.973403524834058,-0.163820859082932,0.178957808804455
1580422673.30781,-0.972915236133364,-0.156984817273212,0.179934386205844
1580422673.3118,-0.973403524834058,-0.156984817273212,0.181399252307926
1580422673.3158,-0.975356679636835,-0.153078507667658,0.181887541008621
1580422673.3198,-0.97584496833753,-0.147707331960021,0.173098344396124
1580422673.3238,-0.976821545738918,-0.143801022354467,0.177981231403066
1580422673.3278,-0.977309834439613,-0.138918135347524,0.181887541008621
1580422673.3318,-0.979751277943084,-0.135500114442664,0.174563210498206
1580422673.3358,-0.987563897154192,-0.138918135347524,0.182375829709315
1580422673.3398,-0.985610742351415,-0.141847867551689,0.184817273212786
1580422673.34379,-0.988540474555581,-0.144777599755855,0.184328984512092
1580422673.34779,-0.990005340657664,-0.146730754558632,0.183840695811398
1580422673.35179,-0.988052185854887,-0.142336156252384,0.177492942702372
1580422673.35579,-0.991470206759747,-0.144777599755855,0.177492942702372
1580422673.35979,-0.98951705195697,-0.142824444953078,0.177492942702372
1580422673.3638,-0.99293507286183,-0.137453269245441,0.175539787899595
1580422673.3678,-0.991958495460441,-0.127687495231555,0.173586633096818
1580422673.3718,-0.991958495460441,-0.121828030823224,0.175539787899595
1580422673.3758,-0.993423361562524,-0.118410009918364,0.174563210498206
1580422673.37979,-0.99293507286183,-0.11792172121767,0.179934386205844
1580422673.38379,-0.99293507286183,-0.118410009918364,0.176028076600289
1580422673.38779,-0.995376516365301,-0.120363164721141,0.177492942702372
1580422673.39179,-0.993911650263218,-0.12475776302739,0.174563210498206
1580422673.39579,-0.99293507286183,-0.131105516136415,0.176516365300984
1580422673.39979,-0.993423361562524,-0.128664072632944,0.176028076600289
1580422673.40379,-0.990005340657664,-0.125246051728084,0.179934386205844
1580422673.40779,-0.990005340657664,-0.132082093537804,0.176516365300984
1580422673.41178,-0.987075608453498,-0.126710917830167,0.176516365300984
1580422673.41578,-0.986587319752804,-0.126710917830167,0.177004654001678
1580422673.41978,-0.981704432745861,-0.123781185626001,0.173098344396124
1580422673.42378,-0.980727855344472,-0.12133974212253,0.173586633096818
1580422673.42778,-0.976821545738918,-0.116456855115587,0.168215457389181
1580422673.43178,-0.976821545738918,-0.11792172121767,0.175051499198901
1580422673.43578,-0.974868390936141,-0.114991989013504,0.172610055695429
1580422673.43978,-0.971938658731975,-0.113038834210727,0.174074921797512
1580422673.44376,-0.966079194323644,-0.112062256809338,0.176028076600289
1580422673.44775,-0.959243152513924,-0.109620813305867,0.174074921797512
1580422673.45175,-0.958266575112535,-0.103273060196841,0.178469520103761
1580422673.45575,-0.957778286411841,-0.0920424200808725,0.182864118410009
1580422673.45975,-0.957778286411841,-0.0866712443732354,0.177004654001678
1580422673.46375,-0.95875486381323,-0.0896009765774011,0.174563210498206
1580422673.46775,-0.964614328221561,-0.096437018387121,0.175539787899595
1580422673.47175,-0.976333257038224,-0.105714503700312,0.178469520103761
1580422673.47575,-0.978774700541695,-0.106202792401007,0.173586633096818
1580422673.47974,-0.987563897154192,-0.106202792401007,0.176028076600289
1580422673.48374,-0.998794537270161,-0.106691081101701,0.185793850614175
1580422673.48774,-1.01002517738613,-0.113527122911421,0.175539787899595
1580422673.49174,-1.01783779659724,-0.126222629129472,0.170656900892652
1580422673.49574,-1.02174410620279,-0.143801022354467,0.173098344396124
1580422673.49974,-1.02516212710765,-0.155519951171129,0.171633478294041
1580422673.50374,-1.02272068360418,-0.161379415579461,0.176028076600289
1580422673.50774,-1.01783779659724,-0.165285725185015,0.171145189593346
1580422673.51173,-1.00904859998474,-0.162844281681544,0.177004654001678
1580422673.51573,-1.00221255817502,-0.155519951171129,0.180422674906538
1580422673.51973,-0.991958495460441,-0.149660486762798,0.181399252307926
1580422673.52374,-0.980239566643778,-0.149660486762798,0.184328984512092
1580422673.52774,-0.96900892652781,-0.148195620660715,0.183840695811398
1580422673.53174,-0.959243152513924,-0.149172198062104,0.188723582818341
1580422673.53574,-0.950942244602121,-0.150637064164187,0.194094758525978
1580422673.53974,-0.938735027084764,-0.148683909361409,0.188235294117646
1580422673.54374,-0.930434119172961,-0.156496528572518,0.192141603723201
1580422673.54773,-0.930922407873656,-0.155519951171129,0.197024490730143
1580422673.55173,-0.933363851377127,-0.155031662470435,0.189700160219729
1580422673.55573,-0.935805294880598,-0.154543373769741,0.192141603723201
1580422673.55973,-0.937758449683376,-0.154055085069047,0.185305561913481
1580422673.56373,-0.94166475928893,-0.150637064164187,0.186282139314869
1580422673.56773,-0.943617914091707,-0.148683909361409,0.192629892423895
1580422673.57173,-0.951430533302815,-0.130128938735027,0.204837109941252
1580422673.57573,-0.959731441214618,-0.119386587319752,0.186282139314869
1580422673.57973,-0.968520637827115,-0.127687495231555,0.170656900892652
1580422673.58372,-0.977309834439613,-0.156984817273212,0.163332570382238
1580422673.58772,-0.988540474555581,-0.187747005416952,0.155519951171129
1580422673.59172,-1.00025940337224,-0.206301976043335,0.157961394674601
1580422673.59572,-1.01100175478752,-0.217532616159303,0.146730754558632
1580422673.59972,-1.01881437399863,-0.228763256275272,0.137941557946135
1580422673.6037,-1.01832608529793,-0.23657587548638,0.139406424048218
1580422673.6077,-1.01490806439307,-0.240970473792629,0.137941557946135
1580422673.6117,-1.00660715648127,-0.247318226901655,0.135988403143358
1580422673.61569,-0.992446784161135,-0.250247959105822,0.133546959639887
1580422673.61969,-0.984145876249332,-0.249271381704432,0.128175783932249
1580422673.62369,-0.970473792629893,-0.237552452887769,0.137941557946135
1580422673.62769,-0.967055771725033,-0.229251544975966,0.133546959639887
1580422673.63169,-0.964126039520867,-0.23657587548638,0.131593804837109
1580422673.63569,-0.960708018616007,-0.255619134813459,0.124269474326695
1580422673.63969,-0.964614328221561,-0.275638971541925,0.118898298619058
1580422673.64369,-0.96900892652781,-0.287846189059282,0.133058670939192
1580422673.64768,-0.974380102235447,-0.286381322957199,0.140383001449607
1580422673.65168,-0.975356679636835,-0.283939879453728,0.141359578850995
1580422673.65568,-0.967544060425727,-0.274662394140536,0.147707331960021
1580422673.65968,-0.959243152513924,-0.261478599221791,0.153566796368352
1580422673.66368,-0.949477378500038,-0.254154268711376,0.150637064164187
1580422673.66768,-0.941176470588236,-0.235599298084992,0.163332570382238
1580422673.67168,-0.944594491493095,-0.199954222934309,0.181399252307926
1580422673.67568,-0.950453955901427,-0.171145189593346,0.177492942702372
1580422673.67967,-0.950942244602121,-0.152590218966964,0.155031662470435
1580422673.68368,-0.956313420309758,-0.151125352864881,0.146730754558632
1580422673.68768,-0.972915236133364,-0.159914549477378,0.160891126878766
1580422673.69168,-0.997329671168078,-0.165774013885709,0.181399252307926
1580422673.69568,-1.02320897230488,-0.166750591287098,0.201907377737086
1580422673.69968,-1.04762340733959,-0.156984817273212,0.205325398641946
1580422673.70368,-1.05983062485695,-0.155519951171129,0.190188448920424
1580422673.70768,-1.05738918135348,-0.156008239871824,0.173586633096818
1580422673.71168,-1.04908827344167,-0.154543373769741,0.171633478294041
1580422673.71567,-1.04322880903334,-0.138429846646829,0.176516365300984
1580422673.71967,-1.03199816891737,-0.124269474326695,0.176028076600289
1580422673.72367,-1.01930266269932,-0.12475776302739,0.168703746089875
1580422673.72767,-1.01100175478752,-0.12475776302739,0.171145189593346
1580422673.73167,-1.00563057907988,-0.12475776302739,0.178957808804455
1580422673.73567,-1.00221255817502,-0.122804608224612,0.180910963607232
1580422673.73967,-0.995864805065995,-0.123781185626001,0.177981231403066
1580422673.74367,-0.994399938963912,-0.122316319523918,0.173586633096818
1580422673.74766,-0.988052185854887,-0.129152361333638,0.166262302586404
1580422673.75166,-0.987563897154192,-0.141847867551689,0.166262302586404
1580422673.75566,-0.991470206759747,-0.154055085069047,0.156496528572518
1580422673.75966,-0.99635309376669,-0.155519951171129,0.152101930266269
1580422673.76364,-1.00563057907988,-0.151125352864881,0.161379415579461
1580422673.76764,-1.00904859998474,-0.152590218966964,0.147219043259327
1580422673.77164,-1.00758373388266,-0.161379415579461,0.140871290150301
1580422673.77564,-1.0036774242771,-0.180910963607232,0.151125352864881
1580422673.77964,-1.0041657129778,-0.200442511635003,0.153078507667658
1580422673.78363,-1.00074769207294,-0.204348821240558,0.169680323491264
1580422673.78763,-0.99293507286183,-0.203372243839169,0.168703746089875
1580422673.79163,-0.986587319752804,-0.185793850614175,0.177492942702372
1580422673.79563,-0.978286411841001,-0.179446097505149,0.165285725185015
1580422673.79963,-0.962661173418784,-0.177492942702372,0.157961394674601
1580422673.80363,-0.954360265506981,-0.177492942702372,0.156008239871824
1580422673.80763,-0.950453955901427,-0.180422674906538,0.158449683375295
1580422673.81163,-0.952407110704204,-0.178957808804455,0.158937972075989
1580422673.81562,-0.958266575112535,-0.177981231403066,0.167727168688486
1580422673.81962,-0.966079194323644,-0.177492942702372,0.175051499198901
1580422673.82362,-0.966079194323644,-0.177981231403066,0.185305561913481
1580422673.82762,-0.964126039520867,-0.174074921797512,0.189700160219729
1580422673.83162,-0.961196307316701,-0.169680323491264,0.187747005416952
1580422673.83562,-0.956313420309758,-0.166262302586404,0.188235294117646
1580422673.83962,-0.954360265506981,-0.159914549477378,0.190188448920424
1580422673.84363,-0.950453955901427,-0.156496528572518,0.186770428015564
1580422673.84763,-0.952895399404898,-0.164309147783626,0.184328984512092
1580422673.85162,-0.958266575112535,-0.176516365300984,0.190188448920424
1580422673.85562,-0.960708018616007,-0.186770428015564,0.188723582818341
1580422673.85962,-0.967544060425727,-0.196536202029449,0.191165026321812
1580422673.86362,-0.966567483024338,-0.197024490730143,0.181887541008621
1580422673.86762,-0.959731441214618,-0.201419089036392,0.183840695811398
1580422673.87162,-0.953383688105593,-0.200930800335698,0.177004654001678
1580422673.87562,-0.95191882200351,-0.196536202029449,0.171633478294041
1580422673.87962,-0.952895399404898,-0.194583047226672,0.173098344396124
1580422673.88362,-0.956313420309758,-0.196536202029449,0.176028076600289
1580422673.88761,-0.95875486381323,-0.203860532539863,0.173098344396124
1580422673.89161,-0.963149462119478,-0.208255130846112,0.172121766994735
1580422673.89561,-0.963149462119478,-0.214114595254443,0.170656900892652
1580422673.89961,-0.96559090562295,-0.213626306553749,0.166750591287098
1580422673.90361,-0.962661173418784,-0.207278553444723,0.160891126878766
1580422673.90761,-0.958266575112535,-0.194094758525978,0.158937972075989
1580422673.91161,-0.954360265506981,-0.190188448920424,0.158937972075989
1580422673.9156,-0.956801709010453,-0.184328984512092,0.158449683375295
1580422673.9196,-0.962661173418784,-0.185305561913481,0.159914549477378
1580422673.92358,-0.968520637827115,-0.182864118410009,0.164309147783626
1580422673.92758,-0.973403524834058,-0.188235294117646,0.169680323491264
1580422673.93158,-0.974380102235447,-0.199465934233615,0.164309147783626
1580422673.93558,-0.976821545738918,-0.205325398641946,0.161379415579461
1580422673.93958,-0.977309834439613,-0.211673151750972,0.166262302586404
1580422673.94358,-0.984634164950027,-0.213626306553749,0.172121766994735
1580422673.94758,-0.984634164950027,-0.216556038757915,0.178469520103761
1580422673.95158,-0.98609903105211,-0.220950637064163,0.175051499198901
1580422673.95557,-0.983657587548638,-0.228763256275272,0.176516365300984
1580422673.95957,-0.977798123140307,-0.234134431982909,0.174563210498206
1580422673.96357,-0.968520637827115,-0.232181277180132,0.173586633096818
1580422673.96757,-0.962661173418784,-0.230716411078049,0.173098344396124
1580422673.97157,-0.95191882200351,-0.228763256275272,0.174074921797512
1580422673.97557,-0.950942244602121,-0.226321812771801,0.173586633096818
1580422673.97957,-0.94850080109865,-0.223392080567635,0.176028076600289
1580422673.98356,-0.949477378500038,-0.223392080567635,0.188235294117646
1580422673.98756,-0.952407110704204,-0.219485770962081,0.192629892423895
1580422673.99156,-0.95533684290837,-0.215579461356526,0.187258716716258
1580422673.99556,-0.956801709010453,-0.217532616159303,0.174563210498206
1580422673.99956,-0.956801709010453,-0.220462348363469,0.177492942702372
1580422674.00357,-0.957289997711147,-0.221927214465552,0.178957808804455
1580422674.00757,-0.95533684290837,-0.221438925764858,0.181399252307926
1580422674.01157,-0.961684596017395,-0.216067750057221,0.192141603723201
1580422674.01557,-0.963637750820173,-0.206301976043335,0.192141603723201
1580422674.01956,-0.96900892652781,-0.202395666437781,0.188235294117646
1580422674.02356,-0.967544060425727,-0.192141603723201,0.182375829709315
1580422674.02756,-0.965102616922255,-0.185793850614175,0.181399252307926
1580422674.03156,-0.963637750820173,-0.179934386205844,0.177004654001678
1580422674.03556,-0.963149462119478,-0.179446097505149,0.167727168688486
1580422674.03956,-0.96559090562295,-0.170656900892652,0.178957808804455
1580422674.04356,-0.972915236133364,-0.158449683375295,0.184817273212786
1580422674.04756,-0.97926298924239,-0.142336156252384,0.180910963607232
1580422674.05155,-0.981704432745861,-0.131105516136415,0.168215457389181
1580422674.05555,-0.978286411841001,-0.140871290150301,0.157961394674601
1580422674.05955,-0.982192721446555,-0.145265888456549,0.149660486762798
1580422674.06355,-0.994888227664607,-0.135500114442664,0.179446097505149
1580422674.06755,-1.01393148699168,-0.113527122911421,0.189700160219729
1580422674.07155,-1.0207675288014,-0.101808194094758,0.171145189593346
1580422674.07555,-1.0212558175021,-0.123781185626001,0.149660486762798
1580422674.07955,-1.01979095140002,-0.160402838178072,0.143312733653772
1580422674.08353,-1.01686121919585,-0.187747005416952,0.146242465857938
1580422674.08752,-1.0207675288014,-0.203860532539863,0.155519951171129
1580422674.09152,-1.02174410620279,-0.211673151750972,0.164797436484321
1580422674.09552,-1.0207675288014,-0.207766842145418,0.172121766994735
1580422674.09952,-1.01539635309377,-0.205325398641946,0.176516365300984
1580422674.10352,-1.0041657129778,-0.198001068131532,0.175051499198901
1580422674.10752,-0.985122453650721,-0.200930800335698,0.178469520103761
1580422674.11152,-0.970473792629893,-0.208743419546806,0.172121766994735
1580422674.11552,-0.964126039520867,-0.211184863050278,0.174074921797512
1580422674.11951,-0.957778286411841,-0.212161440451666,0.179446097505149
1580422674.12351,-0.956313420309758,-0.218509193560692,0.181887541008621
1580422674.12751,-0.94850080109865,-0.227298390173189,0.182864118410009
1580422674.13151,-0.94850080109865,-0.230716411078049,0.186770428015564
1580422674.13551,-0.955825131609064,-0.232181277180132,0.189700160219729
1580422674.13951,-0.961684596017395,-0.224856946669718,0.185793850614175
1580422674.14351,-0.962661173418784,-0.220950637064163,0.170656900892652
1580422674.14751,-0.960708018616007,-0.220950637064163,0.165285725185015
1580422674.1515,-0.96217288471809,-0.214114595254443,0.162355992980849
1580422674.1555,-0.967544060425727,-0.212649729152361,0.158937972075989
1580422674.1595,-0.973403524834058,-0.204348821240558,0.168703746089875
1580422674.16351,-0.980239566643778,-0.195071335927366,0.165774013885709
1580422674.16751,-0.980239566643778,-0.193118181124589,0.163820859082932
1580422674.17151,-0.981704432745861,-0.190188448920424,0.163332570382238
1580422674.17551,-0.981704432745861,-0.194094758525978,0.160891126878766
1580422674.17951,-0.984634164950027,-0.196536202029449,0.159426260776684
1580422674.18351,-0.98268101014725,-0.201907377737086,0.153566796368352
1580422674.18751,-0.984634164950027,-0.201907377737086,0.143801022354467
1580422674.1915,-0.983657587548638,-0.202883955138475,0.137453269245441
1580422674.1955,-0.990005340657664,-0.198489356832226,0.137453269245441
1580422674.1995,-0.994399938963912,-0.197512779430838,0.137941557946135
1580422674.2035,-1.00123598077363,-0.195559624628061,0.145265888456549
1580422674.2075,-1.00318913557641,-0.189700160219729,0.144777599755855
1580422674.2115,-1.00660715648127,-0.185305561913481,0.156496528572518
1580422674.2155,-1.00611886778058,-0.175051499198901,0.163332570382238
1580422674.21949,-1.00074769207294,-0.173586633096818,0.161379415579461
1580422674.22349,-0.993423361562524,-0.174563210498206,0.155031662470435
1580422674.22749,-0.988540474555581,-0.183840695811398,0.144777599755855
1580422674.23149,-0.985122453650721,-0.192141603723201,0.146242465857938
1580422674.23549,-0.981704432745861,-0.197024490730143,0.142824444953078
1580422674.23949,-0.974380102235447,-0.197512779430838,0.148195620660715
1580422674.24347,-0.966567483024338,-0.198489356832226,0.151125352864881
1580422674.24747,-0.966567483024338,-0.195559624628061,0.164309147783626
1580422674.25147,-0.965102616922255,-0.193118181124589,0.162844281681544
1580422674.25547,-0.968032349126421,-0.187258716716258,0.157473105973907
1580422674.25946,-0.97584496833753,-0.178957808804455,0.145754177157244
1580422674.26346,-0.98268101014725,-0.166750591287098,0.150148775463492
1580422674.26746,-0.990005340657664,-0.151125352864881,0.156496528572518
1580422674.27146,-0.984634164950027,-0.148683909361409,0.139894712748912
1580422674.27546,-0.985122453650721,-0.146242465857938,0.149660486762798
1580422674.27946,-0.987075608453498,-0.134035248340581,0.147707331960021
1580422674.28346,-0.997817959868772,-0.119874876020447,0.155031662470435
1580422674.28745,-1.01149004348821,-0.10766765850309,0.149660486762798
1580422674.29145,-1.01539635309377,-0.106202792401007,0.143312733653772
1580422674.29545,-1.02369726100557,-0.102296482795452,0.123781185626001
1580422674.29945,-1.04176394293126,-0.0896009765774011,0.116945143816281
1580422674.30345,-1.06276035706111,-0.0646982528419926,0.105226214999618
1580422674.30745,-1.072526131075,-0.041260395208667,0.101808194094758
1580422674.31145,-1.08766308079652,-0.0358892195010299,0.099855039291981
1580422674.31545,-1.1062180514229,-0.0437018387121384,0.103761348897535
1580422674.31944,-1.13502708476387,-0.0651865415426869,0.0935072861829553
1580422674.32345,-1.16090638590066,-0.10083161669337,0.0593270771343555
1580422674.32745,-1.16725413900969,-0.134523537041275,0.0158693827725642
1580422674.33145,-1.1579766536965,-0.165285725185015,-0.00854505226214997
1580422674.33545,-1.14576943617914,-0.168215457389181,-0.00708018616006711
1580422674.33945,-1.13502708476387,-0.145754177157244,-0.0104982070649271
1580422674.34345,-1.12916762035553,-0.126710917830167,-0.0222171358815899
1580422674.34745,-1.13990997177081,-0.115968566414892,-0.0432135500114441
1580422674.35145,-1.15846494239719,-0.129152361333638,-0.0681162737468526
1580422674.35544,-1.17555504692149,-0.144289311055161,-0.0734874494544897
1580422674.35944,-1.19362172884718,-0.145754177157244,-0.0847180895704582
1580422674.36344,-1.18532082093538,-0.151613641565575,-0.132082093537804
1580422674.36744,-1.17116044861524,-0.163820859082932,-0.170168612191958
1580422674.37144,-1.16871900511177,-0.170168612191958,-0.209231708247501
1580422674.37544,-1.16725413900969,-0.177492942702372,-0.268314641031511
1580422674.37944,-1.17018387121385,-0.195559624628061,-0.298588540474556
1580422674.38344,-1.16823071641108,-0.222903791866941,-0.322514686808576
1580422674.38744,-1.16383611810483,-0.266361486228734,-0.32983901731899
1580422674.39143,-1.16530098420691,-0.311772335393302,-0.34351110093843
1580422674.39543,-1.19264515144579,-0.321049820706493,-0.332280460822462
1580422674.39943,-1.23610284580758,-0.298588540474556,-0.297123674372473
1580422674.40341,-1.25514610513466,-0.293217364766919,-0.286381322957199
1580422674.40741,-1.26735332265202,-0.319096665903716,-0.274174105439842
1580422674.41141,-1.29079118028534,-0.353276874952316,-0.230228122377355
1580422674.41541,-1.32252994583047,-0.380132753490502,-0.184328984512092
1580422674.41941,-1.33669031815061,-0.433356221866179,-0.182864118410009
1580422674.4234,-1.34694438086519,-0.50757610437171,-0.165285725185015
1580422674.4274,-1.35378042267491,-0.583749141680018,-0.165774013885709
1580422674.4314,-1.36940566109712,-0.634042877851529,-0.188235294117646
1580422674.4354,-1.38356603341726,-0.644296940566109,-0.198489356832226
1580422674.4394,-1.38649576562142,-0.603280689707789,-0.218997482261386
1580422674.4434,-1.35280384527352,-0.546150911726558,-0.275638971541925
1580422674.4474,-1.28981460288396,-0.499275196459907,-0.356694895857176
1580422674.4514,-1.21071183337148,-0.485603112840467,-0.420172426947433
1580422674.45539,-1.12965590905623,-0.511970702677958,-0.451422903791867
1580422674.45939,-1.0891279468986,-0.555916685740444,-0.464118410009918
1580422674.46339,-1.10963607232776,-0.561776150148775,-0.46997787441825
1580422674.46739,-1.14723430228122,-0.503181506065461,-0.458258945601587
1580422674.47139,-1.15651178759441,-0.390386816205082,-0.424078736552987
1580422674.47539,-1.12867933165484,-0.244876783398183,-0.416754406042573
1580422674.47939,-1.09108110170138,-0.0798352025635154,-0.363042648966202
1580422674.4834,-1.0642252231632,0.0842298008697639,-0.246341649500266
1580422674.4874,-1.0212558175021,0.223392080567635,-0.171145189593346
1580422674.4914,-0.946059357595178,0.275150682841229,-0.240482185091935
1580422674.49539,-0.854749370565347,0.281986724650949,-0.400152590218967
1580422674.49939,-0.787365529869536,0.357183184557869,-0.537850003814755
1580422674.50339,-0.72535286488136,0.511482413977266,-0.601327534905012
1580422674.50739,-0.667734798199435,0.674570840009157,-0.611093308918898
1580422674.51139,-0.622323949034866,0.798596169985505,-0.590585183489738
1580422674.51539,-0.602792401007095,0.870374608987564,-0.553475242236972
1580422674.51939,-0.604257267109178,0.864515144579233,-0.499763485160601
1580422674.52339,-0.620859082932784,0.788342107270925,-0.453864347295339
1580422674.52738,-0.650156404974441,0.675059128709851,-0.426031891355764
1580422674.53138,-0.682383459220263,0.548592355230031,-0.404058899824522
1580422674.53538,-0.727794308384832,0.450446326390477,-0.40503547722591
1580422674.53938,-0.764904249637599,0.379644464789806,-0.405523765926604
1580422674.54338,-0.78785381857023,0.330327306019683,-0.409918364232853
1580422674.54738,-0.797619592584116,0.294682230869,-0.39478141451133
1580422674.55138,-0.807385366598002,0.270267795834286,-0.35034714274815
1580422674.55538,-0.822522316319525,0.257572289616235,-0.289311055161365
1580422674.55937,-0.825940337224385,0.221927214465552,-0.257084000915542
1580422674.56335,-0.858655680170902,0.160891126878766,-0.174074921797512
1580422674.56735,-0.923598077363241,0.127199206530861,-0.108644235904478
1580422674.57135,-0.956313420309758,0.0754406042572668,-0.0793469138628211
1580422674.57535,-0.988052185854887,0.00268558785381856,0.00219729915312428
1580422674.57935,-1.01734950789654,-0.0549324788281069,0.048096437018387
1580422674.58335,-1.03395132372015,-0.114015411612115,0.0627450980392155
1580422674.58735,-1.05201800564584,-0.166750591287098,0.0842298008697639
1580422674.59134,-1.06910811017014,-0.203860532539863,0.11450370031281
1580422674.59534,-1.09108110170138,-0.228763256275272,0.164309147783626
1580422674.59934,-1.11061264972915,-0.243900205996795,0.204837109941252
1580422674.60334,-1.12672617685206,-0.248783093003738,0.235111009384298
1580422674.60734,-1.13844510566873,-0.245365072098878,0.26392004272526
1580422674.61134,-1.14479285877775,-0.220950637064163,0.280521858548866
1580422674.61534,-1.13649195086595,-0.188723582818341,0.280033569848172
1580422674.61934,-1.12965590905623,-0.154543373769741,0.285404745555809
1580422674.62333,-1.11012436102846,-0.114015411612115,0.282475013351643
1580422674.62733,-1.09108110170138,-0.0690928511482412,0.281986724650949
1580422674.63133,-1.06959639887083,-0.0339360646982527,0.267826352330815
1580422674.63533,-1.03932249942779,-0.00512703135728998,0.256595712214846
1580422674.63933,-1.01734950789654,0.0187991149767299,0.256595712214846
1580422674.64334,-1.00270084687572,0.0388189517051956,0.249271381704432
1580422674.64734,-0.990493629358358,0.0583504997329669,0.255130846112763
1580422674.65134,-0.978774700541695,0.0817883573662925,0.2605020218204
1580422674.65534,-0.972915236133364,0.10083161669337,0.26733806363012
1580422674.65934,-0.972915236133364,0.115480277714198,0.268314641031509
1580422674.66333,-0.971938658731975,0.130617227435721,0.265384908827343
1580422674.66733,-0.973891813534753,0.143801022354467,0.256107423514152
1580422674.67133,-0.980239566643778,0.159426260776684,0.241947051194018
1580422674.67533,-0.991470206759747,0.168215457389181,0.241947051194018
1580422674.67933,-1.00904859998474,0.173098344396124,0.244388494697489
1580422674.68333,-1.03346303501946,0.169192034790569,0.261478599221789
1580422674.68733,-1.07545586327916,0.164797436484321,0.275638971541923
1580422674.69133,-1.13014419775692,0.153566796368352,0.293705653467612
1580422674.69532,-1.18922713054093,0.137453269245441,0.316166933699549
1580422674.69932,-1.24879835202563,0.120851453421835,0.323002975509269
1580422674.70332,-1.29616235599298,0.100343327992675,0.320561532005797
1580422674.70732,-1.33571374074922,0.0930189974822611,0.324956130312046
1580422674.71132,-1.36647592889296,0.0900892652780954,0.318120088502326
1580422674.71532,-1.3801480125124,0.0925307087815668,0.309330891889829
1580422674.71932,-1.3889372091249,0.0983901731898982,0.294193942168306
1580422674.7233,-1.3884489204242,0.108155947203784,0.280521858548866
1580422674.7273,-1.38112458991379,0.110597390707255,0.271244373235675
1580422674.73129,-1.3630579079881,0.110109102006561,0.256595712214846
1580422674.73529,-1.3454795147631,0.0993667505912867,0.239505607690546
1580422674.73929,-1.3288776989395,0.0896009765774011,0.216556038757915
1580422674.74329,-1.30397497520409,0.0759288929579611,0.208743419546806
1580422674.74729,-1.28249027237354,0.0529793240253298,0.186282139314869
1580422674.75129,-1.26247043564508,0.0329594872968642,0.169680323491264
1580422674.75529,-1.24586861982147,0.0134279392690928,0.150148775463492
1580422674.75929,-1.23512626840619,-0.00805676356145568,0.125734340428778
1580422674.76328,-1.22487220569161,-0.0280766002899213,0.11108567940795
1580422674.76728,-1.21950102998398,-0.0441901274128327,0.0974135957885096
1580422674.77128,-1.21998931868467,-0.0588387884336612,0.0881361104753182
1580422674.77528,-1.21657129777981,-0.0710460059510183,0.0754406042572668
1580422674.77928,-1.21266498817426,-0.0778820477607383,0.0573739223315783
1580422674.78328,-1.2087586785687,-0.0915541313801782,0.0407721065079727
1580422674.78728,-1.19948119325551,-0.0979018844892039,0.0148928053711757
1580422674.79128,-1.17994964522774,-0.103761348897535,-0.00415045395590141
1580422674.79527,-1.15700007629511,-0.0959487296864268,-0.0197756923781185
1580422674.79927,-1.12965590905623,-0.0886243991760125,-0.0354009308003356
1580422674.80325,-1.10182345311665,-0.0813000686655982,-0.0495613031204698
1580422674.80725,-1.07594415197986,-0.0690928511482412,-0.0583504997329669
1580422674.81125,-1.05104142824445,-0.0593270771343555,-0.0681162737468526
1580422674.81525,-1.02662699320974,-0.0500495918211641,-0.0744640268558783
1580422674.81925,-1.00856031128405,-0.0339360646982527,-0.0803234912642097
1580422674.82325,-0.995376516365301,-0.0207522697795071,-0.0905775539787896
1580422674.82724,-0.980239566643778,-0.0134279392690928,-0.0896009765774011
1580422674.83124,-0.969985503929198,-0.00561532005798426,-0.0925307087815668
1580422674.83524,-0.952407110704204,0.00366216525520713,-0.0930189974822611
1580422674.83924,-0.942153047989624,0.0144045166704814,-0.0988784618905925
1580422674.84324,-0.934340428778516,0.0192874036774242,-0.10083161669337
1580422674.84724,-0.925062943465324,0.0266117341878385,-0.110597390707255
1580422674.85124,-0.918226901655604,0.0290531776913099,-0.111573968108644
1580422674.85524,-0.907972838941024,0.0271000228885327,-0.11450370031281
1580422674.85923,-0.896742198825056,0.0231937132829785,-0.109620813305867
1580422674.86323,-0.89039444571603,0.0163576714732585,-0.109620813305867
1580422674.86723,-0.873792629892424,0.0046387426565957,-0.108155947203784
1580422674.87123,-0.864515144579233,-0.00708018616006711,-0.103761348897535
1580422674.87523,-0.85621423666743,-0.0314946211947813,-0.108155947203784
1580422674.87923,-0.854261081864653,-0.0510261692225527,-0.105714503700312
1580422674.88321,-0.855725947966736,-0.0729991607537954,-0.107179369802395
1580422674.88721,-0.860608834973679,-0.0886243991760125,-0.103273060196841
1580422674.89121,-0.865980010681316,-0.105226214999618,-0.0983901731898982
1580422674.89521,-0.879652094300756,-0.129152361333638,-0.102296482795452
1580422674.8992,-0.891371023117419,-0.146730754558632,-0.102296482795452
1580422674.9032,-0.903578240634776,-0.169192034790569,-0.0925307087815668
1580422674.9072,-0.936781872281987,-0.189211871519035,-0.0959487296864268
1580422674.9112,-0.986587319752804,-0.215579461356526,-0.0925307087815668
1580422674.9152,-1.05690089265278,-0.236087586785686,-0.073975738155184
1580422674.9192,-1.14576943617914,-0.264408331425956,-0.0681162737468526
1580422674.9232,-1.22877851529717,-0.300541695277333,-0.0725108720531011
1580422674.92719,-1.30739299610895,-0.341069657434959,-0.0886243991760125
1580422674.93119,-1.36501106279088,-0.37427328908217,-0.105714503700312
1580422674.93519,-1.40358587014572,-0.392339971007859,-0.131105516136415
1580422674.93919,-1.41969939726864,-0.393316548409247,-0.150637064164187
1580422674.94319,-1.41725795376516,-0.382085908293279,-0.162844281681544
1580422674.94719,-1.39528496223392,-0.372808422980087,-0.172610055695429
1580422674.95119,-1.35085069047074,-0.371343556878005,-0.179934386205844
1580422674.95519,-1.29567406729229,-0.385503929198139,-0.165774013885709
1580422674.95918,-1.23073167009995,-0.407476920729382,-0.161379415579461
1580422674.96319,-1.15992980849927,-0.437750820172427,-0.163332570382238
1580422674.96719,-1.09156939040207,-0.471442740520333,-0.164797436484321
1580422674.97119,-1.02369726100557,-0.51441214618143,-0.163820859082932
1580422674.97519,-0.95875486381323,-0.55201037613489,-0.171145189593346
1580422674.97919,-0.905043106736859,-0.581307698176547,-0.171145189593346
1580422674.98319,-0.865980010681316,-0.596444647898069,-0.175051499198901
1580422674.98719,-0.838635843442436,-0.613046463721675,-0.182864118410009
1580422674.99119,-0.826916914625773,-0.622323949034866,-0.187258716716258
1580422674.99518,-0.82203402761883,-0.626230258640421,-0.190676737621118
1580422674.99918,-0.832776379034105,-0.625253681239032,-0.191165026321812
1580422675.00318,-0.846936751354239,-0.623300526436255,-0.190676737621118
1580422675.00718,-0.865980010681316,-0.629648279545281,-0.199954222934309
1580422675.01118,-0.879652094300756,-0.628183413443198,-0.209231708247501
1580422675.01518,-0.894789044022279,-0.627695124742504,-0.214602883955138
1580422675.01918,-0.905531395437553,-0.631601434348058,-0.204837109941252
1580422675.02318,-0.916273746852827,-0.639414053559166,-0.191653315022506
1580422675.02718,-0.920668345159076,-0.651132982375829,-0.192141603723201
1580422675.03117,-0.91773861295491,-0.665293354695963,-0.194583047226672
1580422675.03517,-0.913344014648661,-0.661875333791103,-0.203372243839169
1580422675.03917,-0.913832303349356,-0.648203250171663,-0.201907377737086
1580422675.04315,-0.926039520866713,-0.625253681239032,-0.206790264744029
1580422675.04715,-0.937758449683376,-0.602304112306401,-0.214114595254443
1580422675.05115,-0.962661173418784,-0.576913099870298,-0.217044327458609
1580422675.05515,-0.991958495460441,-0.554940108339055,-0.216556038757915
1580422675.05915,-1.02027924010071,-0.537361715114061,-0.222903791866941
1580422675.06314,-1.04811169604028,-0.525642786297398,-0.228763256275272
1580422675.06714,-1.06666666666667,-0.520759899290455,-0.241947051194018
1580422675.07114,-1.08131532768749,-0.516365300984207,-0.249759670405126
1580422675.07514,-1.08863965819791,-0.520759899290455,-0.249271381704432
1580422675.07914,-1.09352254520485,-0.534431982909895,-0.251224536507211
1580422675.08314,-1.10475318532082,-0.558358129243915,-0.257084000915542
1580422675.08714,-1.11647211413748,-0.587167162584878,-0.265873197528039
1580422675.09114,-1.11940184634165,-0.616952773327229,-0.294682230869002
1580422675.09513,-1.11256580453193,-0.646738384069581,-0.318608377203022
1580422675.09913,-1.08766308079652,-0.664805065995269,-0.339604791332876
1580422675.10313,-1.04908827344167,-0.667734798199435,-0.341069657434959
1580422675.10713,-0.993911650263218,-0.668223086900129,-0.337651636530099
1580422675.11113,-0.935317006179904,-0.663340199893186,-0.320073243305105
1580422675.11513,-0.879163805600061,-0.658457312886243,-0.301518272678722
1580422675.11913,-0.832776379034105,-0.662851911192492,-0.284916456855116
1580422675.12314,-0.795178149080645,-0.670176241702906,-0.265873197528039
1580422675.12714,-0.776134889753568,-0.692637521934843,-0.244388494697489
1580422675.13114,-0.777111467154956,-0.727794308384832,-0.217532616159303
1580422675.13513,-0.788830395971619,-0.761486228732739,-0.192629892423895
1580422675.13913,-0.803479056992447,-0.788342107270925,-0.163820859082932
1580422675.14313,-0.826428625925079,-0.814709697108416,-0.131105516136415
1580422675.14713,-0.84254215304799,-0.824963759822996,-0.119386587319752
1580422675.15113,-0.847425040054933,-0.82545204852369,-0.111573968108644
1580422675.15513,-0.84254215304799,-0.813244831006333,-0.103273060196841
1580422675.15913,-0.827405203326467,-0.79810788128481,-0.0910658426794839
1580422675.16313,-0.81177996490425,-0.778088044556345,-0.0749523155565726
1580422675.16712,-0.786388952468148,-0.760509651331351,-0.0559090562294955
1580422675.17112,-0.752208743419548,-0.752208743419548,-0.048096437018387
1580422675.17512,-0.778088044556345,-0.700938429846646,-0.207278553444723
1580422675.17912,-0.817639429312582,-0.541268024719615,-0.348882276646068
1580422675.18312,-0.83228809033341,-0.216067750057221,-0.765880827038988
1580422675.18712,-0.812756542305639,0.227298390173189,-1.07692072938125
1580422675.19112,-0.888929579613947,0.860608834973679,-1.17653162432288
1580422675.19512,-1.1579766536965,2.09353780422675,-0.942641336690318
1580422675.19911,-1.54079499504082,3.90460059510185,-0.650644693675135
1580422675.20309,-1.81326009002823,4.35480277714198,-0.357671473258565
1580422675.20709,-1.92605477988861,2.77958342870222,0.0354009308003356
1580422675.21109,-1.74929427023728,1.20631723506523,0.200930800335698
1580422675.21509,-1.45827420462348,0.330327306019683,0.138918135347524
1580422675.21909,-1.37721828030823,-0.0871595330739297,-0.0598153658350498
1580422675.22309,-1.46852826733806,-0.568612191958495,-0.325932707713436
1580422675.22709,-1.58376440070191,-1.38698405432212,-0.48706797894255
1580422675.23108,-1.71902037079423,-1.82107270923934,-0.44946974898909
1580422675.23508,-1.66384374761578,-1.89675745784695,-0.385015640497445
1580422675.23908,-1.53151750972763,-1.70681315327687,-0.288334477759976
1580422675.24308,-1.44509040970474,-1.3630579079881,-0.241947051194018
1580422675.24708,-1.48073548485542,-0.933852140077821,-0.215091172655832
1580422675.25108,-1.61257343404288,-0.574959945067521,-0.154543373769741
1580422675.25508,-1.7048599984741,-0.385015640497445,-0.0910658426794839
1580422675.25908,-1.70876630807965,-0.35034714274815,-0.0520027466239412
1580422675.26307,-1.661890592813,-0.390875104905776,0.00561532005798426
1580422675.26707,-1.61013199053941,-0.444098573281453,0.0622568093385212
1580422675.27107,-1.55593194476234,-0.450934615091173,0.0754406042572668
1580422675.27507,-1.50563820859083,-0.378179598687725,0.0954604409857325
1580422675.27907,-1.45485618371862,-0.247318226901655,0.148195620660715
1580422675.28308,-1.36794079499504,-0.119874876020447,0.200930800335698
1580422675.28708,-1.225848783093,-0.0388189517051956,0.204837109941252
1580422675.29108,-1.03443961242084,-0.0456549935149155,0.132570382238498
1580422675.29508,-0.829846646829939,-0.129152361333638,-0.0109864957656214
1580422675.29908,-0.669199664301518,-0.249271381704432,-0.208743419546806
1580422675.30307,-0.587167162584878,-0.370366979476616,-0.383550774395362
1580422675.30707,-0.573983367666132,-0.444098573281453,-0.494880598153658
1580422675.31107,-0.597421225299458,-0.474860761425193,-0.553475242236972
1580422675.31507,-0.618417639429312,-0.503181506065461,-0.574959945067521
1580422675.31907,-0.637460898756389,-0.550057221332112,-0.589608606088349
1580422675.32307,-0.667734798199435,-0.611093308918898,-0.603768978408484
1580422675.32707,-0.71509880216678,-0.667734798199435,-0.586678873884184
1580422675.33107,-0.78101777676051,-0.683848325322346,-0.553963530937667
1580422675.33506,-0.840100709544519,-0.658945601586938,-0.522713054093233
1580422675.33906,-0.88697642481117,-0.598886091401541,-0.484626535439078
1580422675.34306,-0.913344014648661,-0.525642786297398,-0.479743648432136
1580422675.34706,-0.919203479056993,-0.478278782330053,-0.460700389105059
1580422675.35106,-0.919203479056993,-0.438239108873121,-0.468024719615473
1580422675.35506,-0.928480964370184,-0.398687724116884,-0.46997787441825
1580422675.35906,-0.94850080109865,-0.385015640497445,-0.454352635996033
1580422675.36304,-0.976821545738918,-0.37427328908217,-0.41870756084535
1580422675.36703,-1.02418554970626,-0.341069657434959,-0.375249866483559
1580422675.37103,-1.07496757457847,-0.296147096971085,-0.32642099641413
1580422675.37503,-1.10182345311665,-0.264408331425956,-0.285893034256505
1580422675.37903,-1.09742885481041,-0.263431754024568,-0.261478599221791
1580422675.38303,-1.09010452429999,-0.268314641031511,-0.250247959105822
1580422675.38703,-1.06080720225834,-0.276127260242619,-0.247318226901655
1580422675.39103,-1.01930266269932,-0.278080415045396,-0.204837109941252
1580422675.39503,-0.973403524834058,-0.274174105439842,-0.159426260776684
1580422675.39903,-0.936293583581293,-0.256107423514154,-0.141847867551689
1580422675.40302,-0.923109788662547,-0.209719996948195,-0.133546959639887
1580422675.40702,-0.927016098268101,-0.124269474326695,-0.134035248340581
1580422675.41102,-0.932387273975738,-0.0192874036774242,-0.116456855115587
1580422675.41502,-0.920180056458381,0.0651865415426869,-0.123292896925307
1580422675.41902,-0.904554818036164,0.0861829556725411,-0.186770428015564
1580422675.42302,-0.897718776226444,0.044678416113527,-0.241947051194018
1580422675.42702,-0.930434119172961,-0.024170290684367,-0.265384908827345
1580422675.43102,-0.989028763256275,-0.0734874494544897,-0.260502021820402
1580422675.43501,-1.03395132372015,-0.110597390707255,-0.281010147249562
1580422675.43901,-1.04322880903334,-0.159914549477378,-0.322514686808576
1580422675.44302,-1.02467383840696,-0.237552452887769,-0.37769130998703
1580422675.44702,-1.00221255817502,-0.318120088502328,-0.408941786831464
1580422675.45102,-0.994399938963912,-0.378179598687725,-0.427985046158541
1580422675.45502,-0.991470206759747,-0.410406652933547,-0.435309376668956
1580422675.45902,-0.970473792629893,-0.429449912260624,-0.420172426947433
1580422675.46302,-0.950453955901427,-0.435309376668956,-0.406012054627299
1580422675.46702,-0.921644922560464,-0.425055313954376,-0.440192263675899
1580422675.47101,-0.888929579613947,-0.40503547722591,-0.449958037689784
1580422675.47501,-0.871351186388953,-0.380621042191196,-0.434332799267567
1580422675.47901,-0.865003433279927,-0.376714732585642,-0.427496757457847
1580422675.48301,-0.860120546272984,-0.389410238803693,-0.417242694743267
1580422675.48701,-0.885511558709087,-0.403570611123827,-0.383550774395362
1580422675.49101,-0.908949416342413,-0.418219272144656,-0.371831845578699
1580422675.49501,-0.935317006179904,-0.423590447852293,-0.369390402075227
1580422675.49901,-0.958266575112535,-0.422613870450904,-0.376226443884947
1580422675.50301,-0.969985503929198,-0.427985046158541,-0.376226443884947
1580422675.507,-0.986587319752804,-0.427985046158541,-0.365484092469673
1580422675.511,-1.0129549095903,-0.408941786831464,-0.345952544441902
1580422675.515,-1.03395132372015,-0.353276874952316,-0.348882276646068
1580422675.519,-1.03981078812848,-0.285404745555811,-0.351323720149539
1580422675.52298,-1.03443961242084,-0.230716411078049,-0.35718318455787
1580422675.52698,-1.04371709773404,-0.188723582818341,-0.386968795300222
1580422675.53098,-1.05641260395209,-0.158449683375295,-0.405523765926604
1580422675.53498,-1.08473334859235,-0.117433432516975,-0.398687724116884
1580422675.53897,-1.11354238193332,-0.102784771496147,-0.395269703212024
1580422675.54297,-1.12477302204929,-0.151613641565575,-0.431891355764096
1580422675.54697,-1.14283970397497,-0.255130846112765,-0.424078736552987
1580422675.55097,-1.17604333562219,-0.340581368734265,-0.406988632028687
1580422675.55497,-1.18922713054093,-0.358648050659953,-0.386968795300222
1580422675.55897,-1.16871900511177,-0.330327306019685,-0.358648050659953
1580422675.56297,-1.14821087968261,-0.264896620126651,-0.338628213931488
1580422675.56697,-1.12477302204929,-0.166750591287098,-0.366948958571756
1580422675.57096,-1.09401083390555,-0.101319905394064,-0.388921950102999
1580422675.57496,-1.06764324406805,-0.0710460059510183,-0.367925535973145
1580422675.57896,-1.09059281300069,-0.0397955291065841,-0.297123674372473
1580422675.58296,-1.11940184634165,0.000732433051041426,-0.265873197528039
1580422675.58696,-1.12428473334859,0.0134279392690928,-0.264408331425956
1580422675.59096,-1.11598382543679,-0.00512703135728998,-0.290775921263448
1580422675.59496,-1.12477302204929,-0.0173342488746471,-0.311772335393302
1580422675.59896,-1.14528114747845,0.0266117341878385,-0.297611963073168
1580422675.60297,-1.16530098420691,0.060303654535744,-0.296147096971085
1580422675.60696,-1.17994964522774,0.0583504997329669,-0.309330891889831
1580422675.61096,-1.21461814297703,0.0607919432364383,-0.270756084534982
1580422675.61496,-1.26979476615549,0.0881361104753182,-0.2434119172961
1580422675.61896,-1.32155336842908,0.122316319523918,-0.247806515602349
1580422675.62296,-1.35133897917144,0.145754177157244,-0.276127260242619
1580422675.62696,-1.37819485770962,0.160891126878766,-0.295170519569696
1580422675.63096,-1.41969939726864,0.154055085069047,-0.315678644998856
1580422675.63496,-1.47829404135195,0.131593804837109,-0.312748912794691
1580422675.63895,-1.55397878995956,0.136964980544747,-0.282963302052339
1580422675.64295,-1.63552300297551,0.178957808804455,-0.271244373235676
1580422675.64695,-1.68972304875257,0.212161440451666,-0.277592126344702
1580422675.65095,-1.73122758831159,0.231204699778743,-0.284916456855116
1580422675.65495,-1.77419699397269,0.234134431982909,-0.295170519569696
1580422675.65895,-1.82742046234836,0.251224536507209,-0.268314641031511
1580422675.66295,-1.88357366292821,0.266361486228732,-0.252689402609294
1580422675.66695,-1.93142595559625,0.267826352330815,-0.258060578316931
1580422675.67094,-1.98562600137331,0.267826352330815,-0.255619134813459
1580422675.67494,-2.05398641947051,0.266849774929426,-0.257572289616236
1580422675.67894,-2.11892881666285,0.260013733119706,-0.285404745555811
1580422675.68292,-2.20340276188296,0.286869611657892,-0.303471427481499
1580422675.68692,-2.30106050202182,0.354741741054397,-0.327397573815519
1580422675.69092,-2.38406958113985,0.398199435416188,-0.42212558175021
1580422675.69492,-2.46268406195163,0.405035477225908,-0.489509422446021
1580422675.69892,-2.59745174334325,0.473884184023802,-0.479743648432136
1580422675.70292,-2.7556572823682,0.608651865415428,-0.489509422446021
1580422675.70691,-2.85966277561608,0.736095216296636,-0.531013962005035
1580422675.71091,-2.88944838635843,0.802014190890365,-0.589120317387655
1580422675.71491,-2.87577630273899,0.772716868848708,-0.629648279545281
1580422675.71891,-2.83476005188068,0.678965438315405,-0.629648279545281
1580422675.72291,-2.78788433661402,0.588632028686963,-0.615976195925841
1580422675.72691,-2.72343022812238,0.500740062561992,-0.582772564278629
1580422675.73091,-2.64188601510643,0.426520180056457,-0.581307698176547
1580422675.73491,-2.54325169756619,0.374761577782863,-0.618417639429312
1580422675.7389,-2.45877775234607,0.366948958571754,-0.671641107804989
1580422675.7429,-2.39090562294957,0.3801327534905,-0.758068207827879
1580422675.7469,-2.29129472800794,0.375249866483557,-0.875257495994507
1580422675.7509,-2.18631265735866,0.383062485694666,-0.907972838941024
1580422675.7549,-2.10476844434272,0.4314030670634,-0.942641336690318
1580422675.7589,-1.97048905165179,0.468024719615471,-1.02320897230488
1580422675.76291,-1.75320057984283,0.450934615091171,-1.02418554970626
1580422675.76691,-1.51100938429847,0.378179598687723,-0.943617914091707
1580422675.77091,-1.31032272831312,0.105714503700312,-0.847425040054933
1580422675.7749,-1.17213702601663,-0.350835431448845,-0.901136797131304
1580422675.7789,-1.11451895933471,-0.908461127641718,-0.961684596017395
1580422675.7829,-1.17555504692149,-1.18141451132982,-0.69459067673762
1580422675.7869,-1.30495155260548,-0.98609903105211,-0.311772335393302
1580422675.7909,-1.30592813000687,-0.884534981307699,-0.264408331425956
1580422675.7949,-1.20973525597009,-0.566170748455024,-0.418219272144656
1580422675.7989,-1.06129549095903,0.0959487296864268,-0.434332799267567
1580422675.8029,-0.865491721980622,0.779064621957733,-0.305424582284276
1580422675.8069,-0.689219501029983,1.44167238879988,-0.160402838178072
1580422675.81089,-0.585214007782101,2.00222781719692,-0.177981231403066
1580422675.81489,-0.674570840009155,2.3196154726482,-0.365972381170367
1580422675.81889,-0.793713282978562,2.24881361104753,-0.486091401541161
1580422675.82289,-0.759044785229268,1.83230334935531,-0.41187151903563
1580422675.82689,-0.604257267109178,1.29616235599298,-0.290775921263448
1580422675.83089,-0.44263370717937,0.82545204852369,-0.282475013351645
1580422675.83489,-0.306401159685665,0.471442740520331,-0.349858854047456
1580422675.83888,-0.208743419546806,0.224368657969023,-0.399176012817579
1580422675.84286,-0.142824444953078,0.0681162737468526,-0.412359807736324
1580422675.84686,-0.0974135957885096,-0.00903334096284425,-0.369390402075227
1580422675.85086,-0.0656748302433812,-0.0363775082017241,-0.273685816739148
1580422675.85486,-0.0549324788281069,-0.0187991149767299,-0.148683909361409
1580422675.85886,-0.0793469138628211,0.0295414663920042,-0.0227054245822842
1580422675.86286,-0.132570382238498,0.0969253070878153,0.0798352025635154
1580422675.86686,-0.194094758525978,0.170656900892652,0.104737926298924
1580422675.87086,-0.261966887922485,0.220462348363469,0.0969253070878153
1580422675.87486,-0.35376516365301,0.269291218432897,0.112550545510032
1580422675.87885,-0.453376058594644,0.333257038223849,0.120851453421835
1580422675.88285,-0.482673380636301,0.369390402075226,0.122804608224612
1580422675.88685,-0.443610284580759,0.348393987945371,0.137453269245441
1580422675.89085,-0.405523765926604,0.284916456855115,0.172610055695429
1580422675.89485,-0.386968795300222,0.185305561913481,0.207766842145418
1580422675.89885,-0.38452735179675,0.073975738155184,0.238040741588463
1580422675.90285,-0.409918364232853,-0.0266117341878385,0.268314641031509
1580422675.90684,-0.453376058594644,-0.113038834210727,0.288334477759975
1580422675.91084,-0.513923857480735,-0.196047913328755,0.274662394140535
1580422675.91484,-0.587655451285572,-0.283939879453728,0.265384908827343
1580422675.91884,-0.666758220798046,-0.359136339360647,0.269291218432897
1580422675.92285,-0.763439383535516,-0.409430075532159,0.272220950637063
1580422675.92685,-0.844007019150073,-0.448493171587701,0.236087586785686
1580422675.93085,-0.912367437247273,-0.482185091935607,0.196047913328755
1580422675.93485,-0.984634164950027,-0.496833752956436,0.187258716716258
1580422675.93885,-1.03248645761807,-0.513923857480735,0.177981231403066
1580422675.94284,-1.05983062485695,-0.536385137712672,0.129640650034332
1580422675.94684,-1.0808270389868,-0.594003204394598,0.0588387884336612
1580422675.95084,-1.09108110170138,-0.673594262607766,-0.0383306630045013
1580422675.95484,-1.11451895933471,-0.730235751888303,-0.119386587319752
1580422675.95884,-1.1574883649958,-0.730724040588997,-0.142336156252384
1580422675.96284,-1.19118028534371,-0.695567254139009,-0.141359578850995
1580422675.96684,-1.20289921416037,-0.648203250171663,-0.167727168688486
1580422675.97084,-1.20827038986801,-0.606210421911955,-0.209231708247501
1580422675.97483,-1.21657129777981,-0.575936522468909,-0.264896620126651
1580422675.97883,-1.243427176318,-0.560311284046692,-0.338139925230793
1580422675.98283,-1.30885786221103,-0.574471656366827,-0.42212558175021
1580422675.98683,-1.42018768596933,-0.642343785763332,-0.49048599984741
1580422675.99083,-1.58864728770886,-0.775646601052873,-0.519783321889067
1580422675.99483,-1.80837720302129,-0.960708018616007,-0.537361715114061
1580422675.99883,-2.01345845731289,-1.09010452429999,-0.549080643930724
1580422676.00281,-2.12967116807813,-1.06959639887083,-0.56226443884947
1580422676.00681,-2.15213244831006,-0.98951705195697,-0.581795986877241
1580422676.0108,-2.13260090028229,-0.975356679636835,-0.581307698176547
1580422676.0148,-2.12381170366979,-1.04957656214237,-0.53833829251545
1580422676.0188,-2.16189822232395,-1.2004577706569,-0.464118410009918
1580422676.0228,-2.22977035172045,-1.39040207522698,-0.362554360265507
1580422676.0268,-2.27469291218433,-1.61208514534218,-0.252689402609294
1580422676.0308,-2.26297398336767,-1.83865110246433,-0.175539787899595
1580422676.0348,-2.19217212176699,-2.07058823529412,-0.162355992980849
1580422676.0388,-2.07058823529412,-2.31473258564126,-0.186282139314869
1580422676.04279,-1.89919890135042,-2.5847562371252,-0.228274967574578
1580422676.04679,-1.67360952162966,-2.8411078049897,-0.263431754024568
1580422676.05079,-1.36745250629435,-3.04472419317922,-0.330815594720379
1580422676.05479,-1.05055313954376,-3.13310444800488,-0.454840924696727
1580422676.05879,-0.822522316319525,-3.08720531013962,-0.614999618524452
1580422676.06279,-0.694102388036926,-2.95927367055772,-0.810803387502862
1580422676.06679,-0.617441062027924,-2.83768978408484,-0.967055771725033
1580422676.07079,-0.544686045624475,-2.71903562981613,-1.06715495536736
1580422676.07478,-0.499763485160601,-2.61649500267033,-1.13356221866178
1580422676.07878,-0.492927443350881,-2.5080949111162,-1.1150072480354
1580422676.08279,-0.486579690241856,-2.38260471503777,-1.01637293049516
1580422676.08679,-0.469489585717556,-2.23025864042115,-0.898695353627833
1580422676.09079,-0.470954451819638,-2.10818646524758,-0.754650186923019
1580422676.09479,-0.50074006256199,-2.04080262455177,-0.596444647898069
1580422676.09879,-0.559334706645304,-2.02029449912261,-0.450934615091173
1580422676.10279,-0.645761806668192,-2.0378728923476,-0.337163347829405
1580422676.10679,-0.746837567711909,-2.07156481269551,-0.245365072098878
1580422676.11079,-0.955825131609064,-2.06863508049134,-0.181399252307926
1580422676.11478,-1.17360189211871,-2.07693598840314,-0.144289311055161
1580422676.11878,-1.18385595483329,-2.02468909742885,0.00170901045242999
1580422676.12278,-1.23805600061036,-1.90212863355459,-0.234622720683603
1580422676.12678,-1.27174792095827,-1.57595178149081,-0.710215915159838
1580422676.13078,-1.34792095826658,-1.36696421759365,-0.643808651865415
1580422676.13478,-1.68093385214008,-0.427008468757153,-0.495857175555047
1580422676.13878,-1.97927824826429,0.795178149080645,0.0729991607537954
1580422676.14277,-2.03884946974899,1.79275196459907,0.253177691309986
1580422676.14677,-1.94265659571222,2.21951628900587,0.125734340428778
1580422676.15077,-1.69997711146715,1.78103303578241,0.0642099641412983
1580422676.15477,-1.46266880292973,0.909437705043107,-0.109620813305867
1580422676.15877,-1.27125963225757,0.242923628595406,-0.432867933165484
1580422676.16275,-1.27663080796521,-0.0822766460669868,-0.651621271076523
1580422676.16675,-1.46657511253529,-0.192629892423895,-0.71509880216678
1580422676.17075,-1.68532845044633,-0.324467841611353,-0.571541924162661
1580422676.17475,-1.77615014877546,-0.498786907759213,-0.359136339360647
1580422676.17875,-1.71364919508659,-0.569588769359884,-0.372808422980087
1580422676.18274,-1.58083466849775,-0.610605020218204,-0.545662623025864
1580422676.18674,-1.45192645151446,-0.653574425879301,-0.656992446784161
1580422676.19074,-1.36208133058671,-0.718028534370946,-0.683848325322346
1580422676.19474,-1.33522545204852,-0.815686274509805,-0.624765392538338
1580422676.19874,-1.37575341420615,-0.882093537804227,-0.460700389105059
1580422676.20274,-1.44899671931029,-0.90064850843061,-0.281986724650951
1580422676.20674,-1.48122377355612,-0.935317006179904,-0.148195620660715
1580422676.21073,-1.45876249332418,-1.01490806439307,-0.037842374303807
1580422676.21473,-1.3972381170367,-1.06910811017014,0.0295414663920042
1580422676.21873,-1.30104524299992,-1.07789730678263,0.0476081483176927
1580422676.22273,-1.15651178759441,-1.06666666666667,-0.00317387655451284
1580422676.22673,-0.993423361562524,-1.04176394293126,-0.073975738155184
1580422676.23073,-0.834241245136187,-1.03541618982223,-0.129152361333638
1580422676.23473,-0.730724040588997,-1.03688105592432,-0.151125352864881
1580422676.23873,-0.726329442282749,-1.01002517738613,-0.143801022354467
1580422676.24274,-0.79127183947509,-0.988052185854887,-0.0866712443732354
1580422676.24673,-0.887953002212559,-0.954848554207675,-0.070557717250324
1580422676.25073,-0.948989089799344,-0.91773861295491,-0.175051499198901
1580422676.25473,-0.95875486381323,-0.850354772259099,-0.310307469291219
1580422676.25873,-0.95533684290837,-0.740978103303577,-0.383550774395362
1580422676.26273,-0.955825131609064,-0.606210421911955,-0.429938200961319
1580422676.26673,-0.971938658731975,-0.491462577248798,-0.466071564812696
1580422676.27073,-0.989028763256275,-0.414801251239796,-0.471442740520333
1580422676.27473,-0.984145876249332,-0.380621042191196,-0.475349050125887
1580422676.27872,-0.980239566643778,-0.348393987945373,-0.494392309452964
1580422676.28272,-0.996841382467384,-0.292240787365531,-0.50757610437171
1580422676.28672,-1.0212558175021,-0.219485770962081,-0.489509422446021
1580422676.29072,-1.04567025253681,-0.136476691844052,-0.499763485160601
1580422676.29472,-1.05934233615625,-0.0852063782711525,-0.504646372167544
1580422676.29872,-1.08375677119097,-0.0563973449301898,-0.519295033188373
1580422676.30272,-1.11598382543679,-0.0437018387121384,-0.527595941100175
1580422676.30672,-1.14967574578469,-0.0466315709163041,-0.501716639963378
1580422676.31071,-1.17653162432288,-0.063721675440604,-0.460700389105059
1580422676.31471,-1.18532082093538,-0.0876478217746239,-0.425055313954376
1580422676.31871,-1.16334782940413,-0.150637064164187,-0.407965209430076
1580422676.32269,-1.12965590905623,-0.230716411078049,-0.400152590218967
1580422676.32669,-1.09303425650416,-0.302006561379416,-0.389410238803693
1580422676.33069,-1.06080720225834,-0.335698481727322,-0.385503929198139
1580422676.33469,-1.01979095140002,-0.348882276646068,-0.349370565346762
1580422676.33869,-0.983657587548638,-0.34351110093843,-0.287846189059282
1580422676.34269,-0.955825131609064,-0.342534523537042,-0.260013733119708
1580422676.34668,-0.927504386968796,-0.346440833142596,-0.238529030289158
1580422676.35068,-0.921644922560464,-0.356206607156482,-0.237064164187075
1580422676.35468,-0.930922407873656,-0.354741741054399,-0.236087586785686
1580422676.35868,-0.944594491493095,-0.331792172121768,-0.239017318989852
1580422676.36268,-0.952407110704204,-0.316166933699551,-0.239505607690546
1580422676.36668,-0.942153047989624,-0.319096665903716,-0.272709239337759
1580422676.37068,-0.947035934996567,-0.323979552910659,-0.296635385671779
1580422676.37468,-0.96900892652781,-0.31958495460441,-0.293217364766919
1580422676.37867,-0.989028763256275,-0.304936293583582,-0.281010147249562
1580422676.38267,-0.996841382467384,-0.289311055161365,-0.264896620126651
1580422676.38667,-1.01490806439307,-0.261478599221791,-0.271732661936371
1580422676.39067,-1.03199816891737,-0.220462348363469,-0.309330891889831
1580422676.39467,-1.01539635309377,-0.185305561913481,-0.33667505912871
1580422676.39867,-0.991470206759747,-0.131105516136415,-0.314213778896773
1580422676.40268,-0.984145876249332,-0.0690928511482412,-0.271244373235676
1580422676.40668,-0.973403524834058,-0.0134279392690928,-0.293217364766919
1580422676.41068,-0.95191882200351,0.0173342488746471,-0.323491264209965
1580422676.41467,-0.943129625391013,0.0261234454871442,-0.303471427481499
1580422676.41867,-0.935805294880598,0.0109864957656214,-0.273197528038454
1580422676.42267,-0.932875562676433,-0.0246585793850613,-0.254154268711376
1580422676.42667,-0.934340428778516,-0.0690928511482412,-0.275638971541925
1580422676.43067,-0.931898985275044,-0.113527122911421,-0.294193942168308
1580422676.43467,-0.922621499961853,-0.138918135347524,-0.282475013351645
1580422676.43867,-0.912367437247273,-0.136476691844052,-0.250247959105822
1580422676.44267,-0.900160219729916,-0.133546959639887,-0.267338063630122
1580422676.44666,-0.886488136110476,-0.159426260776684,-0.31958495460441
1580422676.45066,-0.887464713511864,-0.187747005416952,-0.330327306019685
1580422676.45466,-0.918226901655604,-0.184328984512092,-0.322026398107882
1580422676.45866,-0.929457541771573,-0.168703746089875,-0.325444419012742
1580422676.46266,-0.92799267566949,-0.147219043259327,-0.335698481727322
1580422676.46666,-0.944106202792401,-0.155031662470435,-0.343999389639125
1580422676.47066,-0.971450370031281,-0.191165026321812,-0.339116502632182
1580422676.47466,-0.997329671168078,-0.240482185091935,-0.343022812237736
1580422676.47865,-1.0212558175021,-0.272220950637065,-0.331792172121768
1580422676.48264,-1.03981078812848,-0.285404745555811,-0.352788586251622
1580422676.48663,-1.02858014801251,-0.287846189059282,-0.376226443884947
1580422676.49063,-0.988052185854887,-0.260013733119708,-0.353276874952316
1580422676.49463,-0.963149462119478,-0.182864118410009,-0.337651636530099
1580422676.49863,-0.952895399404898,-0.0754406042572668,-0.344487678339819
1580422676.50263,-0.953871976806287,0.0183108262760356,-0.374761577782865
1580422676.50663,-0.953383688105593,0.070557717250324,-0.397711146715496
1580422676.51063,-0.96559090562295,0.0607919432364383,-0.39478141451133
1580422676.51462,-0.983169298847944,0.0324711985961699,-0.365972381170367
1580422676.51862,-0.996841382467384,0.0104982070649271,-0.332768749523156
1580422676.52262,-1.01832608529793,0.0148928053711757,-0.298100251773862
1580422676.52662,-1.04274052033265,0.0202639810788128,-0.284916456855116
1580422676.53062,-1.05152971694514,-0.0163576714732585,-0.293217364766919
1580422676.53462,-1.06813153276875,-0.0729991607537954,-0.249271381704432
1580422676.53862,-1.09840543221179,-0.10766765850309,-0.200442511635003
1580422676.54262,-1.12281986724651,-0.0920424200808725,-0.162355992980849
1580422676.54661,-1.14283970397497,-0.0402838178072784,-0.135500114442664
1580422676.55061,-1.13942168307011,0.00219729915312428,-0.164797436484321
1580422676.55461,-1.13307392996109,0.0163576714732585,-0.197024490730143
1580422676.55861,-1.1408865491722,0.0329594872968642,-0.201907377737086
1580422676.56262,-1.16481269550622,0.0749523155565726,-0.201907377737086
1580422676.56662,-1.17994964522774,0.10424963759823,-0.201907377737086
1580422676.57062,-1.21266498817426,0.100343327992675,-0.180422674906538
1580422676.57462,-1.26784161135271,0.0622568093385212,-0.148683909361409
1580422676.57862,-1.32790112153811,0.0187991149767299,-0.111573968108644
1580422676.58261,-1.39089036392767,-0.00854505226214997,-0.0632333867399097
1580422676.58661,-1.43923094529641,-0.00512703135728998,-0.0427252613107498
1580422676.59061,-1.45778591592279,-0.0246585793850613,-0.0300297550926985
1580422676.59461,-1.47878233005264,-0.041260395208667,-0.0104982070649271
1580422676.59861,-1.5080796520943,-0.0295414663920042,0.031006332494087
1580422676.60261,-1.53786526283665,-0.0100099183642328,0.0554207675288012
1580422676.60661,-1.55788509956512,0.00854505226214997,0.0349126420996413
1580422676.61061,-1.55739681086442,0.0046387426565957,-0.00512703135728998
1580422676.61461,-1.56520943007553,0.00415045395590141,-0.0251468680857556
1580422676.6186,-1.5847409781033,0.0339360646982527,-0.0368657969024184
1580422676.6226,-1.60573739223316,0.0734874494544897,-0.0646982528419926
1580422676.6266,-1.62380407415885,0.121828030823224,-0.103761348897535
1580422676.6306,-1.64968337529564,0.180910963607232,-0.146242465857938
1580422676.6346,-1.67214465552758,0.221927214465552,-0.204348821240558
1580422676.6386,-1.69558251316091,0.224368657969023,-0.264896620126651
1580422676.64258,-1.73757534142061,0.217532616159303,-0.310307469291219
1580422676.64658,-1.79812314030671,0.219485770962081,-0.351323720149539
1580422676.65057,-1.88650339513237,0.262455176623178,-0.395757991912719
1580422676.65457,-1.95193408102541,0.300053406576637,-0.460212100404364
1580422676.65857,-1.99343862058442,0.313237201495383,-0.570077058060578
1580422676.66257,-2.03591973754482,0.305912870984969,-0.611581597619592
1580422676.66657,-2.11404592965591,0.350835431448843,-0.604257267109178
1580422676.67057,-2.1999847409781,0.461188677805751,-0.602304112306401
1580422676.67457,-2.26102082856489,0.589120317387657,-0.607675288014038
1580422676.67857,-2.28885328450446,0.702403295948731,-0.616464484626535
1580422676.68256,-2.28836499580377,0.775646601052873,-0.595956359197375
1580422676.68656,-2.28055237659266,0.812268253604945,-0.562752727550164
1580422676.69056,-2.26395056076906,0.786877241168842,-0.472907606622416
1580422676.69456,-2.25027847714962,0.738048371099413,-0.411383230334936
1580422676.69856,-2.23367666132601,0.674082551308462,-0.384039063096056
1580422676.70256,-2.21219195849546,0.584725719081408,-0.364507515068285
1580422676.70656,-2.17557030594339,0.460700389105057,-0.387457084000916
1580422676.71056,-2.13553063248646,0.317631799801632,-0.44605172808423
1580422676.71456,-2.13748378728923,0.180910963607232,-0.534431982909895
1580422676.71855,-2.19705500877394,0.121828030823224,-0.581795986877241
1580422676.72256,-2.26199740596628,0.135988403143358,-0.629159990844586
1580422676.72656,-2.268833447776,0.173586633096818,-0.687266346227206
1580422676.73056,-2.20193789578088,0.227298390173189,-0.725841153582055
1580422676.73456,-2.09451438162814,0.27075608453498,-0.743907835507743
1580422676.73856,-1.95828183413443,0.320561532005797,-0.815686274509805
1580422676.74256,-1.79128709849699,0.35962462806134,-0.888441290913253
1580422676.74656,-1.55007248035401,0.277103837644006,-0.868909742885482
1580422676.75056,-1.30641641870756,0.0764171816586554,-0.885999847409781
1580422676.75455,-1.14528114747845,-0.213138017853055,-0.854749370565347
1580422676.75855,-1.09694056610971,-0.448004882887007,-0.612069886320286
1580422676.76255,-1.1067063401236,-0.410406652933547,-0.250736247806516
1580422676.76655,-1.11207751583123,-0.480720225833524,-0.0388189517051956
1580422676.77055,-1.07887388418402,-0.494880598153658,-0.186770428015564
1580422676.77455,-0.960219729915313,-0.180910963607232,-0.315190356298162
1580422676.77855,-0.816174563210499,0.158449683375295,-0.290287632562753
1580422676.78255,-0.73560692759594,0.391851682307163,-0.249759670405126
1580422676.78654,-0.688242923628595,0.588632028686963,-0.251224536507211
1580422676.79054,-0.646250095368886,0.778088044556345,-0.343022812237736
1580422676.79454,-0.636972610055695,0.941176470588236,-0.441657129777981
1580422676.79854,-0.634531166552224,1.03541618982223,-0.476325627527276
1580422676.80252,-0.599862668802929,1.03639276722362,-0.440680552376593
1580422676.80652,-0.527595941100175,0.96559090562295,-0.399664301518273
1580422676.81052,-0.432867933165484,0.865003433279927,-0.37427328908217
1580422676.81452,-0.325932707713436,0.758556496528573,-0.35718318455787
1580422676.81851,-0.235111009384298,0.649668116273748,-0.35376516365301
1580422676.82251,-0.167238879987792,0.545662623025866,-0.36401922636759
1580422676.82651,-0.123781185626001,0.448004882887005,-0.364507515068285
1580422676.83051,-0.105226214999618,0.350835431448843,-0.36401922636759
1580422676.83451,-0.115480277714198,0.256107423514152,-0.341557946135653
1580422676.83851,-0.147219043259327,0.178957808804455,-0.295170519569696
1580422676.84251,-0.198001068131532,0.109620813305867,-0.247318226901655
1580422676.84651,-0.257572289616236,0.0607919432364383,-0.204837109941252
1580422676.8505,-0.317143511100939,0.0212405584802013,-0.145265888456549
1580422676.8545,-0.383062485694667,0.00561532005798426,-0.0822766460669868
1580422676.8585,-0.458258945601587,0.0231937132829785,-0.0402838178072784
1580422676.8625,-0.541268024719615,0.0471198596169984,-0.0300297550926985
1580422676.8665,-0.632089723048752,0.0856946669718468,-0.00219729915312428
1580422676.8705,-0.698496986343175,0.136476691844052,0.0153810940718699
1580422676.8745,-0.722911421377889,0.173586633096818,0.0515144579232469
1580422676.8785,-0.715587090867475,0.190676737621118,0.0788586251621268
1580422676.88251,-0.704356450751506,0.195559624628061,0.104737926298924
1580422676.88651,-0.702891584649423,0.190188448920424,0.118898298619058
1580422676.8905,-0.716075379568169,0.167238879987792,0.136964980544747
1580422676.8945,-0.74244296940566,0.135011825741969,0.150148775463492
1580422676.8985,-0.786877241168842,0.0876478217746239,0.161867704280155
1580422676.9025,-0.848889906157016,0.0280766002899213,0.164797436484321
1580422676.9065,-0.92115663385977,-0.0358892195010299,0.167727168688486
1580422676.9105,-1.00318913557641,-0.112062256809338,0.172121766994735
1580422676.9145,-1.08619821469444,-0.196536202029449,0.174074921797512
1580422676.9185,-1.15700007629511,-0.277103837644008,0.172610055695429
1580422676.92249,-1.22243076218814,-0.354741741054399,0.161379415579461
1580422676.92649,-1.2693064774548,-0.414312962539102,0.134035248340581
1580422676.93049,-1.31618219272145,-0.452399481193256,0.0905775539787896
1580422676.93449,-1.36940566109712,-0.46655985351339,0.067139696345464
1580422676.93849,-1.42214084077211,-0.472419317921721,0.0314946211947813
1580422676.94249,-1.47341115434501,-0.470466163118944,-0.027588311589227
1580422676.94649,-1.52175173571374,-0.454352635996033,-0.080811779964904
1580422676.95049,-1.57888151369497,-0.42212558175021,-0.134523537041275
1580422676.95448,-1.62331578545815,-0.384039063096056,-0.177492942702372
1580422676.95848,-1.66091401541161,-0.356206607156482,-0.228763256275272
1580422676.96246,-1.69460593575952,-0.340581368734265,-0.274662394140536
1580422676.96646,-1.73611047531853,-0.319096665903716,-0.31958495460441
1580422676.97046,-1.78298619058518,-0.312260624093996,-0.35376516365301
1580422676.97446,-1.83816281376364,-0.315190356298162,-0.373785000381476
1580422676.97846,-1.90603494316014,-0.340581368734265,-0.382085908293279
1580422676.98246,-1.98513771267262,-0.400640878919662,-0.390875104905776
1580422676.98646,-2.05154497596704,-0.498298619058518,-0.385503929198139
1580422676.99045,-2.10672159914549,-0.625741969939726,-0.359624628061342
1580422676.99445,-2.12918287937743,-0.760021362630656,-0.329350728618296
1580422676.99845,-2.12576485847257,-0.902601663233387,-0.296635385671779
1580422677.00245,-2.09646753643091,-1.04322880903334,-0.270267795834288
1580422677.00645,-2.06961165789273,-1.19703974975204,-0.247806515602349
1580422677.01045,-2.05789272907607,-1.3625696192874,-0.198977645532921
1580422677.01445,-2.06863508049134,-1.54616617074845,-0.139406424048218
1580422677.01845,-2.09402609292744,-1.76247806515602,-0.0891126878767068
1580422677.02244,-2.11697566186007,-1.98171969176776,-0.0568856336308841
1580422677.02644,-2.12283512626841,-2.20437933928435,-0.0388189517051956
1580422677.03044,-2.080354009308,-2.40311284046693,-0.0402838178072784
1580422677.03444,-1.97244220645457,-2.55106431677729,-0.0881361104753182
1580422677.03844,-1.78738078889143,-2.62040131227588,-0.138918135347524
1580422677.04245,-1.5593499656672,-2.61161211566339,-0.204837109941252
1580422677.04645,-1.32350652323186,-2.57792019531548,-0.300053406576639
1580422677.05045,-1.10377660791943,-2.52664988174258,-0.427008468757153
1580422677.05445,-0.956801709010453,-2.50955977721828,-0.527595941100175
1580422677.05844,-0.861097123674373,-2.50955977721828,-0.603768978408484
1580422677.06244,-0.793224994277868,-2.51395437552453,-0.697032120241092
1580422677.06644,-0.761974517433433,-2.53543907835508,-0.767833981841765
1580422677.07044,-0.748790722514686,-2.57157244220645,-0.768322270542459
1580422677.07444,-0.735118638895246,-2.59647516594186,-0.696055542839703
1580422677.07844,-0.712169069962615,-2.61161211566339,-0.608651865415426
1580422677.08244,-0.682383459220263,-2.60672922865644,-0.527107652399481
1580422677.08644,-0.659433890287632,-2.61698329137102,-0.448981460288396
1580422677.09044,-0.650644693675135,-2.64286259250782,-0.380621042191196
1580422677.09443,-0.674082551308461,-2.66239414053559,-0.312260624093996
1580422677.09843,-0.719493400473029,-2.6702067597467,-0.267338063630122
1580422677.10243,-0.781506065461205,-2.66385900663767,-0.246341649500266
1580422677.10643,-0.84596017395285,-2.65116350041962,-0.24682993820096
1580422677.11043,-1.02516212710765,-2.57401388570993,-0.281498435950256
1580422677.11443,-1.11842526894026,-2.45145342183566,-0.399664301518273
1580422677.11843,-1.09645227740902,-2.26248569466697,-0.53833829251545
1580422677.12241,-1.13258564126039,-1.85378805218586,-0.973403524834058
1580422677.1264,-1.26442359044785,-1.16774242771038,-1.15309376668955
1580422677.1304,-1.54518959334707,-0.373785000381476,-0.7390249485008
1580422677.1344,-1.85964751659419,0.751232166018159,-0.536385137712672
1580422677.1384,-2.10428015564202,2.25271992065309,-0.375738155184253
1580422677.1424,-2.09549095902953,3.08574044403754,-0.437262531471733
1580422677.1464,-1.97293049515526,2.80643930724041,-0.387457084000916
1580422677.1504,-1.75417715724422,1.63894102388037,-0.123781185626001
1580422677.1544,-1.39479667353323,0.612558175020983,-0.0251468680857556
1580422677.15839,-1.18922713054093,0.0227054245822842,-0.172610055695429
1580422677.16239,-1.17848477912566,-0.421149004348822,-0.52124818799115
1580422677.16639,-1.24635690852216,-1.0896162355993,-0.690196078431372
1580422677.17039,-1.39333180743114,-1.47341115434501,-0.575448233768215
1580422677.17439,-1.38698405432212,-1.33913176165408,-0.419684138246739
1580422677.17839,-1.19850461585412,-1.20485236896315,-0.380621042191196
1580422677.18239,-1.05983062485695,-1.06959639887083,-0.415777828641184
1580422677.18639,-1.01441977569238,-0.894300755321584,-0.42896162355993
1580422677.19038,-1.06178377965972,-0.694102388036926,-0.440680552376593
1580422677.19438,-1.17360189211871,-0.501228351262684,-0.407965209430076
1580422677.19838,-1.31081101701381,-0.361577782864119,-0.332768749523156
1580422677.20239,-1.41969939726864,-0.359624628061342,-0.262455176623179
1580422677.20639,-1.52712291142138,-0.479743648432136,-0.192629892423895
1580422677.21039,-1.62575722896162,-0.657480735484855,-0.114015411612115
1580422677.21439,-1.63796444647898,-0.809338521400779,-0.0622568093385212
1580422677.21839,-1.54616617074845,-0.886488136110476,-0.113038834210727
1580422677.22239,-1.40798046845197,-0.889906157015336,-0.178957808804455
1580422677.22638,-1.28200198367285,-0.82203402761883,-0.192141603723201
1580422677.23038,-1.19411001754787,-0.718028534370946,-0.132082093537804
1580422677.23438,-1.13112077515831,-0.613534752422369,-0.0231937132829785
1580422677.23838,-1.06666666666667,-0.53492027161059,0.0651865415426869
1580422677.24238,-0.99293507286183,-0.518318455786984,0.105714503700312
1580422677.24638,-0.920668345159076,-0.537850003814755,0.0778820477607383
1580422677.25038,-0.871839475089647,-0.593026626993209,-0.0168459601739528
1580422677.25438,-0.855237659266042,-0.635507743953612,-0.136964980544747
1580422677.25837,-0.860120546272984,-0.647226672770275,-0.280521858548868
1580422677.26237,-0.847913328755627,-0.658457312886243,-0.411383230334936
1580422677.26637,-0.841077286945907,-0.644296940566109,-0.494392309452964
1580422677.27037,-0.852307927061876,-0.618905928130006,-0.511970702677958
1580422677.27437,-0.884534981307699,-0.55884641794461,-0.495368886854353
1580422677.27837,-0.922133211261158,-0.475349050125887,-0.459235523002976
1580422677.28235,-0.957289997711147,-0.378667887388419,-0.440192263675899
1580422677.28635,-0.994888227664607,-0.272220950637065,-0.48023193713283
1580422677.29035,-1.0383459220264,-0.182375829709315,-0.545662623025864
1580422677.29434,-1.07594415197986,-0.122804608224612,-0.611581597619592
1580422677.29834,-1.10768291752499,-0.0744640268558783,-0.662851911192492
1580422677.30234,-1.13453879606317,-0.0583504997329669,-0.660410467689021
1580422677.30634,-1.14967574578469,-0.0568856336308841,-0.642832074464026
1580422677.31034,-1.16432440680552,-0.0695811398489354,-0.583260852979324
1580422677.31434,-1.16139467460136,-0.0886243991760125,-0.519783321889067
1580422677.31834,-1.13258564126039,-0.115968566414892,-0.481208514534218
1580422677.32234,-1.08717479209583,-0.169680323491264,-0.443121995880064
1580422677.32633,-1.04029907682918,-0.261478599221791,-0.40161745632105
1580422677.33033,-0.997817959868772,-0.364507515068285,-0.368902113374533
1580422677.33433,-0.975356679636835,-0.442145418478676,-0.332280460822462
1580422677.33833,-0.959731441214618,-0.468024719615473,-0.276615548943314
1580422677.34233,-0.958266575112535,-0.439703974975204,-0.225833524071106
1580422677.34633,-0.943617914091707,-0.376226443884947,-0.185305561913481
1580422677.35033,-0.92799267566949,-0.295658808270391,-0.160402838178072
1580422677.35433,-0.908949416342413,-0.222903791866941,-0.173098344396124
1580422677.35833,-0.906996261539636,-0.152590218966964,-0.188723582818341
1580422677.36233,-0.919691767757687,-0.0979018844892039,-0.206790264744029
1580422677.36633,-0.93824673838407,-0.0749523155565726,-0.229739833676661
1580422677.37033,-0.96217288471809,-0.0876478217746239,-0.244876783398183
1580422677.37433,-1.00221255817502,-0.123781185626001,-0.253665980010682
1580422677.37833,-1.05006485084306,-0.157473105973907,-0.241458762493323
1580422677.38233,-1.09205767910277,-0.164309147783626,-0.256107423514154
1580422677.38633,-1.10963607232776,-0.146730754558632,-0.260013733119708
1580422677.39033,-1.10572976272221,-0.125246051728084,-0.274174105439842
1580422677.39433,-1.07496757457847,-0.107179369802395,-0.307377737087053
1580422677.39832,-1.04176394293126,-0.101808194094758,-0.357671473258565
1580422677.40232,-1.01734950789654,-0.0856946669718468,-0.385015640497445
1580422677.40632,-0.997329671168078,-0.0578622110322726,-0.364995803768979
1580422677.41032,-0.978774700541695,-0.0266117341878385,-0.329350728618296
1580422677.41432,-0.968032349126421,0.00170901045242999,-0.313725490196079
1580422677.41832,-0.948012512397955,-0.00268558785381856,-0.329350728618296
1580422677.42232,-0.909925993743801,-0.0456549935149155,-0.352300297550928
1580422677.42631,-0.88355840390631,-0.115968566414892,-0.321538109407188
1580422677.43031,-0.884534981307699,-0.165774013885709,-0.290775921263448
1580422677.43431,-0.884534981307699,-0.197512779430838,-0.285893034256505
1580422677.43831,-0.888929579613947,-0.231692988479438,-0.281498435950256
1580422677.44229,-0.889906157015336,-0.234134431982909,-0.282963302052339
1580422677.44629,-0.899183642328527,-0.192141603723201,-0.254154268711376
1580422677.45029,-0.90406652933547,-0.145754177157244,-0.254154268711376
1580422677.45429,-0.886488136110476,-0.134523537041275,-0.309330891889831
1580422677.45829,-0.86988632028687,-0.164797436484321,-0.361577782864119
1580422677.46229,-0.867933165484093,-0.196047913328755,-0.380132753490502
1580422677.46628,-0.879163805600061,-0.204837109941252,-0.348393987945373
1580422677.47028,-0.895277332722973,-0.206301976043335,-0.327397573815519
1580422677.47428,-0.905531395437553,-0.210696574349583,-0.365972381170367
1580422677.47828,-0.905531395437553,-0.237064164187075,-0.376714732585642
1580422677.48228,-0.936293583581293,-0.248783093003738,-0.344975967040513
1580422677.48628,-0.990005340657664,-0.235599298084992,-0.328374151216908
1580422677.49028,-1.02369726100557,-0.238040741588463,-0.334721904325933
1580422677.49427,-1.04859998474098,-0.271732661936371,-0.330815594720379
1580422677.49827,-1.06764324406805,-0.311284046692608,-0.330815594720379
1580422677.50227,-1.08668650339513,-0.348882276646068,-0.32983901731899
1580422677.50627,-1.10426489662013,-0.34692912184329,-0.299565117875945
1580422677.51027,-1.13405050736248,-0.308354314488442,-0.220950637064163
1580422677.51427,-1.14381628137636,-0.261478599221791,-0.202395666437781
1580422677.51827,-1.12819104295415,-0.245365072098878,-0.232669565880826
1580422677.52228,-1.11451895933471,-0.238040741588463,-0.210208285648889
1580422677.52628,-1.11647211413748,-0.187258716716258,-0.160402838178072
1580422677.53027,-1.11403067063401,-0.101808194094758,-0.144777599755855
1580422677.53427,-1.09645227740902,-0.0134279392690928,-0.152590218966964
1580422677.53827,-1.07399099717708,0.0515144579232469,-0.141847867551689
1580422677.54227,-1.05104142824445,0.0710460059510183,-0.153078507667658
1580422677.54627,-1.03053330281529,0.0612802319371326,-0.170656900892652
1580422677.55027,-1.02858014801251,0.0461432822156098,-0.168703746089875
1580422677.55427,-1.03297474631876,0.0510261692225527,-0.190188448920424
1580422677.55827,-1.03688105592432,0.0695811398489354,-0.207278553444723
1580422677.56226,-1.04567025253681,0.0783703364614325,-0.215091172655832
1580422677.56626,-1.06569008926528,0.0700694285496297,-0.225345235370412
1580422677.57026,-1.09596398870832,0.0871595330739297,-0.237064164187075
1580422677.57426,-1.12526131074998,0.114991989013504,-0.270756084534982
1580422677.57826,-1.15309376668955,0.114991989013504,-0.274174105439842
1580422677.58226,-1.19313344014649,0.0871595330739297,-0.268802929732205
1580422677.58626,-1.23756771190967,0.0402838178072784,-0.261966887922485
1580422677.59026,-1.2863965819791,-0.00903334096284425,-0.236087586785686
1580422677.59425,-1.33913176165408,-0.0383306630045013,-0.205325398641946
1580422677.59825,-1.3972381170367,-0.0388189517051956,-0.218997482261386
1580422677.60223,-1.43923094529641,-0.0305180437933927,-0.234622720683603
1580422677.60623,-1.4743877317464,-0.0358892195010299,-0.232669565880826
1580422677.61023,-1.50612649729152,-0.0363775082017241,-0.24682993820096
1580422677.61423,-1.53493553063249,-0.00952162966353853,-0.254154268711376
1580422677.61823,-1.56130312046998,0.048096437018387,-0.246341649500266
1580422677.62223,-1.57009231708247,0.096437018387121,-0.265384908827345
1580422677.62623,-1.5593499656672,0.0993667505912867,-0.300541695277333
1580422677.63022,-1.56472114137484,0.0778820477607383,-0.287846189059282
1580422677.63422,-1.58669413290608,0.0993667505912867,-0.232181277180132
1580422677.63822,-1.61501487754635,0.141847867551689,-0.218020904859998
1580422677.64222,-1.61403830014496,0.153566796368352,-0.23657587548638
1580422677.64622,-1.60085450522621,0.127199206530861,-0.258548867017625
1580422677.65022,-1.61013199053941,0.113038834210727,-0.269291218432899
1580422677.65422,-1.64284733348592,0.125246051728084,-0.236087586785686
1580422677.65822,-1.69167620355535,0.147219043259327,-0.224856946669718
1580422677.66221,-1.73659876401923,0.156008239871824,-0.251712825207905
1580422677.66621,-1.79421683070115,0.169192034790569,-0.271244373235676
1580422677.67021,-1.85085831998169,0.189211871519035,-0.281010147249562
1580422677.67421,-1.9011520561532,0.212649729152361,-0.321049820706493
1580422677.67821,-1.95437552452888,0.256107423514152,-0.35718318455787
1580422677.68222,-2.00759899290455,0.334721904325932,-0.348882276646068
1580422677.68622,-2.05008010986496,0.446540016784922,-0.387457084000916
1580422677.69022,-2.06472877088579,0.55640497444114,-0.432867933165484
1580422677.69422,-2.06472877088579,0.675547417410545,-0.453376058594644
1580422677.69822,-2.05886930647745,0.785900663767453,-0.444098573281453
1580422677.70221,-2.04959182116426,0.86305027847715,-0.435309376668956
1580422677.70621,-2.02175936522469,0.892835889219501,-0.465094987411307
1580422677.71021,-1.99343862058442,0.881605249103533,-0.465583276112001
1580422677.71421,-1.98611429007401,0.854749370565347,-0.438239108873121
1580422677.71821,-1.98171969176776,0.78101777676051,-0.472907606622416
1580422677.72221,-1.99246204318303,0.689219501029985,-0.485114824139773
1580422677.72621,-2.03201342793927,0.585214007782103,-0.530037384603647
1580422677.7302,-2.10183871213855,0.447028305485617,-0.599862668802929
1580422677.7342,-2.19851987487602,0.307866025787746,-0.705821316853589
1580422677.7382,-2.31277943083848,0.259525444419012,-0.74586099031052
1580422677.7422,-2.40457770656901,0.212649729152361,-0.785412375066759
1580422677.7462,-2.40457770656901,0.168703746089875,-0.834729533836882
1580422677.7502,-2.33133440146487,0.184328984512092,-0.780529488059816
1580422677.7542,-2.19070725566491,0.238529030289158,-0.7390249485008
1580422677.7582,-1.95584039063096,0.295170519569695,-0.785900663767453
1580422677.76218,-1.65896086060883,0.276127260242617,-0.892835889219501
1580422677.76618,-1.3718471046006,0.114015411612115,-0.891371023117419
1580422677.77017,-1.15162890058747,-0.102784771496147,-0.861585412375067
1580422677.77417,-1.04225223163195,-0.385992217898833,-0.780529488059816
1580422677.77817,-1.0300450141146,-0.74586099031052,-0.703868162050812
1580422677.78217,-1.04957656214237,-0.871839475089647,-0.441657129777981
1580422677.78617,-1.11598382543679,-0.860608834973679,-0.270267795834288
1580422677.79017,-1.16969558251316,-0.694102388036926,-0.321538109407188
1580422677.79417,-1.12574959945067,-0.2434119172961,-0.39136339360647
1580422677.79816,-1.01344319829099,0.229739833676661,-0.339604791332876
1580422677.80216,-0.897718776226444,0.55640497444114,-0.305912870984971
1580422677.80616,-0.81519798580911,0.799572747386893,-0.337163347829405
1580422677.81016,-0.785412375066759,1.03297474631876,-0.401129167620356
1580422677.81416,-0.817151140611887,1.18532082093538,-0.469001297016861
1580422677.81816,-0.844983596551462,1.18922713054093,-0.471442740520333
1580422677.82216,-0.80836194399939,1.0383459220264,-0.427008468757153
1580422677.82616,-0.713633936064697,0.797619592584116,-0.385015640497445
1580422677.83015,-0.580331120775158,0.538826581216146,-0.381597619592585
1580422677.83415,-0.448493171587701,0.319096665903714,-0.401129167620356
1580422677.83815,-0.341069657434959,0.158449683375295,-0.413824673838407
1580422677.84216,-0.260502021820402,0.0500495918211641,-0.381597619592585
1580422677.84616,-0.212649729152361,-0.00512703135728998,-0.327397573815519
1580422677.85016,-0.188235294117646,-0.0266117341878385,-0.259037155718319
1580422677.85416,-0.191165026321812,-0.00952162966353853,-0.189211871519035
1580422677.85816,-0.217532616159303,0.0319829098954756,-0.141847867551689
1580422677.86216,-0.257572289616236,0.0920424200808725,-0.0959487296864268
1580422677.86615,-0.302983138780805,0.143312733653772,-0.0749523155565726
1580422677.87015,-0.34692912184329,0.180422674906538,-0.0725108720531011
1580422677.87415,-0.387457084000916,0.207766842145418,-0.0749523155565726
1580422677.87815,-0.426520180056459,0.219974059662775,-0.0720225833524069
1580422677.88215,-0.45972381170367,0.225345235370412,-0.0432135500114441
1580422677.88615,-0.488532845044633,0.234622720683603,0.00415045395590141
1580422677.89015,-0.518806744487678,0.239505607690546,0.0437018387121384
1580422677.89415,-0.544686045624475,0.232669565880826,0.070557717250324
1580422677.89814,-0.56910048065919,0.204837109941252,0.0886243991760125
1580422677.90214,-0.596444647898069,0.165285725185015,0.0939955748836496
1580422677.90614,-0.628671702143892,0.116945143816281,0.0939955748836496
1580422677.91014,-0.657969024185549,0.070557717250324,0.0993667505912867
1580422677.91414,-0.696055542839703,0.0261234454871442,0.112550545510032
1580422677.91814,-0.731700617990386,-0.0139162279697871,0.130128938735027
1580422677.92212,-0.775646601052873,-0.0393072404058898,0.141359578850995
1580422677.92612,-0.822522316319525,-0.0583504997329669,0.145754177157244
1580422677.93012,-0.873792629892424,-0.0749523155565726,0.146242465857938
1580422677.93411,-0.920180056458381,-0.0852063782711525,0.140871290150301
1580422677.93811,-0.980727855344472,-0.105226214999618,0.125246051728084
1580422677.94211,-1.03736934462501,-0.115480277714198,0.115968566414892
1580422677.94611,-1.09938200961318,-0.125246051728084,0.0939955748836496
1580422677.95011,-1.16334782940413,-0.133546959639887,0.0710460059510183
1580422677.95411,-1.23170824750133,-0.142824444953078,0.0485847257190812
1580422677.95811,-1.31227588311589,-0.159426260776684,0.0246585793850613
1580422677.96211,-1.39870298313878,-0.176028076600289,-0.0173342488746471
1580422677.9661,-1.47975890745403,-0.197512779430838,-0.0656748302433812
1580422677.9701,-1.55642023346303,-0.208743419546806,-0.116456855115587
1580422677.9741,-1.62575722896162,-0.209231708247501,-0.164797436484321
1580422677.9781,-1.68142214084077,-0.197024490730143,-0.187747005416952
1580422677.9821,-1.72683299000534,-0.184328984512092,-0.205325398641946
1580422677.9861,-1.77077897306783,-0.183352407110704,-0.224368657969023
1580422677.9901,-1.81130693522545,-0.202883955138475,-0.248783093003738
1580422677.9941,-1.85183489738308,-0.234622720683603,-0.261966887922485
1580422677.9981,-1.8845502403296,-0.286869611657893,-0.293705653467613
1580422678.0021,-1.90066376745251,-0.348882276646068,-0.323491264209965
1580422678.0061,-1.91335927367056,-0.420660715648127,-0.345464255741208
1580422678.0101,-1.91531242847334,-0.506599526970321,-0.369390402075227
1580422678.0141,-1.91726558327611,-0.613046463721675,-0.393316548409247
1580422678.0181,-1.92703135729,-0.743907835507743,-0.414801251239796
1580422678.0221,-1.94509803921569,-0.877698939497979,-0.426031891355764
1580422678.0261,-1.97732509346151,-1.02027924010071,-0.431891355764096
1580422678.0301,-2.03640802624552,-1.17116044861524,-0.439703974975204
1580422678.03409,-2.11551079575799,-1.33864347295338,-0.437262531471733
1580422678.03809,-2.21414511329824,-1.51931029221027,-0.428473334859236
1580422678.04209,-2.31277943083848,-1.70144197756924,-0.398687724116884
1580422678.04609,-2.3713740749218,-1.86404211490044,-0.36743724727245
1580422678.05009,-2.36502632181277,-2.00173952849622,-0.362554360265507
1580422678.05409,-2.2854352635996,-2.12185854886702,-0.365484092469673
1580422678.05809,-2.15017929350729,-2.22977035172045,-0.361089494163425
1580422678.06209,-1.9612115663386,-2.32645151445792,-0.396246280613413
1580422678.06608,-1.73171587701228,-2.42557412069886,-0.462653543907836
1580422678.07008,-1.45436789501793,-2.49881742580301,-0.605722133211261
1580422678.07408,-1.19801632715343,-2.5764553292134,-0.762462806134128
1580422678.07808,-0.971938658731975,-2.63212024109255,-0.914808880750744
1580422678.08206,-0.792736705577173,-2.69120317387655,-1.0720378423743
1580422678.08606,-0.696055542839703,-2.76932936598764,-1.19948119325551
1580422678.09006,-0.659922178988326,-2.8840772106508,-1.2517280842298
1580422678.09406,-0.656992446784161,-2.97441062027924,-1.19948119325551
1580422678.09806,-0.656504158083466,-3.00175478751812,-1.06178377965972
1580422678.10205,-0.636972610055695,-2.9690394445716,-0.90748455024033
1580422678.10605,-0.609628442816815,-2.91093308918898,-0.770275425345236
1580422678.11005,-0.587655451285572,-2.87284657053483,-0.646250095368886
1580422678.11405,-0.580331120775158,-2.84647898069734,-0.539803158617532
1580422678.11805,-0.617929350728618,-2.82108796826124,-0.45630579079881
1580422678.12205,-0.69459067673762,-2.79227893492027,-0.410406652933547
1580422678.12605,-0.785412375066759,-2.76884107728695,-0.393316548409247
1580422678.13005,-0.870374608987564,-2.73466086823835,-0.375738155184253
1580422678.13404,-0.933852140077821,-2.68387884336614,-0.36401922636759
1580422678.13804,-0.98609903105211,-2.60526436255436,-0.347905699244679
1580422678.14204,-1.19313344014649,-2.46561379415579,-0.40161745632105
1580422678.14604,-1.21998931868467,-2.20975051499199,-0.405523765926604
1580422678.15004,-1.28932631418326,-1.7043717097734,-0.570077058060578
1580422678.15404,-1.46364538033112,-0.734142061493857,-0.725841153582055
1580422678.15804,-1.61159685664149,0.188235294117646,-0.672129396505683
1580422678.16205,-1.79128709849699,1.40798046845197,-0.559822995345998
1580422678.16605,-2.11551079575799,3.51396963454643,-0.50757610437171
1580422678.17004,-2.41092545967803,4.70637064164187,-0.299565117875945
1580422678.17404,-2.57401388570993,3.88311589227131,0.0627450980392155
1580422678.17804,-2.13699549858854,2.25955596246281,0.599374380102237
1580422678.18204,-1.46999313344015,0.908949416342413,0.711680781261922
1580422678.18604,-1.16871900511177,0.0476081483176927,0.253177691309986
1580422678.19004,-1.15895323109789,-0.793713282978562,-0.365972381170367
1580422678.19404,-1.26149385824369,-1.72634470130465,-0.717540245670252
1580422678.19804,-1.51052109559777,-1.66482032501717,-0.680430304417486
1580422678.20204,-1.46218051422904,-1.31569390402075,-0.415777828641184
1580422678.20603,-1.24538033112077,-1.10914778362707,-0.309819180590525
1580422678.21003,-1.04371709773404,-0.963637750820173,-0.338139925230793
1580422678.21403,-0.951430533302815,-0.776134889753568,-0.416754406042573
1580422678.21803,-1.00123598077363,-0.580331120775158,-0.475349050125887
1580422678.22203,-1.14332799267567,-0.43237964446479,-0.406012054627299
1580422678.22603,-1.31276417181659,-0.356206607156482,-0.348393987945373
1580422678.23003,-1.47096971084154,-0.444098573281453,-0.35718318455787
1580422678.23403,-1.63308155947204,-0.675059128709849,-0.35034714274815
1580422678.23802,-1.76247806515602,-0.929457541771573,-0.331303883421073
1580422678.242,-1.74880598153658,-1.08278019378958,-0.320073243305105
1580422678.246,-1.62380407415885,-1.0720378423743,-0.332280460822462
1580422678.25,-1.47829404135195,-0.937270160982681,-0.382085908293279
1580422678.254,-1.34352635996033,-0.741466392004272,-0.371343556878005
1580422678.258,-1.2263370717937,-0.53492027161059,-0.260502021820402
1580422678.262,-1.09547570000763,-0.381597619592585,-0.128664072632944
1580422678.266,-0.936781872281987,-0.300053406576639,-0.0466315709163041
1580422678.26999,-0.763439383535516,-0.322514686808576,-0.0871595330739297
1580422678.27399,-0.599374380102235,-0.431403067063401,-0.218997482261386
1580422678.27799,-0.496345464255741,-0.573006790264744,-0.38110933089189
1580422678.28199,-0.47339589532311,-0.688731212329289,-0.505622949568933
1580422678.28599,-0.533455405508507,-0.7390249485008,-0.556404974441138
1580422678.28999,-0.624277103837644,-0.720469977874417,-0.572030212863355
1580422678.29399,-0.686778057526512,-0.68433661402304,-0.557869840543221
1580422678.29799,-0.730235751888303,-0.660898756389715,-0.534431982909895
1580422678.30199,-0.79127183947509,-0.655527580682078,-0.497810330357824
1580422678.30598,-0.888929579613947,-0.630624856946669,-0.451422903791867
1580422678.30998,-0.996841382467384,-0.581795986877241,-0.400152590218967
1580422678.31398,-1.08619821469444,-0.503669794766155,-0.371343556878005
1580422678.31798,-1.14821087968261,-0.416266117341879,-0.385992217898833
1580422678.32199,-1.19606317235065,-0.33667505912871,-0.406988632028687
1580422678.32599,-1.24831006332494,-0.280033569848174,-0.41187151903563
1580422678.32999,-1.30397497520409,-0.225833524071106,-0.404547188525216
1580422678.33399,-1.34840924696727,-0.172121766994735,-0.382085908293279
1580422678.33799,-1.37575341420615,-0.131593804837109,-0.328374151216908
1580422678.34198,-1.37917143511101,-0.101319905394064,-0.296635385671779
1580422678.34598,-1.34401464866102,-0.101808194094758,-0.251224536507211
1580422678.34998,-1.29616235599298,-0.109132524605172,-0.205813687342641
1580422678.35398,-1.23414969100481,-0.125246051728084,-0.183352407110704
1580422678.35798,-1.16871900511177,-0.145265888456549,-0.174563210498206
1580422678.36198,-1.10084687571527,-0.177981231403066,-0.191165026321812
1580422678.36598,-1.03248645761807,-0.229739833676661,-0.214602883955138
1580422678.36998,-0.979751277943084,-0.289311055161365,-0.207766842145418
1580422678.37397,-0.943617914091707,-0.327397573815519,-0.202883955138475
1580422678.37797,-0.920180056458381,-0.349370565346762,-0.190676737621118
1580422678.38197,-0.913832303349356,-0.34009308003357,-0.189211871519035
1580422678.38597,-0.912855725947967,-0.300053406576639,-0.192141603723201
1580422678.38997,-0.912367437247273,-0.245365072098878,-0.209231708247501
1580422678.39397,-0.908949416342413,-0.200442511635003,-0.260990310521096
1580422678.39797,-0.897718776226444,-0.201419089036392,-0.321049820706493
1580422678.40195,-0.89381246662089,-0.23315785458152,-0.374761577782865
1580422678.40594,-0.91090257114519,-0.269779507133594,-0.402105745021744
1580422678.40994,-0.944594491493095,-0.293217364766919,-0.386480506599527
1580422678.41394,-0.991958495460441,-0.280033569848174,-0.339604791332876
1580422678.41794,-1.01686121919585,-0.256595712214848,-0.335210193026628
1580422678.42194,-1.01539635309377,-0.261966887922485,-0.335210193026628
1580422678.42594,-1.00514229037919,-0.285893034256505,-0.359136339360647
1580422678.42994,-1.00611886778058,-0.298100251773862,-0.373785000381476
1580422678.43394,-1.02027924010071,-0.279056992446785,-0.362554360265507
1580422678.43793,-1.02369726100557,-0.228763256275272,-0.328374151216908
1580422678.44193,-0.994888227664607,-0.174563210498206,-0.292240787365531
1580422678.44593,-0.96900892652781,-0.12475776302739,-0.294682230869002
1580422678.44993,-0.935805294880598,-0.0930189974822611,-0.33667505912871
1580422678.45393,-0.90748455024033,-0.0764171816586554,-0.330327306019685
1580422678.45793,-0.902601663233387,-0.0500495918211641,-0.293217364766919
1580422678.46193,-0.898695353627833,-0.0266117341878385,-0.282475013351645
1580422678.46593,-0.881605249103533,-0.0290531776913099,-0.270267795834288
1580422678.46993,-0.876234073395896,-0.0690928511482412,-0.254642557412071
1580422678.47392,-0.882093537804227,-0.117433432516975,-0.265384908827345
1580422678.47792,-0.888929579613947,-0.165285725185015,-0.279545281147479
1580422678.48193,-0.905043106736859,-0.190676737621118,-0.276615548943314
1580422678.48593,-0.929945830472267,-0.198001068131532,-0.283939879453728
1580422678.48993,-0.946547646295873,-0.206790264744029,-0.304936293583582
1580422678.49393,-0.974868390936141,-0.226321812771801,-0.316655222400245
1580422678.49793,-1.01441977569238,-0.251712825207905,-0.33325703822385
1580422678.50193,-1.04274052033265,-0.266361486228734,-0.327397573815519
1580422678.50593,-1.08863965819791,-0.270756084534982,-0.312260624093996
1580422678.50992,-1.11647211413748,-0.287357900358588,-0.310795757991913
1580422678.51392,-1.11647211413748,-0.305424582284276,-0.31958495460441
1580422678.51792,-1.11451895933471,-0.302494850080111,-0.311772335393302
1580422678.52192,-1.11549553673609,-0.265384908827345,-0.271244373235676
1580422678.52592,-1.10817120622568,-0.200930800335698,-0.297123674372473
1580422678.52992,-1.07496757457847,-0.140383001449607,-0.335210193026628
1580422678.53392,-1.04322880903334,-0.108644235904478,-0.319096665903716
1580422678.53792,-1.03248645761807,-0.0666514076447697,-0.277592126344702
1580422678.54191,-1.03102159151598,0.00415045395590141,-0.249759670405126
1580422678.54591,-1.01783779659724,0.0661631189440754,-0.222903791866941
1580422678.54991,-0.998306248569467,0.0866712443732354,-0.192629892423895
1580422678.55391,-0.985610742351415,0.0900892652780954,-0.188723582818341
1580422678.55791,-0.985122453650721,0.110109102006561,-0.170656900892652
1580422678.56189,-0.989028763256275,0.122316319523918,-0.161379415579461
1580422678.56589,-0.993911650263218,0.118898298619058,-0.139406424048218
1580422678.56989,-0.997329671168078,0.10083161669337,-0.139406424048218
1580422678.57389,-0.99977111467155,0.0920424200808725,-0.156984817273212
1580422678.57788,-1.01686121919585,0.0720225833524069,-0.160402838178072
1580422678.58188,-1.04811169604028,0.0666514076447697,-0.187258716716258
1580422678.58588,-1.08766308079652,0.0690928511482412,-0.217044327458609
1580422678.58988,-1.13698023956664,0.0813000686655982,-0.227786678873883
1580422678.59388,-1.18873884184024,0.0920424200808725,-0.237064164187075
1580422678.59788,-1.23610284580758,0.0900892652780954,-0.251712825207905
1580422678.60188,-1.28883802548257,0.0729991607537954,-0.248783093003738
1580422678.60588,-1.33424887464714,0.0754406042572668,-0.247318226901655
1580422678.60987,-1.35866330968185,0.067139696345464,-0.269779507133594
1580422678.61387,-1.36647592889296,0.0490730144197755,-0.276615548943314
1580422678.61787,-1.38063630121309,0.0441901274128327,-0.251224536507211
1580422678.62187,-1.40065613794156,0.0959487296864268,-0.218020904859998
1580422678.62587,-1.3972381170367,0.152101930266269,-0.246341649500266
1580422678.62987,-1.37380025940337,0.149172198062104,-0.291752498664836
1580422678.63387,-1.36549935149157,0.128664072632944,-0.302006561379416
1580422678.63787,-1.38796063172351,0.118410009918364,-0.285893034256505
1580422678.64188,-1.42800030518044,0.108155947203784,-0.260990310521096
1580422678.64587,-1.46852826733806,0.107179369802395,-0.269291218432899
1580422678.64987,-1.49684901197833,0.0822766460669868,-0.282475013351645
1580422678.65387,-1.53542381933318,0.0559090562294955,-0.269291218432899
1580422678.65787,-1.58718242160677,0.0612802319371326,-0.271732661936371
1580422678.66187,-1.63698786907759,0.0803234912642097,-0.288822766460671
1580422678.66587,-1.67653925383383,0.119386587319752,-0.318120088502328
1580422678.66987,-1.71071946288243,0.158937972075989,-0.356206607156482
1580422678.67387,-1.75075913633936,0.196536202029449,-0.379644464789807
1580422678.67787,-1.79763485160601,0.226321812771801,-0.38794537270161
1580422678.68186,-1.84597543297475,0.234622720683603,-0.406012054627299
1580422678.68586,-1.89968719005112,0.232181277180132,-0.433844510566873
1580422678.68986,-1.9529106584268,0.247318226901655,-0.467048142214084
1580422678.69386,-1.99295033188373,0.2605020218204,-0.490974288548104
1580422678.69786,-2.03347829404135,0.268314641031509,-0.532967116807813
1580422678.70186,-2.07009994659342,0.288334477759975,-0.558358129243915
1580422678.70586,-2.13650720988785,0.382085908293277,-0.509040970473793
1580422678.70985,-2.22244602121004,0.560311284046694,-0.475349050125887
1580422678.71385,-2.2600442511635,0.751232166018159,-0.494392309452964
1580422678.71785,-2.23660639353017,0.885511558709087,-0.51441214618143
1580422678.72183,-2.17898832684825,0.944106202792401,-0.477790493629358
1580422678.72583,-2.13601892118715,0.941176470588236,-0.407965209430076
1580422678.72983,-2.10428015564202,0.885511558709087,-0.34351110093843
1580422678.73383,-2.07254139009689,0.799084458686199,-0.327885862516213
1580422678.73783,-2.0461738002594,0.671152819104297,-0.308842603189136
1580422678.74183,-2.03689631494621,0.508064393072406,-0.315678644998856
1580422678.74582,-2.0637521934844,0.35278858625162,-0.40503547722591
1580422678.74982,-2.11990539406424,0.251712825207903,-0.522713054093233
1580422678.75382,-2.19705500877394,0.253177691309986,-0.573495078965438
1580422678.75782,-2.27127489127947,0.323491264209963,-0.621347371633478
1580422678.76182,-2.29666590371557,0.3972228580148,-0.703379873350118
1580422678.76582,-2.2771343556878,0.468513008316165,-0.762462806134128
1580422678.76982,-2.21414511329824,0.517830167086291,-0.766857404440376
1580422678.77382,-2.10281528953994,0.544197756923783,-0.729747463187609
1580422678.77781,-1.90701152056153,0.55298695353628,-0.733165484092469
1580422678.78181,-1.63405813687343,0.489509422446019,-0.820080872816053
1580422678.78581,-1.3718471046006,0.30493629358358,-0.719005111772335
1580422678.78981,-1.18532082093538,0.00854505226214997,-0.642343785763332
1580422678.79381,-1.09987029831388,-0.378667887388419,-0.639414053559166
1580422678.79781,-1.10817120622568,-0.779552910658428,-0.524177920195315
1580422678.80182,-1.17018387121385,-1.07936217288472,-0.41187151903563
1580422678.80582,-1.20241092545968,-1.08375677119097,-0.420660715648127
1580422678.80982,-1.16578927290761,-0.714122224765392,-0.386480506599527
1580422678.81381,-1.072526131075,-0.192141603723201,-0.310795757991913
1580422678.81781,-0.94166475928893,0.26392004272526,-0.250736247806516
1580422678.82181,-0.81861600671397,0.623788815136951,-0.199465934233615
1580422678.82581,-0.722423132677195,0.950942244602121,-0.221927214465552
1580422678.82981,-0.699961852445258,1.23659113450828,-0.324956130312048
1580422678.83381,-0.730235751888303,1.41091020065614,-0.399664301518273
1580422678.83781,-0.748790722514686,1.42751201647974,-0.414801251239796
1580422678.84181,-0.733165484092469,1.30104524299992,-0.379156176089113
