Timestamp_seconds,Gyro_X_s,Gyro_Y_s,Gyro_Z_s
1580422672.2522,-2.41092545967808,-2.7771419851988,-5.40169375143046
1580422672.2562,-2.7771419851988,-2.65506981002522,-5.52376592660403
1580422672.2602,-2.7161058976119,-2.89921416037237,-5.40169375143046
1580422672.26419,-1.61745632104976,-2.96025024795904,-5.27962157625689
1580422672.26819,-1.0070954451819,-2.34988937209118,-5.03547722590974
1580422672.27219,-0.946059357595232,-2.28885328450451,-4.7913328755626
1580422672.27619,-1.49538414587619,-2.34988937209118,-4.8523689631495
1580422672.28019,-2.7771419851988,-2.59403372243833,-4.97444113832307
1580422672.28419,-3.32646677347975,-2.65506981002522,-5.52376592660403
1580422672.28819,-3.20439459830618,-2.28885328450451,-5.52376592660403
1580422672.29219,-2.7771419851988,-2.10574502174404,-5.46272983901736
1580422672.29619,-2.10574502174404,-2.22781719691761,-5.52376592660403
1580422672.30018,-1.98367284657047,-2.22781719691761,-5.52376592660403
1580422672.30418,-2.22781719691761,-2.41092545967808,-5.52376592660403
1580422672.30818,-2.22781719691761,-2.41092545967808,-5.52376592660403
1580422672.31218,-2.04470893415737,-2.16678110933094,-5.27962157625689
1580422672.31618,-1.80056458381023,-1.9226367589838,-5.15754940108332
1580422672.32018,-1.43434805828952,-1.55642023346309,-5.15754940108332
1580422672.32416,-0.885023270008332,-1.61745632104976,-5.15754940108332
1580422672.32816,-0.213626306553806,-1.49538414587619,-5.15754940108332
1580422672.33215,0.762951094834762,-1.43434805828952,-4.91340505073617
1580422672.33615,1.19020370794237,-1.43434805828952,-4.73029678797593
1580422672.34015,0.640878919661191,-1.31227588311594,-4.54718852521546
1580422672.34415,0.152590218966907,-1.0681315327688,-4.60822461280236
1580422672.34815,-0.51880674448762,-1.19020370794237,-4.66926070038903
1580422672.35215,-0.70191500724809,-1.12916762035547,-4.60822461280236
1580422672.35615,-0.823987182421661,-1.12916762035547,-4.54718852521546
1580422672.36015,-0.823987182421661,-0.946059357595232,-4.24200808728165
1580422672.36415,-0.70191500724809,-0.823987182421661,-4.18097199969475
1580422672.36814,-0.640878919661191,-0.885023270008332,-4.05889982452118
1580422672.37214,-1.0681315327688,-0.762951094834762,-3.99786373693451
1580422672.37614,-1.31227588311594,-0.70191500724809,-3.93682764934761
1580422672.38014,-1.12916762035547,-0.640878919661191,-3.93682764934761
1580422672.38414,-0.640878919661191,-0.457770656900948,-3.69268329900046
1580422672.38814,-0.152590218966907,-0.213626306553806,-3.44853894865332
1580422672.39214,-0.152590218966907,0.0305180437933359,-3.32646677347975
1580422672.39613,-0.396734569314049,-0.0305180437933359,-3.38750286106665
1580422672.40013,-1.0070954451819,-0.152590218966907,-3.44853894865332
1580422672.40414,-1.61745632104976,-0.335698481727377,-3.75371938658736
1580422672.40814,-1.8616006713969,-0.213626306553806,-3.81475547417404
1580422672.41214,-1.61745632104976,-0.152590218966907,-3.69268329900046
1580422672.41614,-1.61745632104976,0.213626306553806,-3.57061112382689
1580422672.42014,-2.04470893415737,0.335698481727377,-3.44853894865332
1580422672.42414,-2.28885328450451,-0.0305180437933359,-3.57061112382689
1580422672.42814,-2.59403372243833,-0.152590218966907,-3.50957503624022
1580422672.43213,-2.59403372243833,-0.213626306553806,-3.57061112382689
1580422672.43613,-2.04470893415737,-0.152590218966907,-3.50957503624022
1580422672.44013,-1.8616006713969,0.091554131380235,-3.26543068589308
1580422672.44413,-1.25123979552905,0.396734569314049,-3.08232242313261
1580422672.44813,-1.25123979552905,0.274662394140478,-3.02128633554594
1580422672.45213,-1.73952849622333,0.274662394140478,-2.83817807278547
1580422672.45613,-1.55642023346309,-0.0305180437933359,-2.89921416037237
1580422672.46013,-1.25123979552905,-0.152590218966907,-2.59403372243833
1580422672.46412,-0.640878919661191,0.0305180437933359,-2.22781719691761
1580422672.46812,-0.152590218966907,0.091554131380235,-1.98367284657047
1580422672.47212,0.274662394140478,0.274662394140478,-1.80056458381023
1580422672.47612,0.640878919661191,0.274662394140478,-1.61745632104976
1580422672.48012,0.823987182421661,-0.0305180437933359,-1.61745632104976
1580422672.4841,0.885023270008332,0.0305180437933359,-1.49538414587619
1580422672.4881,1.37331197070262,-0.335698481727377,-1.31227588311594
1580422672.4921,1.73952849622333,-0.335698481727377,-1.12916762035547
1580422672.4961,1.98367284657047,-0.274662394140478,-1.12916762035547
1580422672.50009,2.28885328450451,-0.457770656900948,-1.0681315327688
1580422672.50409,2.65506981002522,-0.51880674448762,-1.0681315327688
1580422672.50809,3.02128633554594,-0.762951094834762,-0.946059357595232
1580422672.51209,2.65506981002522,-0.823987182421661,-0.823987182421661
1580422672.51609,2.7771419851988,-0.823987182421661,-0.885023270008332
1580422672.52009,3.32646677347975,-0.762951094834762,-0.70191500724809
1580422672.52409,4.11993591210808,-0.70191500724809,-0.640878919661191
1580422672.52809,4.73029678797593,-1.0070954451819,-0.396734569314049
1580422672.53208,4.97444113832307,-1.37331197070262,-0.579842832074519
1580422672.53608,4.97444113832307,-1.61745632104976,-0.396734569314049
1580422672.54008,4.7913328755626,-1.55642023346309,-0.457770656900948
1580422672.54408,4.60822461280236,-1.67849240863666,-0.579842832074519
1580422672.54808,4.30304417486832,-1.73952849622333,-0.70191500724809
1580422672.55208,3.87579156176093,-1.73952849622333,-0.823987182421661
1580422672.55608,3.69268329900046,-1.98367284657047,-1.12916762035547
1580422672.56008,3.75371938658736,-1.9226367589838,-1.25123979552905
1580422672.56409,3.99786373693451,-1.98367284657047,-1.37331197070262
1580422672.56808,3.50957503624022,-2.04470893415737,-1.67849240863666
1580422672.57208,2.65506981002522,-2.22781719691761,-1.8616006713969
1580422672.57608,2.22781719691761,-2.34988937209118,-2.10574502174404
1580422672.58008,1.98367284657047,-2.47196154726475,-2.22781719691761
1580422672.58408,2.59403372243833,-2.65506981002522,-2.41092545967808
1580422672.58808,3.26543068589308,-2.89921416037237,-2.41092545967808
1580422672.59208,3.26543068589308,-2.96025024795904,-2.22781719691761
1580422672.59608,3.02128633554594,-3.20439459830618,-2.16678110933094
1580422672.60008,2.16678110933094,-3.14335851071951,-2.34988937209118
1580422672.60407,1.80056458381023,-3.50957503624022,-2.59403372243833
1580422672.60807,1.61745632104976,-3.57061112382689,-2.7161058976119
1580422672.61207,1.73952849622333,-3.38750286106665,-2.7161058976119
1580422672.61607,2.16678110933094,-3.38750286106665,-2.83817807278547
1580422672.62007,1.9226367589838,-3.20439459830618,-2.89921416037237
1580422672.62407,1.61745632104976,-3.32646677347975,-3.02128633554594
1580422672.62807,1.67849240863666,-3.57061112382689,-3.38750286106665
1580422672.63206,1.49538414587619,-3.38750286106665,-3.63164721141379
1580422672.63606,1.0681315327688,-3.38750286106665,-3.75371938658736
1580422672.64006,0.51880674448762,-3.44853894865332,-3.75371938658736
1580422672.64404,-0.0305180437933359,-3.14335851071951,-3.75371938658736
1580422672.64804,-0.762951094834762,-2.83817807278547,-3.99786373693451
1580422672.65204,-1.49538414587619,-2.96025024795904,-4.30304417486832
1580422672.65604,-2.41092545967808,-2.96025024795904,-4.66926070038903
1580422672.66004,-2.83817807278547,-3.38750286106665,-5.03547722590974
1580422672.66404,-2.83817807278547,-3.57061112382689,-5.15754940108332
1580422672.66804,-2.41092545967808,-3.50957503624022,-5.09651331349664
1580422672.67203,-2.16678110933094,-3.20439459830618,-4.91340505073617
1580422672.67603,-2.7161058976119,-3.08232242313261,-5.09651331349664
1580422672.68003,-3.32646677347975,-3.44853894865332,-5.15754940108332
1580422672.68403,-3.57061112382689,-3.26543068589308,-5.15754940108332
1580422672.68803,-2.96025024795904,-3.14335851071951,-5.15754940108332
1580422672.69203,-2.22781719691761,-3.63164721141379,-5.09651331349664
1580422672.69603,-2.47196154726475,-3.69268329900046,-4.91340505073617
1580422672.70002,-2.22781719691761,-3.20439459830618,-4.7913328755626
1580422672.70402,-1.8616006713969,-3.14335851071951,-4.73029678797593
1580422672.70802,-2.47196154726475,-3.14335851071951,-4.7913328755626
1580422672.71202,-3.02128633554594,-3.20439459830618,-5.03547722590974
1580422672.71602,-3.75371938658736,-3.08232242313261,-5.52376592660403
1580422672.72002,-4.60822461280236,-2.96025024795904,-5.6458381017776
1580422672.72403,-5.27962157625689,-2.89921416037237,-5.95101853971164
1580422672.72803,-5.76791027695117,-2.59403372243833,-5.95101853971164
1580422672.73203,-6.68345159075307,-2.89921416037237,-6.25619897764545
1580422672.73602,-7.17174029144735,-3.26543068589308,-6.37827115281902
1580422672.74002,-7.59899290455473,-3.02128633554594,-6.62241550316617
1580422672.74402,-7.04966811627378,-3.02128633554594,-6.62241550316617
1580422672.74802,-5.7068741893645,-3.20439459830618,-6.37827115281902
1580422672.75202,-3.99786373693451,-2.96025024795904,-6.01205462729831
1580422672.75602,-1.43434805828952,-2.65506981002522,-5.46272983901736
1580422672.76002,-0.0305180437933359,-2.22781719691761,-5.15754940108332
1580422672.76402,0.823987182421661,-2.47196154726475,-4.97444113832307
1580422672.76801,1.0681315327688,-2.7161058976119,-5.09651331349664
1580422672.77201,0.640878919661191,-2.7161058976119,-5.03547722590974
1580422672.77601,-0.152590218966907,-2.65506981002522,-5.34065766384379
1580422672.78001,-0.70191500724809,-2.83817807278547,-5.6458381017776
1580422672.78401,-1.37331197070262,-2.41092545967808,-5.95101853971164
1580422672.78801,-1.61745632104976,-2.7771419851988,-6.07309071488521
1580422672.79201,-2.16678110933094,-3.02128633554594,-6.31723506523235
1580422672.79601,-3.38750286106665,-3.14335851071951,-6.37827115281902
1580422672.80001,-4.18097199969475,-2.96025024795904,-6.25619897764545
1580422672.80398,-4.48615243762879,-2.59403372243833,-6.31723506523235
1580422672.80798,-3.81475547417404,-2.7161058976119,-6.19516289005878
1580422672.81198,-3.20439459830618,-2.7771419851988,-6.07309071488521
1580422672.81598,-3.20439459830618,-3.08232242313261,-6.13412680247188
1580422672.81998,-2.83817807278547,-3.26543068589308,-6.01205462729831
1580422672.82398,-2.7161058976119,-3.08232242313261,-5.7068741893645
1580422672.82798,-2.89921416037237,-2.47196154726475,-5.6458381017776
1580422672.83198,-3.20439459830618,-2.28885328450451,-5.52376592660403
1580422672.83597,-3.50957503624022,-2.28885328450451,-5.7068741893645
1580422672.83997,-4.36408026245522,-2.22781719691761,-5.82894636453807
1580422672.84397,-4.8523689631495,-2.10574502174404,-5.76791027695117
1580422672.84797,-5.34065766384379,-1.98367284657047,-5.82894636453807
1580422672.85197,-5.7068741893645,-2.10574502174404,-6.01205462729831
1580422672.85597,-6.01205462729831,-2.28885328450451,-6.19516289005878
1580422672.85997,-6.68345159075307,-2.28885328450451,-6.31723506523235
1580422672.86397,-7.29381246662092,-2.28885328450451,-6.19516289005878
1580422672.86796,-7.11070420386045,-2.16678110933094,-6.19516289005878
1580422672.87196,-6.31723506523235,-2.22781719691761,-5.82894636453807
1580422672.87596,-5.7068741893645,-2.04470893415737,-5.40169375143046
1580422672.87996,-5.15754940108332,-1.67849240863666,-5.15754940108332
1580422672.88397,-4.66926070038903,-1.43434805828952,-4.91340505073617
1580422672.88797,-4.24200808728165,-1.37331197070262,-4.66926070038903
1580422672.89197,-3.87579156176093,-1.19020370794237,-4.48615243762879
1580422672.89597,-3.57061112382689,-1.12916762035547,-4.24200808728165
1580422672.89997,-3.44853894865332,-1.0070954451819,-4.18097199969475
1580422672.90397,-3.38750286106665,-0.885023270008332,-4.11993591210808
1580422672.90796,-2.83817807278547,-0.885023270008332,-3.81475547417404
1580422672.91196,-2.34988937209118,-0.823987182421661,-3.75371938658736
1580422672.91596,-2.34988937209118,-0.640878919661191,-3.50957503624022
1580422672.91996,-2.28885328450451,-0.762951094834762,-3.20439459830618
1580422672.92396,-2.22781719691761,-0.762951094834762,-2.96025024795904
1580422672.92796,-2.16678110933094,-0.823987182421661,-2.83817807278547
1580422672.93196,-2.22781719691761,-0.640878919661191,-2.7161058976119
1580422672.93596,-2.10574502174404,-0.457770656900948,-2.59403372243833
1580422672.93995,-1.67849240863666,-0.579842832074519,-2.53299763485165
1580422672.94395,-1.61745632104976,-0.51880674448762,-2.59403372243833
1580422672.94795,-1.61745632104976,-0.335698481727377,-2.65506981002522
1580422672.95195,-1.12916762035547,-0.152590218966907,-2.47196154726475
1580422672.95595,-1.0681315327688,0.152590218966907,-2.34988937209118
1580422672.95995,-1.73952849622333,-0.152590218966907,-2.28885328450451
1580422672.96393,-2.59403372243833,-0.335698481727377,-2.47196154726475
1580422672.96793,-3.08232242313261,-0.396734569314049,-2.47196154726475
1580422672.97193,-2.89921416037237,-0.335698481727377,-2.53299763485165
1580422672.97592,-2.47196154726475,-0.152590218966907,-2.41092545967808
1580422672.97992,-2.10574502174404,-0.091554131380235,-2.22781719691761
1580422672.98392,-2.34988937209118,-0.0305180437933359,-1.98367284657047
1580422672.98792,-3.08232242313261,0.0305180437933359,-1.80056458381023
1580422672.99192,-3.69268329900046,-0.152590218966907,-1.8616006713969
1580422672.99592,-3.50957503624022,-0.396734569314049,-1.9226367589838
1580422672.99992,-2.7161058976119,-0.335698481727377,-1.73952849622333
1580422673.00391,-1.80056458381023,-0.274662394140478,-1.61745632104976
1580422673.00791,-0.762951094834762,0.091554131380235,-1.43434805828952
1580422673.01191,-0.396734569314049,-0.091554131380235,-1.0070954451819
1580422673.01591,-0.335698481727377,0.091554131380235,-0.823987182421661
1580422673.01991,-0.579842832074519,0.335698481727377,-0.51880674448762
1580422673.02391,-0.640878919661191,0.335698481727377,-0.274662394140478
1580422673.02791,-0.640878919661191,0.213626306553806,-0.274662394140478
1580422673.03191,-0.152590218966907,0.213626306553806,-0.152590218966907
1580422673.0359,0.274662394140478,0.335698481727377,-0.152590218966907
1580422673.0399,0.640878919661191,0.579842832074519,-0.0305180437933359
1580422673.04391,1.0070954451819,0.579842832074519,0.213626306553806
1580422673.04791,1.12916762035547,0.640878919661191,0.335698481727377
1580422673.05191,1.0070954451819,0.51880674448762,0.457770656900948
1580422673.05591,0.762951094834762,0.640878919661191,0.51880674448762
1580422673.05991,0.640878919661191,0.946059357595232,0.579842832074519
1580422673.06391,0.70191500724809,1.0681315327688,0.640878919661191
1580422673.06791,0.335698481727377,1.19020370794237,0.762951094834762
1580422673.07191,-0.0305180437933359,1.12916762035547,0.70191500724809
1580422673.0759,-0.396734569314049,0.885023270008332,0.762951094834762
1580422673.0799,-0.396734569314049,1.0070954451819,0.640878919661191
1580422673.0839,-0.335698481727377,1.25123979552905,0.70191500724809
1580422673.0879,-0.457770656900948,1.25123979552905,0.70191500724809
1580422673.0919,-0.335698481727377,1.19020370794237,0.946059357595232
1580422673.0959,-0.091554131380235,1.37331197070262,0.946059357595232
1580422673.0999,-0.152590218966907,1.49538414587619,1.0070954451819
1580422673.1039,-0.396734569314049,1.80056458381023,1.0681315327688
1580422673.10789,-0.396734569314049,1.67849240863666,1.19020370794237
1580422673.11189,-0.457770656900948,1.55642023346309,1.12916762035547
1580422673.11589,-0.762951094834762,1.67849240863666,1.19020370794237
1580422673.11989,-0.946059357595232,1.55642023346309,1.25123979552905
1580422673.12387,-0.946059357595232,1.61745632104976,1.37331197070262
1580422673.12787,-1.25123979552905,1.55642023346309,1.49538414587619
1580422673.13187,-1.55642023346309,1.55642023346309,1.61745632104976
1580422673.13587,-1.80056458381023,1.61745632104976,1.9226367589838
1580422673.13987,-2.04470893415737,1.80056458381023,2.22781719691761
1580422673.14386,-2.65506981002522,1.8616006713969,2.41092545967808
1580422673.14786,-2.89921416037237,2.04470893415737,2.7771419851988
1580422673.15186,-2.65506981002522,2.16678110933094,3.14335851071951
1580422673.15586,-1.8616006713969,2.16678110933094,3.57061112382689
1580422673.15986,-1.55642023346309,2.28885328450451,3.99786373693451
1580422673.16386,-1.19020370794237,2.22781719691761,4.36408026245522
1580422673.16786,-0.70191500724809,2.28885328450451,4.91340505073617
1580422673.17186,-0.457770656900948,2.53299763485165,5.27962157625689
1580422673.17585,-0.152590218966907,2.65506981002522,5.7068741893645
1580422673.17985,0.213626306553806,2.59403372243833,5.88998245212474
1580422673.18385,0.579842832074519,2.59403372243833,6.07309071488521
1580422673.18785,0.885023270008332,2.47196154726475,6.5003433279926
1580422673.19185,1.0681315327688,2.41092545967808,6.80552376592664
1580422673.19585,1.25123979552905,2.41092545967808,6.80552376592664
1580422673.19985,1.25123979552905,2.28885328450451,7.04966811627378
1580422673.20386,0.885023270008332,2.22781719691761,7.04966811627378
1580422673.20786,0.51880674448762,1.98367284657047,7.04966811627378
1580422673.21185,0.213626306553806,1.80056458381023,7.17174029144735
1580422673.21585,0.152590218966907,1.8616006713969,7.23277637903402
1580422673.21985,0.0305180437933359,1.80056458381023,7.29381246662092
1580422673.22385,-0.0305180437933359,1.67849240863666,7.29381246662092
1580422673.22785,0.152590218966907,1.61745632104976,7.59899290455473
1580422673.23185,0.335698481727377,1.73952849622333,7.7821011673152
1580422673.23585,0.396734569314049,1.67849240863666,7.96520943007545
1580422673.23985,0.396734569314049,1.67849240863666,8.20935378042259
1580422673.24384,0.213626306553806,1.55642023346309,8.33142595559616
1580422673.24784,0.152590218966907,1.73952849622333,8.39246204318306
1580422673.25184,0.885023270008332,1.67849240863666,8.45349813076973
1580422673.25584,1.73952849622333,1.49538414587619,8.69764248111687
1580422673.25984,2.04470893415737,1.49538414587619,8.94178683146401
1580422673.26384,2.28885328450451,1.49538414587619,9.18593118181116
1580422673.26784,1.8616006713969,1.49538414587619,9.4300755321583
1580422673.27184,1.73952849622333,1.31227588311594,9.4300755321583
1580422673.27584,1.55642023346309,1.25123979552905,9.55214770733187
1580422673.27983,1.37331197070262,1.37331197070262,9.55214770733187
1580422673.28381,1.9226367589838,1.12916762035547,9.55214770733187
1580422673.28781,2.7161058976119,1.25123979552905,9.61318379491877
1580422673.29181,3.14335851071951,1.19020370794237,9.67421988250544
1580422673.29581,3.50957503624022,1.19020370794237,9.73525597009234
1580422673.29981,3.81475547417404,1.31227588311594,9.91836423285258
1580422673.30381,3.50957503624022,1.43434805828952,9.91836423285258
1580422673.30781,3.50957503624022,1.31227588311594,9.73525597009234
1580422673.3118,3.69268329900046,1.37331197070262,9.61318379491877
1580422673.3158,3.69268329900046,1.31227588311594,9.67421988250544
1580422673.3198,4.05889982452118,1.37331197070262,9.4911116197452
1580422673.3238,3.99786373693451,1.55642023346309,9.24696726939806
1580422673.3278,3.57061112382689,1.55642023346309,9.12489509422448
1580422673.3318,2.7771419851988,1.37331197070262,9.00282291905091
1580422673.3358,1.8616006713969,1.31227588311594,8.81971465629044
1580422673.3398,1.0681315327688,1.0681315327688,8.5755703059433
1580422673.34379,0.51880674448762,1.12916762035547,8.6366063935302
1580422673.34779,0.640878919661191,1.0681315327688,8.6366063935302
1580422673.35179,0.946059357595232,1.0681315327688,8.75867856870377
1580422673.35579,1.31227588311594,1.43434805828952,8.6366063935302
1580422673.35979,1.80056458381023,1.49538414587619,8.51453421835663
1580422673.3638,1.8616006713969,1.37331197070262,8.27038986800949
1580422673.3678,1.9226367589838,1.19020370794237,8.14831769283592
1580422673.3718,1.49538414587619,1.25123979552905,7.84313725490188
1580422673.3758,0.946059357595232,1.0681315327688,7.53795681696806
1580422673.37979,0.152590218966907,0.946059357595232,7.17174029144735
1580422673.38379,-0.51880674448762,0.823987182421661,6.74448767833974
1580422673.38779,-1.12916762035547,0.762951094834762,6.5003433279926
1580422673.39179,-1.61745632104976,0.762951094834762,6.13412680247188
1580422673.39579,-2.04470893415737,0.579842832074519,5.76791027695117
1580422673.39979,-2.16678110933094,0.51880674448762,5.46272983901736
1580422673.40379,-2.16678110933094,0.396734569314049,5.09651331349664
1580422673.40779,-2.04470893415737,0.457770656900948,4.73029678797593
1580422673.41178,-1.9226367589838,0.51880674448762,4.48615243762879
1580422673.41578,-1.55642023346309,0.457770656900948,4.18097199969475
1580422673.41978,-1.55642023346309,0.457770656900948,3.75371938658736
1580422673.42378,-1.67849240863666,0.457770656900948,3.38750286106665
1580422673.42778,-1.67849240863666,0.396734569314049,2.89921416037237
1580422673.43178,-1.67849240863666,0.274662394140478,2.22781719691761
1580422673.43578,-1.73952849622333,0.091554131380235,1.61745632104976
1580422673.43978,-2.04470893415737,-0.152590218966907,0.70191500724809
1580422673.44376,-2.34988937209118,-0.213626306553806,-0.0305180437933359
1580422673.44775,-2.65506981002522,-0.274662394140478,-0.946059357595232
1580422673.45175,-3.08232242313261,-0.396734569314049,-1.73952849622333
1580422673.45575,-3.63164721141379,-0.51880674448762,-2.7161058976119
1580422673.45975,-4.36408026245522,-0.51880674448762,-3.69268329900046
1580422673.46375,-5.27962157625689,-0.640878919661191,-4.30304417486832
1580422673.46775,-6.86655985351331,-0.70191500724809,-5.03547722590974
1580422673.47175,-8.51453421835663,-0.762951094834762,-5.88998245212474
1580422673.47575,-9.73525597009234,-0.762951094834762,-6.68345159075307
1580422673.47974,-11.0780498970016,-0.396734569314049,-7.35484855420759
1580422673.48374,-12.4818799114976,-0.152590218966907,-8.02624551766235
1580422673.48774,-13.3363851377126,-0.0305180437933359,-8.51453421835663
1580422673.49174,-13.8246738384069,0.0305180437933359,-8.81971465629044
1580422673.49574,-14.7402151522087,0.0305180437933359,-9.06385900663759
1580422673.49974,-14.8622873273823,0.091554131380235,-9.36903944457163
1580422673.50374,-14.1298542763409,0.213626306553806,-9.4911116197452
1580422673.50774,-12.9701686121919,0.274662394140478,-9.4911116197452
1580422673.51173,-11.505302510109,0.335698481727377,-9.30800335698473
1580422673.51573,-10.2845807583733,0.457770656900948,-9.18593118181116
1580422673.51973,-9.97940032043948,0.640878919661191,-9.30800335698473
1580422673.52374,-10.0404364080262,0.762951094834762,-9.4300755321583
1580422673.52774,-10.4676890211338,0.885023270008332,-9.85732814526591
1580422673.53174,-10.8339055466545,0.70191500724809,-10.4066529335469
1580422673.53574,-10.955977721828,0.457770656900948,-10.650797283894
1580422673.53974,-10.7728694590676,0.51880674448762,-10.8949416342411
1580422673.54374,-11.0780498970016,0.823987182421661,-11.3221942473488
1580422673.54773,-11.5663385976959,0.946059357595232,-11.7494468604561
1580422673.55173,-12.1156633859769,0.885023270008332,-12.2987716487373
1580422673.55573,-12.9091325246052,0.885023270008332,-12.9701686121919
1580422673.55973,-13.3974212252995,0.823987182421661,-13.519493400473
1580422673.56373,-14.068818188754,1.0070954451819,-14.068818188754
1580422673.56773,-14.923323414969,1.37331197070262,-14.7402151522087
1580422673.57173,-15.9609369039445,1.43434805828952,-15.4116121156633
1580422673.57573,-17.7309834439611,1.67849240863666,-15.9609369039445
1580422673.57973,-19.6231021591516,2.16678110933094,-15.8999008163576
1580422673.58372,-21.8814373998625,2.41092545967808,-15.8388647287709
1580422673.58772,-24.0787365529868,2.47196154726475,-15.8999008163576
1580422673.59172,-25.4215304798961,2.41092545967808,-16.0219729915311
1580422673.59572,-24.9332417792018,2.22781719691761,-15.777828641184
1580422673.59972,-23.5294117647059,2.04470893415737,-15.0453955901426
1580422673.6037,-21.6983291371023,1.80056458381023,-14.068818188754
1580422673.6077,-19.6231021591516,1.31227588311594,-13.214312962539
1580422673.6117,-17.5478751812009,0.70191500724809,-12.1766994735638
1580422673.61569,-15.4116121156633,0.0305180437933359,-11.2001220721752
1580422673.61969,-13.3974212252995,-0.457770656900948,-10.1625085831997
1580422673.62369,-12.2377355611504,-0.946059357595232,-9.24696726939806
1580422673.62769,-11.7494468604561,-1.80056458381023,-8.14831769283592
1580422673.63169,-11.8715190356297,-1.8616006713969,-6.86655985351331
1580422673.63569,-11.810482948043,-2.04470893415737,-5.76791027695117
1580422673.63969,-10.7118333714809,-2.28885328450451,-5.09651331349664
1580422673.64369,-8.33142595559616,-2.83817807278547,-4.42511635004189
1580422673.64768,-5.15754940108332,-3.81475547417404,-3.50957503624022
1580422673.65168,-1.43434805828952,-4.24200808728165,-2.47196154726475
1580422673.65568,2.04470893415737,-4.60822461280236,-1.49538414587619
1580422673.65968,5.21858548867021,-4.8523689631495,-0.640878919661191
1580422673.66368,7.7821011673152,-5.15754940108332,0.152590218966907
1580422673.66768,9.4911116197452,-4.97444113832307,0.70191500724809
1580422673.67168,10.1625085831997,-5.34065766384379,1.12916762035547
1580422673.67568,9.24696726939806,-5.58480201419093,1.8616006713969
1580422673.67967,8.51453421835663,-5.40169375143046,2.89921416037237
1580422673.68368,9.00282291905091,-4.60822461280236,3.99786373693451
1580422673.68768,9.79629205767901,-4.11993591210808,4.54718852521546
1580422673.69168,10.4066529335469,-3.99786373693451,4.42511635004189
1580422673.69568,10.8949416342411,-3.75371938658736,4.18097199969475
1580422673.69968,10.8949416342411,-3.63164721141379,4.24200808728165
1580422673.70368,10.8339055466545,-3.26543068589308,4.42511635004189
1580422673.70768,10.5287251087204,-2.41092545967808,4.91340505073617
1580422673.71168,9.73525597009234,-1.61745632104976,4.91340505073617
1580422673.71567,8.94178683146401,-1.61745632104976,4.60822461280236
1580422673.71967,8.27038986800949,-1.98367284657047,4.30304417486832
1580422673.72367,7.17174029144735,-2.22781719691761,4.11993591210808
1580422673.72767,5.40169375143046,-2.16678110933094,3.57061112382689
1580422673.73167,3.57061112382689,-2.16678110933094,3.20439459830618
1580422673.73567,1.98367284657047,-2.53299763485165,2.59403372243833
1580422673.73967,1.25123979552905,-2.47196154726475,2.10574502174404
1580422673.74367,0.946059357595232,-2.04470893415737,1.67849240863666
1580422673.74766,0.396734569314049,-1.80056458381023,1.31227588311594
1580422673.75166,-1.19020370794237,-1.67849240863666,0.946059357595232
1580422673.75566,-2.53299763485165,-1.55642023346309,0.396734569314049
1580422673.75966,-3.26543068589308,-1.55642023346309,-0.335698481727377
1580422673.76364,-3.69268329900046,-1.55642023346309,-0.823987182421661
1580422673.76764,-3.75371938658736,-1.61745632104976,-0.762951094834762
1580422673.77164,-3.87579156176093,-1.19020370794237,-0.762951094834762
1580422673.77564,-3.87579156176093,-1.12916762035547,-0.823987182421661
1580422673.77964,-3.99786373693451,-1.19020370794237,-1.12916762035547
1580422673.78363,-3.87579156176093,-1.37331197070262,-1.25123979552905
1580422673.78763,-3.14335851071951,-1.49538414587619,-1.25123979552905
1580422673.79163,-2.10574502174404,-1.25123979552905,-0.823987182421661
1580422673.79563,-0.640878919661191,-1.0070954451819,-0.274662394140478
1580422673.79963,0.274662394140478,-0.70191500724809,0.274662394140478
1580422673.80363,0.396734569314049,-0.640878919661191,0.396734569314049
1580422673.80763,-0.579842832074519,-0.946059357595232,0.091554131380235
1580422673.81163,-1.61745632104976,-1.19020370794237,-0.335698481727377
1580422673.81562,-2.10574502174404,-1.0681315327688,-0.640878919661191
1580422673.81962,-1.9226367589838,-1.12916762035547,-0.885023270008332
1580422673.82362,-1.37331197070262,-1.37331197070262,-1.0681315327688
1580422673.82762,-1.31227588311594,-1.49538414587619,-1.43434805828952
1580422673.83162,-1.98367284657047,-1.37331197070262,-1.80056458381023
1580422673.83562,-3.26543068589308,-1.31227588311594,-2.34988937209118
1580422673.83962,-4.60822461280236,-1.37331197070262,-2.89921416037237
1580422673.84363,-5.7068741893645,-1.37331197070262,-3.14335851071951
1580422673.84763,-6.92759594110021,-1.31227588311594,-3.26543068589308
1580422673.85162,-8.02624551766235,-1.31227588311594,-3.63164721141379
1580422673.85562,-8.88075074387734,-1.37331197070262,-4.05889982452118
1580422673.85962,-9.55214770733187,-1.37331197070262,-4.36408026245522
1580422673.86362,-9.4911116197452,-1.55642023346309,-4.60822461280236
1580422673.86762,-9.18593118181116,-1.37331197070262,-4.7913328755626
1580422673.87162,-8.69764248111687,-1.19020370794237,-4.8523689631495
1580422673.87562,-7.96520943007545,-1.31227588311594,-4.8523689631495
1580422673.87962,-7.29381246662092,-1.0681315327688,-4.7913328755626
1580422673.88362,-6.80552376592664,-1.12916762035547,-4.7913328755626
1580422673.88761,-6.74448767833974,-1.12916762035547,-4.66926070038903
1580422673.89161,-7.35484855420759,-1.0070954451819,-4.60822461280236
1580422673.89561,-7.53795681696806,-1.0681315327688,-4.54718852521546
1580422673.89961,-6.98863202868688,-0.946059357595232,-4.48615243762879
1580422673.90361,-5.95101853971164,-0.762951094834762,-4.30304417486832
1580422673.90761,-4.8523689631495,-0.762951094834762,-4.18097199969475
1580422673.91161,-4.30304417486832,-0.823987182421661,-4.11993591210808
1580422673.9156,-4.36408026245522,-0.946059357595232,-4.18097199969475
1580422673.9196,-4.8523689631495,-1.12916762035547,-4.30304417486832
1580422673.92358,-5.52376592660403,-1.25123979552905,-4.30304417486832
1580422673.92758,-6.37827115281902,-1.37331197070262,-4.30304417486832
1580422673.93158,-7.47692072938116,-1.43434805828952,-4.24200808728165
1580422673.93558,-8.33142595559616,-1.43434805828952,-4.24200808728165
1580422673.93958,-8.5755703059433,-1.43434805828952,-4.18097199969475
1580422673.94358,-8.5755703059433,-1.80056458381023,-3.99786373693451
1580422673.94758,-8.08728160524902,-1.9226367589838,-3.69268329900046
1580422673.95158,-7.7821011673152,-1.73952849622333,-3.32646677347975
1580422673.95557,-7.53795681696806,-1.55642023346309,-3.26543068589308
1580422673.95957,-7.04966811627378,-1.37331197070262,-2.96025024795904
1580422673.96357,-6.37827115281902,-1.37331197070262,-2.53299763485165
1580422673.96757,-5.6458381017776,-1.31227588311594,-2.22781719691761
1580422673.97157,-4.8523689631495,-1.61745632104976,-1.98367284657047
1580422673.97557,-3.14335851071951,-1.80056458381023,-1.67849240863666
1580422673.97957,-1.43434805828952,-1.9226367589838,-1.37331197070262
1580422673.98356,-0.152590218966907,-1.9226367589838,-1.12916762035547
1580422673.98756,1.0681315327688,-1.55642023346309,-1.0070954451819
1580422673.99156,2.04470893415737,-1.19020370794237,-0.70191500724809
1580422673.99556,2.7771419851988,-0.885023270008332,-0.335698481727377
1580422673.99956,3.26543068589308,-0.70191500724809,-0.0305180437933359
1580422674.00357,4.30304417486832,-0.70191500724809,-0.0305180437933359
1580422674.00757,5.15754940108332,-0.762951094834762,-0.091554131380235
1580422674.01157,6.19516289005878,-0.946059357595232,-0.335698481727377
1580422674.01557,7.04966811627378,-0.885023270008332,-0.640878919661191
1580422674.01956,8.08728160524902,-0.885023270008332,-0.885023270008332
1580422674.02356,8.69764248111687,-1.0681315327688,-1.0681315327688
1580422674.02756,8.81971465629044,-1.43434805828952,-1.43434805828952
1580422674.03156,8.33142595559616,-1.43434805828952,-1.8616006713969
1580422674.03556,8.20935378042259,-1.61745632104976,-2.47196154726475
1580422674.03956,8.14831769283592,-1.9226367589838,-3.08232242313261
1580422674.04356,7.90417334248878,-2.04470893415737,-3.69268329900046
1580422674.04756,7.72106507972831,-2.04470893415737,-3.93682764934761
1580422674.05155,6.98863202868688,-2.10574502174404,-4.24200808728165
1580422674.05555,5.09651331349664,-1.67849240863666,-4.73029678797593
1580422674.05955,3.44853894865332,-1.19020370794237,-5.58480201419093
1580422674.06355,2.16678110933094,-1.12916762035547,-6.43930724040592
1580422674.06755,0.885023270008332,-1.61745632104976,-7.04966811627378
1580422674.07155,-0.396734569314049,-1.37331197070262,-7.04966811627378
1580422674.07555,-2.7771419851988,-0.457770656900948,-6.68345159075307
1580422674.07955,-6.19516289005878,0.396734569314049,-6.74448767833974
1580422674.08353,-8.69764248111687,0.885023270008332,-7.11070420386045
1580422674.08752,-9.36903944457163,0.762951094834762,-7.66002899214163
1580422674.09152,-8.75867856870377,0.51880674448762,-7.96520943007545
1580422674.09552,-7.29381246662092,0.213626306553806,-7.7821011673152
1580422674.09952,-6.31723506523235,0.213626306553806,-7.41588464179449
1580422674.10352,-6.25619897764545,0.51880674448762,-7.04966811627378
1580422674.10752,-6.37827115281902,1.0070954451819,-6.62241550316617
1580422674.11152,-6.74448767833974,1.49538414587619,-6.37827115281902
1580422674.11552,-6.98863202868688,1.67849240863666,-6.31723506523235
1580422674.11951,-7.17174029144735,1.80056458381023,-6.13412680247188
1580422674.12351,-7.23277637903402,1.67849240863666,-6.01205462729831
1580422674.12751,-7.23277637903402,1.55642023346309,-5.76791027695117
1580422674.13151,-6.68345159075307,1.67849240863666,-5.6458381017776
1580422674.13551,-5.88998245212474,2.04470893415737,-5.40169375143046
1580422674.13951,-4.73029678797593,2.41092545967808,-5.15754940108332
1580422674.14351,-3.50957503624022,2.7161058976119,-4.91340505073617
1580422674.14751,-2.89921416037237,2.89921416037237,-4.60822461280236
1580422674.1515,-2.96025024795904,2.89921416037237,-4.30304417486832
1580422674.1555,-3.08232242313261,2.7161058976119,-4.30304417486832
1580422674.1595,-3.32646677347975,2.47196154726475,-4.24200808728165
1580422674.16351,-3.32646677347975,2.34988937209118,-4.11993591210808
1580422674.16751,-3.69268329900046,2.41092545967808,-4.05889982452118
1580422674.17151,-4.05889982452118,2.47196154726475,-3.87579156176093
1580422674.17551,-4.60822461280236,2.41092545967808,-3.99786373693451
1580422674.17951,-5.09651331349664,2.34988937209118,-4.05889982452118
1580422674.18351,-5.52376592660403,2.22781719691761,-4.11993591210808
1580422674.18751,-5.95101853971164,2.22781719691761,-4.24200808728165
1580422674.1915,-6.31723506523235,2.28885328450451,-4.42511635004189
1580422674.1955,-5.76791027695117,2.22781719691761,-4.54718852521546
1580422674.1995,-4.97444113832307,1.98367284657047,-4.73029678797593
1580422674.2035,-4.54718852521546,1.80056458381023,-4.91340505073617
1580422674.2075,-4.60822461280236,1.61745632104976,-5.09651331349664
1580422674.2115,-5.40169375143046,1.61745632104976,-5.34065766384379
1580422674.2155,-6.56137941557949,1.80056458381023,-5.58480201419093
1580422674.21949,-7.84313725490188,1.8616006713969,-5.95101853971164
1580422674.22349,-9.30800335698473,2.22781719691761,-6.37827115281902
1580422674.22749,-10.5287251087204,2.28885328450451,-6.92759594110021
1580422674.23149,-11.7494468604561,2.04470893415737,-7.35484855420759
1580422674.23549,-12.6039520866711,1.55642023346309,-7.7821011673152
1580422674.23949,-12.7260242618447,0.762951094834762,-8.14831769283592
1580422674.24347,-12.7260242618447,0.335698481727377,-8.33142595559616
1580422674.24747,-12.2987716487373,0.213626306553806,-8.6366063935302
1580422674.25147,-11.9325551232166,0.335698481727377,-9.06385900663759
1580422674.25547,-11.2611581597619,0.762951094834762,-9.4300755321583
1580422674.25946,-10.0404364080262,1.12916762035547,-9.85732814526591
1580422674.26346,-9.30800335698473,1.25123979552905,-10.2235446707866
1580422674.26746,-9.36903944457163,1.12916762035547,-10.650797283894
1580422674.27146,-10.4676890211338,0.885023270008332,-11.0780498970016
1580422674.27546,-12.1766994735638,1.0070954451819,-11.6884107728695
1580422674.27946,-12.4208438239109,1.12916762035547,-12.6039520866711
1580422674.28346,-11.7494468604561,0.762951094834762,-13.3363851377126
1580422674.28745,-11.505302510109,0.70191500724809,-14.0077821011673
1580422674.29145,-12.359807736324,0.640878919661191,-14.373998626688
1580422674.29545,-14.1908903639276,1.0681315327688,-15.2895399404897
1580422674.29945,-16.4492256046387,1.8616006713969,-16.632333867399
1580422674.30345,-18.341344319829,2.34988937209118,-18.0361638818952
1580422674.30745,-21.210040436408,2.34988937209118,-19.501029983978
1580422674.31145,-25.8487830930037,2.34988937209118,-21.0879682612344
1580422674.31545,-32.5017166399634,1.8616006713969,-22.7969787136644
1580422674.31944,-39.9481193255513,0.823987182421661,-24.8722056916151
1580422674.32345,-45.2582589456017,-0.70191500724809,-26.5812161440451
1580422674.32745,-46.7841611352712,-2.41092545967808,-28.046082246128
1580422674.33145,-45.6855115587091,-3.14335851071951,-29.4499122606239
1580422674.33545,-45.0751506828412,-3.81475547417404,-30.9147783627068
1580422674.33945,-46.7231250476846,-4.30304417486832,-32.5627527275503
1580422674.34345,-49.1035324635691,-4.48615243762879,-33.8445105668727
1580422674.34745,-51.3618677042803,-4.66926070038903,-34.5769436179141
1580422674.35145,-53.8033112077517,-5.76791027695117,-35.1262684061953
1580422674.35544,-56.5499351491569,-6.86655985351331,-36.2249179827575
1580422674.35944,-59.357595178149,-6.98863202868688,-38.1780727855346
1580422674.36344,-61.6159304188602,-5.6458381017776,-40.4364080262455
1580422674.36744,-63.2028686961166,-3.50957503624022,-42.9388876173039
1580422674.37144,-63.3859769588769,-1.55642023346309,-45.2582589456017
1580422674.37544,-63.5080491340505,0.885023270008332,-47.0893415732053
1580422674.37944,-65.8884565499352,4.60822461280236,-48.6762798504617
1580422674.38344,-67.4753948271916,7.17174029144735,-50.019073777371
1580422674.38744,-67.2922865644312,9.4300755321583,-51.6670481422141
1580422674.39143,-66.3157091630426,11.505302510109,-54.0474555580988
1580422674.39543,-65.4001678492409,13.2753490501259,-56.9771877622645
1580422674.39943,-64.1184100099183,14.2519264515145,-59.1134508278019
1580422674.40341,-61.3717860685131,15.6557564660104,-59.7848477912567
1580422674.40741,-56.8551155870909,18.2803082322423,-59.9679560540169
1580422674.41141,-50.6904707408255,20.904859998474,-60.3341725795376
1580422674.41541,-43.0609597924774,21.2710765239947,-61.7990386816205
1580422674.41941,-32.6848249027239,18.9517051956968,-63.5690852216374
1580422674.4234,-22.613870450904,16.4492256046387,-65.339131761654
1580422674.4274,-12.4208438239109,13.5805294880597,-67.4753948271916
1580422674.4314,0.335698481727377,12.1766994735638,-69.3675135423819
1580422674.4354,16.1440451667047,12.1156633859769,-70.1609826810102
1580422674.4394,34.3938353551537,12.6039520866711,-70.0389105058366
1580422674.4434,51.911192492561,14.6791790646218,-68.2688639658197
1580422674.4474,66.3157091630428,18.8906691081102,-65.5222400244145
1580422674.4514,75.8373388265813,24.5059891660944,-62.8976882581826
1580422674.45539,79.4995040817885,30.5485618371861,-61.3717860685131
1580422674.45939,81.2695506218051,34.5769436179139,-60.8834973678188
1580422674.46339,85.603112840467,35.5535210193025,-60.5783169298847
1580422674.46739,92.6222629129475,35.4314488441289,-59.4796673533226
1580422674.47139,98.6648355840393,37.0183871213853,-57.0382238498512
1580422674.47539,103.181506065461,39.5819028000303,-53.0708781567103
1580422674.47939,107.392996108949,40.1922636758982,-47.8217746242467
1580422674.4834,108.735790035859,35.9807736324101,-42.3895628290227
1580422674.4874,102.876325627527,28.6564431219958,-37.3846036469063
1580422674.4914,85.1148241397727,25.1773861295489,-33.783474479286
1580422674.49539,54.0474555580986,29.9382009613182,-32.8068970778975
1580422674.49939,22.4307621881437,38.4222171358815,-33.783474479286
1580422674.50339,-1.31227588311594,46.784161135271,-34.2717631799803
1580422674.50739,-20.355535210193,53.5591668574043,-32.8679331654841
1580422674.51139,-42.328526741436,56.6720073243305,-29.6940566109711
1580422674.51539,-71.9920653086137,56.3057907988095,-26.0318913557639
1580422674.51939,-107.148851758602,54.9019607843134,-23.1631952391851
1580422674.52339,-142.366674296178,54.1695277332719,-21.1490043488211
1580422674.52738,-172.33539330129,54.6578164339662,-19.3789578088044
1580422674.53138,-194.73563744564,55.9395742732891,-16.937514305333
1580422674.53538,-209.506370641642,57.7096208133057,-13.0312046997788
1580422674.53938,-217.685206378271,59.7848477912562,-7.59899290455473
1580422674.54338,-220.920119020371,62.1042191195543,-0.70191500724809
1580422674.54738,-220.309758144503,64.0573739223319,7.41588464179449
1580422674.55138,-217.624170290684,65.7053482871752,16.632333867399
1580422674.55538,-212.314030670634,66.6208896009766,25.9708552681773
1580422674.55937,-205.416952773327,66.6208896009766,35.3704127565422
1580422674.56335,-199.252307927062,67.9026474402995,44.7089341573203
1580422674.56735,-188.754100862135,64.6677347981995,53.4370946822305
1580422674.57135,-175.326161593042,59.9679560540167,62.6535439078357
1580422674.57535,-162.874799725338,60.456244754711,71.4427405203328
1580422674.57935,-148.470283054856,60.1510643167771,79.4995040817885
1580422674.58335,-132.661936369879,59.9679560540167,87.1900511177237
1580422674.58735,-115.877012283513,61.066605630579,94.4533455405508
1580422674.59134,-97.3830777447167,62.0431830319676,101.533531700618
1580422674.59534,-76.3256275272754,61.8600747692071,108.491645685512
1580422674.59934,-54.0474555580988,60.7003891050581,115.510795757992
1580422674.60334,-31.9523918516825,58.9303425650414,122.163729304952
1580422674.60734,-10.4066529335469,57.038223849851,128.389410238804
1580422674.61134,12.4208438239109,55.329213397421,134.493018997482
1580422674.61534,36.1028458075837,54.9629968719005,140.535591668574
1580422674.61934,59.357595178149,55.2071412222476,146.700236514839
1580422674.62333,81.6357671473261,55.1461051346605,152.437628747997
1580422674.62733,101.716639963378,55.329213397421,157.930876630808
1580422674.63133,118.379491874571,55.6343938353548,162.996871900511
1580422674.63533,131.074998092622,56.1226825360491,167.57457846952
1580422674.63933,139.375906004425,56.5499351491567,171.236743724727
1580422674.64334,144.808117799649,57.3434042877848,173.983367666132
1580422674.64734,148.165102616922,58.8693064774548,175.997558556496
1580422674.65134,149.813076981765,60.456244754711,177.340352483406
1580422674.65534,149.568932631418,61.5548943312733,177.8286411841
1580422674.65934,147.798886091402,62.2262912947276,177.950713359273
1580422674.66333,143.526359960326,62.4704356450748,177.340352483406
1580422674.66733,136.446173800259,62.2262912947276,176.11963073167
1580422674.67133,126.436255436026,61.3717860685128,174.41062027924
1580422674.67533,113.618677042802,59.9679560540167,172.030212863355
1580422674.67933,98.3596551461051,58.0148012512395,169.344625009537
1580422674.68333,82.4292362859542,55.8785381857019,166.536964980545
1580422674.68733,66.9260700389109,53.5591668574043,163.9734493019
1580422674.69133,52.7046616311891,50.8735790035857,161.654077973602
1580422674.69532,39.5208667124436,48.0659189745934,159.334706645304
1580422674.69932,26.5201800564582,44.8310063324939,156.832227054246
1580422674.70332,12.8480964370183,41.657129777981,154.451819638361
1580422674.70732,-1.0681315327688,38.7884336614022,151.827267872129
1580422674.71132,-14.4350347142747,36.1028458075837,149.141680018311
1580422674.71532,-26.5201800564582,33.7224383916989,146.578164339666
1580422674.71932,-37.3846036469063,31.464103150988,144.075684748608
1580422674.7233,-47.8828107118334,28.900587472343,141.634241245136
1580422674.7273,-58.3810177767605,26.5812161440451,139.009689478904
1580422674.73129,-68.5740444037538,24.5670252536811,136.324101625086
1580422674.73529,-77.9125658045318,22.4307621881437,133.577477683681
1580422674.73929,-86.3355458915082,20.355535210193,130.586709391928
1580422674.74329,-93.5378042267489,18.2803082322423,127.351796749828
1580422674.74729,-99.2141603723203,16.0219729915311,123.811703669795
1580422674.75129,-103.547722590982,13.8246738384069,120.088502327001
1580422674.75529,-106.477454795148,11.9935912108033,116.609445334554
1580422674.75929,-107.454032196536,10.3456168459602,113.313496604868
1580422674.76328,-106.599526970321,9.06385900663759,110.139620050355
1580422674.76728,-104.34119172961,7.96520943007545,107.209887846189
1580422674.77128,-100.55695429923,6.86655985351331,104.34119172961
1580422674.77528,-95.4909590295263,5.6458381017776,101.350423437858
1580422674.77928,-89.570458533608,4.60822461280236,98.5427634088655
1580422674.78328,-83.5278858625161,3.63164721141379,95.6130312046998
1580422674.78728,-77.9736018921187,3.20439459830618,92.5001907377737
1580422674.79128,-72.8465705348287,2.65506981002522,89.0821698329137
1580422674.79527,-67.902647440299,2.16678110933094,85.4200045777065
1580422674.79927,-62.6535439078355,1.61745632104976,82.0630197604337
1580422674.80325,-57.0382238498512,1.19020370794237,79.0112153810942
1580422674.80725,-51.2397955291067,0.946059357595232,76.0814831769285
1580422674.81125,-45.2582589456017,0.823987182421661,73.3958953231099
1580422674.81525,-39.3377584496834,0.70191500724809,70.8323796444652
1580422674.81925,-34.0886549172199,0.396734569314049,68.5130083161671
1580422674.82325,-29.5109483482108,0.396734569314049,66.0715648126957
1580422674.82724,-25.7877470054168,0.579842832074519,63.8742656595714
1580422674.83124,-22.5528343633173,0.823987182421661,61.6769665064467
1580422674.83524,-19.2568856336309,1.31227588311594,59.2965590905619
1580422674.83924,-16.632333867399,1.61745632104976,57.1602960250248
1580422674.84324,-14.3129625391011,2.10574502174404,55.0240329594872
1580422674.84724,-12.0546272983902,2.96025024795904,53.0098420691234
1580422674.85124,-9.79629205767901,4.11993591210808,51.5449759670405
1580422674.85524,-7.53795681696806,5.40169375143046,50.3242542153048
1580422674.85923,-5.09651331349664,6.74448767833974,49.5307850766762
1580422674.86323,-2.7771419851988,8.14831769283592,49.042496375982
1580422674.86723,-0.457770656900948,9.85732814526591,48.6152437628748
1580422674.87123,1.80056458381023,11.4442664225223,48.5542076752877
1580422674.87523,3.93682764934761,12.9701686121919,48.6762798504615
1580422674.87923,5.76791027695117,14.4960708018616,48.9814602883953
1580422674.88321,7.90417334248878,15.8999008163576,49.5307850766762
1580422674.88721,10.2235446707866,16.8154421301595,50.1411459525443
1580422674.89121,13.0922407873654,17.486839093614,50.7515068284119
1580422674.89521,16.0219729915311,18.0971999694818,51.7891203173876
1580422674.8992,19.195849546044,18.9517051956968,52.5825894560157
1580422674.9032,22.4917982757304,19.9282825970854,53.5591668574043
1580422674.9072,25.2384222171358,20.904859998474,54.6578164339662
1580422674.9112,28.1681544213016,21.5152208743418,55.9395742732891
1580422674.9152,30.9147783627068,21.3321126115816,57.648584725719
1580422674.9192,33.6003662165253,20.5386434729533,59.7238117036695
1580422674.9232,35.7366292820629,19.3789578088044,61.6769665064467
1580422674.92719,36.4080262455175,18.341344319829,62.7756160830095
1580422674.93119,35.0041962310215,17.4258030060273,62.7145799954224
1580422674.93519,32.6848249027237,16.1440451667047,61.3107499809262
1580422674.93919,29.2057679102768,14.5571068894483,59.4796673533224
1580422674.94319,24.7501335164416,12.2987716487373,57.4044403753719
1580422674.94719,19.3789578088044,9.67421988250544,55.6343938353548
1580422674.95119,13.2753490501259,6.74448767833974,53.9864194705119
1580422674.95519,6.86655985351331,4.42511635004189,52.1553368429081
1580422674.95918,0.640878919661191,2.34988937209118,50.1411459525443
1580422674.96319,-5.21858548867021,-0.335698481727377,47.5776302738993
1580422674.96719,-10.5897611963073,-2.53299763485165,44.5868619821467
1580422674.97119,-15.5336842908368,-3.99786373693451,41.1078049897001
1580422674.97519,-19.4399938963911,-4.91340505073617,37.384603646906
1580422674.97919,-22.1866178377966,-5.27962157625689,33.6614023041122
1580422674.98319,-23.0411230640116,-5.21858548867021,30.2433813992523
1580422674.98719,-22.0035095750361,-4.66926070038903,27.4357213702601
1580422674.99119,-19.0737773708704,-3.99786373693451,25.2994583047225
1580422674.99518,-14.6181429770352,-2.96025024795904,23.4073395895323
1580422674.99918,-9.12489509422448,-2.22781719691761,22.1255817502097
1580422675.00318,-2.10574502174404,-1.80056458381023,21.0879682612344
1580422675.00718,5.95101853971164,-2.34988937209118,20.4776073853666
1580422675.01118,13.9467460135804,-3.75371938658736,19.8672465094987
1580422675.01518,20.1113908598459,-5.52376592660403,19.0737773708704
1580422675.01918,24.2008087281604,-6.86655985351331,18.0971999694818
1580422675.02318,26.8863965819789,-7.72106507972831,16.5712977798123
1580422675.02718,29.5109483482108,-7.35484855420759,14.6791790646218
1580422675.03117,33.6614023041122,-6.07309071488521,12.6039520866711
1580422675.03517,39.5208667124436,-3.99786373693451,10.2845807583733
1580422675.03917,46.3569085221636,-1.8616006713969,8.02624551766235
1580422675.04315,53.3760585946438,-0.213626306553806,6.07309071488521
1580422675.04715,60.2731364919505,1.12916762035547,4.30304417486832
1580422675.05115,66.010528725109,2.53299763485165,2.53299763485165
1580422675.05515,70.4051270313576,3.81475547417404,0.213626306553806
1580422675.05915,73.3958953231099,4.54718852521546,-2.7161058976119
1580422675.06314,74.4335088120852,4.54718852521546,-6.5003433279926
1580422675.06714,73.4569314106966,3.69268329900046,-10.8339055466545
1580422675.07114,71.4427405203328,2.53299763485165,-15.5947203784237
1580422675.07514,69.1844052796218,1.55642023346309,-20.4776073853666
1580422675.07914,67.5974670023652,1.67849240863666,-25.3604943923094
1580422675.08314,66.9260700389109,2.7161058976119,-30.1213092240787
1580422675.08714,67.170214389258,4.18097199969475,-35.1262684061953
1580422675.09114,67.9026474402995,6.13412680247188,-40.2532997634853
1580422675.09513,68.6961165789276,8.08728160524902,-45.3192950331884
1580422675.09913,68.9402609292747,9.55214770733187,-50.5073624780653
1580422675.10313,68.6350804913409,10.1625085831997,-55.6954299229419
1580422675.10713,66.6819256885638,10.2235446707866,-60.4562447547112
1580422675.11113,63.0197604333566,9.85732814526591,-65.4001678492409
1580422675.11513,57.9537651636529,9.24696726939806,-70.4051270313573
1580422675.11913,51.5449759670405,8.69764248111687,-76.1425192645152
1580422675.12314,43.3051041428243,8.33142595559616,-82.3682001983673
1580422675.12714,33.4782940413518,7.72106507972831,-89.0821698329137
1580422675.13114,22.919050888838,7.59899290455473,-96.2233920805677
1580422675.13513,12.8480964370183,8.14831769283592,-103.730830853742
1580422675.13913,4.91340505073617,8.81971465629044,-111.36034180209
1580422675.14313,-0.579842832074519,9.24696726939806,-118.562600137331
1580422675.14713,-3.99786373693451,9.12489509422448,-125.337605859464
1580422675.15113,-5.88998245212474,8.5755703059433,-131.319142442969
1580422675.15513,-6.74448767833974,7.04966811627378,-136.263065537499
1580422675.15913,-8.33142595559616,4.7913328755626,-140.04730296788
1580422675.16313,-12.1766994735638,1.37331197070262,-142.732890821698
1580422675.16712,-19.1348134584573,-2.04470893415737,-144.563973449302
1580422675.17112,-28.2902265964751,-4.60822461280236,-145.845731288624
1580422675.17512,-37.0794232089725,-4.05889982452118,-146.272983901732
1580422675.17912,-40.2532997634853,6.25619897764545,-144.869153887236
1580422675.18312,-36.7742427710384,19.501029983978,-140.04730296788
1580422675.18712,-26.7032883192187,39.7650110627908,-129.915312428473
1580422675.19112,-8.14831769283592,48.493171587701,-115.999084458686
1580422675.19512,36.7132066834515,36.9573510337987,-97.016861219196
1580422675.19911,81.4526588845656,-4.97444113832307,-62.4093995574883
1580422675.20309,55.2071412222476,-46.4179446097505,-8.81971465629044
1580422675.20709,-29.6330205233844,-39.5819028000305,21.8814373998625
1580422675.21109,-95.002670328832,3.87579156176093,2.04470893415737
1580422675.21509,-139.009689478904,30.1213092240787,-33.1731136034182
1580422675.21909,-178.316929884794,37.5066758220796,-62.1042191195545
1580422675.22309,-195.773250934615,32.6848249027237,-85.6641489280537
1580422675.22709,-191.50072480354,15.0453955901426,-109.040970473793
1580422675.23108,-157.991912718395,-1.19020370794237,-127.901121538109
1580422675.23508,-98.0544747081713,1.55642023346309,-131.990539406424
1580422675.23908,-44.6478980697339,22.3086900129701,-130.830853742275
1580422675.24308,4.7913328755626,37.3235675593194,-130.708781567102
1580422675.24708,49.2866407263291,32.3796444647896,-130.769817654688
1580422675.25108,72.9686427100023,15.8388647287709,-127.473868925002
1580422675.25508,69.6116578927295,0.823987182421661,-121.858548867018
1580422675.25908,49.1645685511558,-6.74448767833974,-117.219806210422
1580422675.26307,26.0318913557639,-5.7068741893645,-116.060120546273
1580422675.26707,13.3363851377126,-0.213626306553806,-119.966430151827
1580422675.27107,13.214312962539,4.97444113832307,-128.389410238804
1580422675.27507,17.486839093614,9.00282291905091,-138.582436865797
1580422675.27907,15.4116121156633,11.7494468604561,-146.700236514839
1580422675.28308,1.80056458381023,14.1908903639276,-150.48447394522
1580422675.28708,-20.6607156481268,18.1582360570687,-150.240329594873
1580422675.29108,-47.0893415732053,23.8956282902266,-148.226138704509
1580422675.29508,-73.5790035858702,31.0978866254673,-146.822308690013
1580422675.29908,-95.7351033798734,38.3611810482946,-146.761272602426
1580422675.30307,-111.421377889677,43.9765011062789,-147.188525215534
1580422675.30707,-118.19638361181,46.1738002594032,-146.761272602426
1580422675.31107,-116.060120546273,44.7699702449072,-143.770504310674
1580422675.31507,-106.782635233082,39.8260471503775,-137.544823376822
1580422675.31907,-93.7209124895094,32.0744640268558,-129.365987640192
1580422675.32307,-77.8515297169452,23.7125200274661,-120.515754940108
1580422675.32707,-61.2497138933395,15.2895399404897,-112.214847028305
1580422675.33107,-43.9154650186924,6.98863202868688,-104.707408255131
1580422675.33506,-27.0084687571525,0.823987182421661,-97.8103303578241
1580422675.33906,-11.1390859845883,-2.89921416037237,-91.4625772487982
1580422675.34306,3.63164721141379,-4.11993591210808,-84.7486076142518
1580422675.34706,13.0922407873654,-3.57061112382689,-78.2787823300525
1580422675.35106,20.1724269474325,-2.83817807278547,-72.6634622720683
1580422675.35506,27.7409018081939,-2.47196154726475,-67.9636835278859
1580422675.35906,33.0510414282444,-2.7161058976119,-64.2404821850919
1580422675.36304,36.7742427710382,-2.53299763485165,-62.1042191195545
1580422675.36703,42.2674906538489,-1.8616006713969,-60.0289921416038
1580422675.37103,50.8735790035857,-1.67849240863666,-57.648584725719
1580422675.37503,60.1510643167771,-1.25123979552905,-54.9629968719005
1580422675.37903,67.3533226520181,0.457770656900948,-52.2163729304953
1580422675.38303,73.7010757610437,2.22781719691761,-50.019073777371
1580422675.38703,77.4853131914247,3.14335851071951,-47.7607385366598
1580422675.39103,76.7528801403832,3.63164721141379,-45.8686198214696
1580422675.39503,72.9686427100023,4.54718852521546,-44.5258258945603
1580422675.39903,68.0857557030595,5.82894636453807,-43.6102845807584
1580422675.40302,62.5314717326623,6.98863202868688,-43.2440680552377
1580422675.40702,56.1837186236362,8.39246204318306,-43.3661402304112
1580422675.41102,48.2490272373539,9.30800335698473,-43.6102845807584
1580422675.41502,39.8260471503775,8.39246204318306,-43.1219958800641
1580422675.41902,31.5251392385746,6.74448767833974,-41.7792019531548
1580422675.42302,23.2852674143587,6.19516289005878,-40.9857328145267
1580422675.42702,14.1908903639276,5.46272983901736,-41.5350576028077
1580422675.43102,3.81475547417404,3.75371938658736,-43.7933928435189
1580422675.43501,-5.95101853971164,1.80056458381023,-46.2958724345769
1580422675.43901,-12.7870603494316,0.885023270008332,-47.7607385366598
1580422675.44302,-16.5712977798123,0.885023270008332,-48.0048828870069
1580422675.44702,-16.4492256046387,0.274662394140478,-47.9438467994203
1580422675.45102,-11.9935912108033,-1.67849240863666,-47.6997024490731
1580422675.45502,-5.03547722590974,-4.48615243762879,-46.9672693980317
1580422675.45902,1.80056458381023,-6.92759594110021,-45.2582589456017
1580422675.46302,6.37827115281902,-7.96520943007545,-43.1219958800641
1580422675.46702,12.5429159990845,-7.90417334248878,-40.5584802014191
1580422675.47101,21.3931486991683,-6.92759594110021,-37.8118562600139
1580422675.47501,29.1447318226901,-6.74448767833974,-35.0041962310218
1580422675.47901,35.2483405813687,-6.92759594110021,-32.2575722896163
1580422675.48301,41.4740215152208,-6.80552376592664,-29.4499122606239
1580422675.48701,46.6010528725108,-6.62241550316617,-27.191577019913
1580422675.49101,51.5449759670405,-6.74448767833974,-25.1773861295489
1580422675.49501,55.5733577477681,-5.82894636453807,-23.2242313267718
1580422675.49901,58.0148012512395,-5.03547722590974,-21.210040436408
1580422675.50301,60.0900282291905,-4.11993591210808,-19.2568856336309
1580422675.507,61.7380025940333,-3.63164721141379,-17.5478751812009
1580422675.511,63.5690852216376,-3.20439459830618,-16.3881895170518
1580422675.515,67.3533226520181,-2.83817807278547,-15.4726482032502
1580422675.519,71.7479209582666,-1.98367284657047,-14.6181429770352
1580422675.52298,74.6776531624323,-0.335698481727377,-14.0077821011673
1580422675.52698,74.4335088120852,0.946059357595232,-14.2519264515145
1580422675.53098,73.1517509727628,1.19020370794237,-14.8012512397954
1580422675.53498,70.2220187685971,0.946059357595232,-15.5947203784237
1580422675.53897,64.9729152361338,-0.51880674448762,-16.5712977798123
1580422675.54297,61.0055695429919,-1.25123979552905,-17.1206225680933
1580422675.54697,57.7706569008924,-0.762951094834762,-18.646524757763
1580422675.55097,56.6109712367434,-1.80056458381023,-22.2476539253832
1580422675.55497,62.9587243457695,-2.7161058976119,-25.7267109178301
1580422675.55897,73.5790035858704,-3.02128633554594,-27.4357213702601
1580422675.56297,82.734416723888,-3.08232242313261,-28.3512626840618
1580422675.56697,90.3639276722365,-2.96025024795904,-29.4499122606239
1580422675.57096,92.1950102998399,-2.65506981002522,-31.2809948882277
1580422675.57496,91.2184328984513,-3.50957503624022,-34.5159075303275
1580422675.57896,85.0537880521861,-6.19516289005878,-39.9481193255513
1580422675.58296,75.8373388265813,-9.73525597009234,-47.0283054856184
1580422675.58696,69.5506218051423,-11.1390859845883,-53.6202029449912
1580422675.59096,64.9118791485466,-10.7118333714809,-60.0289921416038
1580422675.59496,63.6911573968109,-9.91836423285258,-67.1091783016709
1580422675.59896,65.461203936828,-9.79629205767901,-74.738689250019
1580422675.60297,64.85084306096,-9.67421988250544,-82.8564888990616
1580422675.60696,59.90691996643,-9.61318379491877,-91.4625772487982
1580422675.61096,51.9722285801477,-10.2845807583733,-100.74006256199
1580422675.61496,45.6855115587089,-12.1766994735638,-110.139620050355
1580422675.61896,43.6713206683451,-13.2753490501259,-118.623636224918
1580422675.62296,45.2582589456015,-12.9091325246052,-126.131074998093
1580422675.62696,46.784161135271,-12.6039520866711,-133.333333333333
1580422675.63096,45.075150682841,-12.4208438239109,-141.023880369268
1580422675.63496,41.7181658655679,-12.664988174258,-149.568932631418
1580422675.63895,38.8494697489889,-12.7260242618447,-158.541237506676
1580422675.64295,39.3987945372701,-12.6039520866711,-167.57457846952
1580422675.64695,43.9154650186922,-11.0780498970016,-175.75341420615
1580422675.65095,47.3334859235522,-8.39246204318306,-183.382925154498
1580422675.65495,49.65285725185,-6.13412680247188,-191.805905241474
1580422675.65895,50.9956511787591,-4.42511635004189,-200.534065766384
1580422675.66295,51.36186770428,-2.96025024795904,-209.384298466468
1580422675.66695,52.8877698939496,-0.579842832074519,-217.624170290684
1580422675.67094,55.329213397421,2.59403372243833,-224.704356450752
1580422675.67494,58.5030899519338,5.7068741893645,-231.113145647364
1580422675.67894,62.8976882581828,9.06385900663759,-236.484321355001
1580422675.68292,69.9168383306633,12.1766994735638,-240.939955748837
1580422675.68692,79.133287556268,13.8246738384069,-244.235904478523
1580422675.69092,89.9977111467156,16.083009079118,-245.883878843366
1580422675.69492,101.472495613031,19.6231021591516,-245.883878843366
1580422675.69892,114.961470969711,21.5762569619287,-245.639734493019
1580422675.70292,131.013962005035,21.8204013122759,-245.029373617151
1580422675.70691,149.446860456245,23.0411230640116,-242.9541466392
1580422675.71091,162.935835812924,25.3604943923094,-239.108873121233
1580422675.71491,168.307011520561,25.9098191805904,-235.019455252918
1580422675.71891,169.222552834363,23.9566643778132,-231.540398260472
1580422675.72291,170.99259937438,19.501029983978,-228.91584649424
1580422675.72691,175.875486381323,11.9325551232166,-226.474402990768
1580422675.73091,185.946440833142,4.36408026245522,-222.507057297627
1580422675.73491,198.397802700847,-1.37331197070262,-216.891737239643
1580422675.7389,208.834973678187,-4.7913328755626,-209.994659342336
1580422675.7429,213.412680247196,-7.59899290455473,-202.731364919509
1580422675.7469,212.0088502327,-10.5897611963073,-195.407034409094
1580422675.7509,202.975509269856,-13.5805294880597,-188.021667811093
1580422675.7549,179.232471198596,-16.4492256046387,-182.833600366217
1580422675.7589,137.911039902342,-16.3881895170518,-182.040131227588
1580422675.76291,82.4292362859542,-14.0077821011673,-185.824368657969
1580422675.76691,27.191577019913,-8.94178683146401,-192.416266117342
1580422675.77091,-25.0553139543754,-4.05889982452118,-198.580910963607
1580422675.7749,-61.1886778057526,4.30304417486832,-206.027313649195
1580422675.7789,-71.3817044327459,14.4350347142747,-214.755474174105
1580422675.7829,-42.877851529717,13.3974212252995,-217.929350728618
1580422675.7869,7.84313725490188,-14.5571068894483,-197.604333562219
1580422675.7909,41.8402380407415,-44.1596093690396,-154.634927901122
1580422675.7949,56.8551155870905,-38.2391088731213,-114.961470969711
1580422675.7989,58.6251621271076,-22.4307621881437,-79.9267566948959
1580422675.8029,52.2774090180819,-23.1631952391851,-42.8168154421303
1580422675.8069,46.5400167849239,-27.8019378957808,-6.74448767833974
1580422675.81089,33.2951857785915,-21.6372930495154,22.4917982757304
1580422675.81489,-10.7728694590676,-13.0922407873654,40.3753719386586
1580422675.81889,-94.6364538033113,-11.8715190356297,46.784161135271
1580422675.82289,-195.529106584268,-10.5287251087204,39.1546501869229
1580422675.82689,-271.64110780499,-3.81475547417404,22.0035095750361
1580422675.83089,-308.628976882582,-2.7161058976119,6.25619897764545
1580422675.83489,-324.254215304799,-8.6366063935302,-1.67849240863666
1580422675.83888,-334.325169756619,-15.0453955901426,-1.0681315327688
1580422675.84286,-339.391165026322,-20.6607156481268,7.96520943007545
1580422675.84686,-333.53170061799,-27.5577935454337,25.9708552681773
1580422675.85086,-315.403982604715,-35.4314488441291,53.8033112077514
1580422675.85486,-284.397650110628,-42.4505989166096,89.0821698329137
1580422675.85886,-243.564507515068,-46.1738002594034,126.253147173266
1580422675.86286,-200.473029678798,-46.1738002594034,160.494392309453
1580422675.86686,-157.381551842527,-44.8310063324941,188.876173037308
1580422675.87086,-120.515754940108,-39.459830624857,211.642633707179
1580422675.87486,-93.4157320515753,-33.0510414282446,228.488593881132
1580422675.87885,-73.6400396734568,-29.6940566109711,240.451667048142
1580422675.88285,-59.6017395284962,-29.0836957351032,250.705729762722
1580422675.88685,-52.582589456016,-29.8161287861446,262.973983367666
1580422675.89085,-51.0566872663462,-31.5861753261618,277.683680476081
1580422675.89485,-50.9956511787595,-33.6614023041125,293.614099336232
1580422675.89885,-48.8593881132219,-35.6145571068896,310.582131685359
1580422675.90285,-44.3427176317998,-36.896314946212,327.611200122072
1580422675.90684,-38.1780727855346,-37.2625314717327,344.640268558785
1580422675.91084,-31.4030670634013,-35.8587014572367,360.753795681697
1580422675.91484,-23.773556115053,-32.8068970778975,375.341420614939
1580422675.91884,-13.4584573128861,-28.900587472343,388.097962920577
1580422675.92285,1.55642023346309,-24.8111696040282,399.389639124132
1580422675.92685,20.7827878233004,-21.3931486991683,409.216449225605
1580422675.93085,43.1219958800639,-17.486839093614,417.944609750515
1580422675.93485,66.9871061264976,-13.7636377508202,425.940337224384
1580422675.93885,90.6080720225837,-10.7118333714809,433.752956435492
1580422675.94284,110.688944838636,-5.6458381017776,440.83314259556
1580422675.94684,121.309224078736,0.51880674448762,446.692607003891
1580422675.95084,123.933775844968,7.23277637903402,450.720988784619
1580422675.95484,126.314183260853,17.1816586556802,453.467612726025
1580422675.95884,131.441214618143,27.4967574578468,455.542839703975
1580422675.96284,136.751354238193,35.2483405813687,456.824597543298
1580422675.96684,138.643472953383,42.2064545662622,456.763561455711
1580422675.97084,132.295719844358,49.1645685511558,454.505226215
1580422675.97483,112.825207904174,54.4747081712062,449.073014419776
1580422675.97883,78.2787823300528,58.6861982146943,440.588998245213
1580422675.98283,31.3420309758144,63.3859769588771,429.297322041657
1580422675.98683,-22.0035095750361,67.719539177539,415.56420233463
1580422675.99083,-75.5321583886473,69.9778744182499,400.488288700694
1580422675.99483,-122.652018005646,70.0389105058366,385.168230716411
1580422675.99883,-158.785381857023,68.4519722285804,370.092317082475
1580422676.00281,-186.068513008316,63.9963378347452,356.176089112688
1580422676.00681,-211.947814145113,55.6343938353548,345.372701609827
1580422676.0108,-245.090409704738,43.6713206683451,337.254901960785
1580422676.0148,-287.38841840238,28.5954070344089,329.076066224155
1580422676.0188,-331.212329289692,11.2611581597619,318.455786984055
1580422676.0228,-364.904249637598,-6.98863202868688,305.271992065308
1580422676.0268,-381.38399328603,-22.919050888838,289.890897993439
1580422676.0308,-379.430838483253,-34.1496910048068,273.289082169833
1580422676.0348,-363.988708323797,-42.1454184786755,256.382085908293
1580422676.0388,-344.762340733959,-49.8970016021974,240.268558785382
1580422676.04279,-328.892957961395,-58.0758373388267,224.765392538338
1580422676.04679,-312.65735866331,-64.6066987106126,210.543984130617
1580422676.05079,-284.092469672694,-67.6585030899519,198.275730525674
1580422676.05479,-235.446707866026,-66.1326009002823,187.777523460747
1580422676.05879,-166.475928892958,-59.7848477912567,178.988326848249
1580422676.06279,-87.3121232928968,-50.9346150911726,171.847104600595
1580422676.06679,-12.6039520866711,-38.7884336614025,165.621423666743
1580422676.07079,45.1972228580146,-24.0177004654001,158.907454032196
1580422676.07478,84.6875715266651,-9.85732814526591,150.667582207981
1580422676.07878,106.294346532387,0.885023270008332,139.803158617533
1580422676.08279,111.299305714504,7.96520943007545,125.276569771878
1580422676.08679,101.289387350271,13.3974212252995,106.965743495842
1580422676.09079,82.9785610742351,17.1816586556802,85.1758602273594
1580422676.09479,61.1886778057524,18.7075608453497,59.5407034409091
1580422676.09879,39.8260471503775,18.7075608453497,30.609597924773
1580422676.10279,23.773556115053,17.6699473563745,-0.396734569314049
1580422676.10679,14.068818188754,15.1674677653161,-31.769283588922
1580422676.11079,11.1390859845883,11.1390859845883,-61.1886778057526
1580422676.11478,17.1206225680933,10.5897611963073,-87.1290150301365
1580422676.11878,29.5109483482108,17.3647669184404,-108.918898298619
1580422676.12278,37.0183871213853,16.3271534294652,-125.886930647745
1580422676.12678,49.7749294270234,26.6422522316318,-135.408560311284
1580422676.13078,39.2767223620965,32.1965362020294,-139.803158617533
1580422676.13478,77.3022049286642,25.7267109178301,-137.605859464408
1580422676.13878,161.959258411536,-1.31227588311594,-118.806744487678
1580422676.14277,221.347371633478,-33.6003662165256,-97.016861219196
1580422676.14677,220.675974670024,-45.3803311207753,-73.5179674982833
1580422676.15077,152.803845273518,-34.9431601434349,-59.1744869153888
1580422676.15477,62.2873273823147,-11.0780498970016,-63.3859769588769
1580422676.15877,-19.8672465094987,15.4116121156633,-79.8046845197223
1580422676.16275,-82.3071641107804,37.2625314717325,-100.617990386816
1580422676.16675,-111.543450064851,41.0467689021132,-125.947966735332
1580422676.17075,-113.008316166934,21.6372930495154,-148.104066529335
1580422676.17475,-104.524299992371,-2.83817807278547,-160.37232013428
1580422676.17875,-97.3830777447167,-10.7118333714809,-165.987640192264
1580422676.18274,-103.791866941329,0.885023270008332,-168.978408484016
1580422676.18674,-124.727244983597,24.1397726405737,-173.373006790265
1580422676.19074,-148.470283054856,41.2298771648736,-181.42977035172
1580422676.19474,-167.452506294347,43.9765011062789,-191.805905241474
1580422676.19874,-176.30273899443,38.5442893110551,-201.083390554665
1580422676.20274,-175.875486381323,29.0836957351032,-206.027313649195
1580422676.20674,-171.725032425422,19.195849546044,-206.637674525063
1580422676.21073,-160.860608834974,12.6039520866711,-203.891050583657
1580422676.21473,-134.187838559548,10.8339055466545,-198.092622262913
1580422676.21873,-95.3688868543527,12.5429159990845,-188.693064774548
1580422676.22273,-59.1744869153888,16.1440451667047,-176.424811169604
1580422676.22673,-36.2859540703441,22.4917982757304,-163.302052338445
1580422676.23073,-26.5812161440451,31.1589227130539,-150.850690470741
1580422676.23473,-23.1631952391851,38.6053253986418,-140.352483405814
1580422676.23873,-14.0077821011673,41.2909132524603,-131.074998092622
1580422676.24274,5.88998245212474,38.3611810482946,-122.468909742885
1580422676.24673,31.9523918516823,34.4548714427403,-114.41214618143
1580422676.25073,57.2823682001981,34.8210879682611,-107.087815671016
1580422676.25473,74.8607614251928,39.8260471503775,-101.045242999924
1580422676.25873,88.5938811322194,46.6620889600974,-94.8195620660717
1580422676.26273,102.204928664073,48.6152437628748,-87.6783398184175
1580422676.26673,115.632867933165,47.089341573205,-79.316395819028
1580422676.27073,126.497291523614,43.9154650186922,-70.9544518196383
1580422676.27473,130.708781567102,39.5819028000303,-63.5690852216374
1580422676.27872,129.549095902953,36.9573510337987,-58.1368734264133
1580422676.28272,126.37521934844,33.5393301289387,-54.291599908446
1580422676.28672,119.356069275959,29.2668039978637,-51.6670481422141
1580422676.29072,110.139620050355,25.9098191805904,-49.5918211642634
1580422676.29472,97.2610055695432,24.2008087281604,-48.0659189745938
1580422676.29872,80.2929732204166,21.0879682612344,-47.7607385366598
1580422676.30272,59.1134508278019,16.1440451667047,-48.9204242008088
1580422676.30672,36.2859540703439,11.505302510109,-51.1787594415198
1580422676.31071,17.6089112687876,6.62241550316617,-53.3150225070574
1580422676.31471,4.30304417486832,1.12916762035547,-54.4747081712062
1580422676.31871,-6.13412680247188,-3.20439459830618,-54.7798886091402
1580422676.32269,-12.2987716487373,-5.58480201419093,-54.4747081712062
1580422676.32669,-14.373998626688,-7.17174029144735,-53.5591668574045
1580422676.33069,-11.7494468604561,-7.84313725490188,-52.0943007553217
1580422676.33469,-5.15754940108332,-7.7821011673152,-49.5918211642634
1580422676.33869,1.61745632104976,-7.59899290455473,-46.4179446097505
1580422676.34269,7.35484855420759,-7.7821011673152,-42.5726710917831
1580422676.34668,12.4818799114976,-6.92759594110021,-38.9715419241627
1580422676.35068,18.2192721446554,-5.15754940108332,-35.3093766689556
1580422676.35468,23.8345922026397,-3.63164721141379,-31.4641031509882
1580422676.35868,30.4264896620125,-2.04470893415737,-27.6188296330204
1580422676.36268,36.0418097199968,-0.396734569314049,-23.5294117647059
1580422676.36668,42.6947432669565,1.55642023346309,-19.0127412832837
1580422676.37068,50.3242542153048,2.83817807278547,-14.6181429770352
1580422676.37468,56.8551155870905,2.65506981002522,-10.8339055466545
1580422676.37867,61.8600747692071,1.8616006713969,-7.84313725490188
1580422676.38267,65.5832761120014,1.9226367589838,-5.21858548867021
1580422676.38667,68.3909361409937,0.579842832074519,-2.7771419851988
1580422676.39067,71.7479209582666,-2.53299763485165,-0.579842832074519
1580422676.39467,76.1425192645152,-5.95101853971164,1.55642023346309
1580422676.39867,80.2929732204166,-8.39246204318306,2.7161058976119
1580422676.40268,79.3774319066151,-9.30800335698473,2.47196154726475
1580422676.40668,75.7763027389947,-9.91836423285258,1.0070954451819
1580422676.41068,71.3206683451594,-9.30800335698473,-1.25123979552905
1580422676.41467,63.6911573968109,-8.69764248111687,-4.42511635004189
1580422676.41867,54.2305638208591,-9.30800335698473,-8.14831769283592
1580422676.42267,43.7933928435186,-10.7118333714809,-12.0546272983902
1580422676.42667,34.9431601434346,-12.4818799114976,-14.8622873273823
1580422676.43067,29.5719844357975,-14.6181429770352,-16.8154421301595
1580422676.43467,28.5343709468223,-16.5102616922254,-18.1582360570687
1580422676.43867,28.900587472343,-17.792019531548,-19.1348134584573
1580422676.44267,29.3888761730373,-17.8530556191347,-19.7451743343252
1580422676.44666,30.609597924773,-16.2050812542916,-19.8672465094987
1580422676.45066,31.9523918516823,-14.5571068894483,-20.4776073853666
1580422676.45466,33.6003662165253,-14.2519264515145,-21.0879682612344
1580422676.45866,37.5677119096665,-14.4960708018616,-20.9658960860609
1580422676.46266,42.3285267414358,-13.9467460135804,-20.1113908598459
1580422676.46666,43.9765011062789,-11.4442664225223,-19.1348134584573
1580422676.47066,46.0517280842296,-9.4911116197452,-18.7685969329366
1580422676.47466,50.202182040131,-7.90417334248878,-18.5244525825894
1580422676.47865,52.8267338063629,-7.17174029144735,-18.341344319829
1580422676.48264,55.329213397421,-7.04966811627378,-18.7075608453497
1580422676.48663,59.7238117036695,-6.68345159075307,-19.5620660715647
1580422676.49063,66.0715648126957,-6.37827115281902,-21.3321126115816
1580422676.49463,71.6258487830933,-6.07309071488521,-24.9942778667887
1580422676.49863,75.3490501258871,-5.76791027695117,-29.3888761730373
1580422676.50263,75.6542305638209,-5.15754940108332,-33.0510414282446
1580422676.50663,71.8699931334404,-5.21858548867021,-36.1028458075839
1580422676.51063,63.8742656595714,-5.52376592660403,-39.3377584496834
1580422676.51462,52.2774090180819,-7.35484855420759,-44.586861982147
1580422676.51862,41.2909132524603,-9.30800335698473,-51.6670481422141
1580422676.52262,34.9431601434346,-10.7118333714809,-58.7472343022812
1580422676.52662,32.1355001144425,-12.1156633859769,-64.484626535439
1580422676.53062,30.3654535744258,-12.664988174258,-68.3299000534066
1580422676.53462,27.4357213702601,-13.5805294880597,-72.2362096589609
1580422676.53862,23.2242313267718,-15.4116121156633,-77.4242771038375
1580422676.54262,22.4307621881437,-17.6699473563745,-82.734416723888
1580422676.54661,25.6656748302432,-19.0737773708704,-87.3731593804837
1580422676.55061,30.5485618371861,-18.8906691081102,-91.0963607232775
1580422676.55461,33.6614023041122,-17.7309834439611,-94.8805981536584
1580422676.55861,33.7834744792858,-17.4258030060273,-99.6414129854277
1580422676.56262,32.0134279392689,-18.1582360570687,-105.073624780652
1580422676.56662,29.8161287861446,-18.7075608453497,-110.444800488289
1580422676.57062,25.9708552681773,-18.8296330205233,-115.510795757992
1580422676.57462,19.8672465094987,-18.8296330205233,-120.881971465629
1580422676.57862,15.3505760280766,-19.4399938963911,-126.5583276112
1580422676.58261,13.3363851377126,-19.6231021591516,-132.417792019532
1580422676.58661,14.6181429770352,-19.6231021591516,-137.911039902342
1580422676.59061,16.2050812542916,-18.8906691081102,-143.343251697566
1580422676.59461,16.1440451667047,-17.7309834439611,-149.080643930724
1580422676.59861,16.3881895170518,-17.792019531548,-155.245288776989
1580422676.60261,17.9751277943083,-18.7685969329366,-160.860608834974
1580422676.60661,19.3179217212175,-18.4634164950025,-165.804531929503
1580422676.61061,20.1724269474325,-17.2426947432668,-170.138094148165
1580422676.61461,20.4776073853666,-16.1440451667047,-174.715800717174
1580422676.6186,21.3321126115816,-16.2050812542916,-179.659723811704
1580422676.6226,23.8956282902266,-16.632333867399,-184.66468299382
1580422676.6266,27.2526131074997,-16.3881895170518,-189.181353475242
1580422676.6306,30.2433813992523,-16.083009079118,-193.39284351873
1580422676.6346,32.8679331654839,-15.2895399404897,-197.360189211872
1580422676.6386,33.5393301289387,-13.8857099259938,-201.75478751812
1580422676.64258,33.0510414282444,-13.3974212252995,-206.820782787823
1580422676.64658,33.2951857785915,-13.9467460135804,-211.82574196994
1580422676.65057,37.6897840848401,-14.8622873273823,-215.854123750667
1580422676.65457,45.0141145952543,-14.5571068894483,-218.66178377966
1580422676.65857,52.9488059815362,-12.0546272983902,-220.55390249485
1580422676.66257,59.4796673533224,-9.97940032043948,-222.384985122454
1580422676.66657,66.1326009002823,-9.67421988250544,-225.375753414206
1580422676.67057,77.3632410162509,-10.3456168459602,-227.817196917678
1580422676.67457,92.6832990005341,-10.1014724956131,-228.183413443198
1580422676.67857,108.064393072404,-8.94178683146401,-226.474402990768
1580422676.68256,119.661249713894,-6.43930724040592,-224.15503166247
1580422676.68656,126.192111085679,-4.73029678797593,-221.89669642176
1580422676.69056,128.572518501564,-3.93682764934761,-219.882505531396
1580422676.69456,128.26733806363,-4.66926070038903,-218.051422903792
1580422676.69856,128.755626764324,-5.34065766384379,-215.976195925841
1580422676.70256,130.159456778821,-5.82894636453807,-213.168535896849
1580422676.70656,134.493018997482,-7.72106507972831,-210.238803692683
1580422676.71056,138.765545128557,-9.61318379491877,-208.346684977493
1580422676.71456,139.497978179599,-11.3832303349354,-207.736324101625
1580422676.71855,137.422751201648,-14.6181429770352,-208.468757152667
1580422676.72256,129.7932402533,-19.6231021591516,-210.055695429923
1580422676.72656,113.191424429694,-25.3604943923094,-212.802319371328
1580422676.73056,92.1950102998399,-30.5485618371861,-215.487907225147
1580422676.73456,63.3859769588771,-34.3938353551539,-217.746242465858
1580422676.73856,22.1866178377966,-33.5393301289389,-221.164263370718
1580422676.74256,-21.1490043488211,-25.1773861295489,-225.009536888685
1580422676.74656,-58.3810177767605,-15.9609369039445,-227.20683604181
1580422676.75056,-82.734416723888,-8.5755703059433,-225.375753414206
1580422676.75455,-81.3305867093918,-2.7771419851988,-216.464484626535
1580422676.75855,-61.3717860685131,-5.82894636453807,-203.402761882963
1580422676.76255,-31.8303196765089,-22.4917982757304,-185.641260395209
1580422676.76655,-22.7359426260775,-44.3427176317998,-161.654077973602
1580422676.77055,-35.0652323186084,-49.164568551156,-143.038071259632
1580422676.77455,-51.6060120546274,-34.8210879682613,-126.802471961547
1580422676.77855,-60.4562447547112,-25.6046387426566,-102.26596475166
1580422676.78255,-56.9161516746776,-23.9566643778132,-73.884184023804
1580422676.78654,-50.2632181277181,-21.0269321736475,-48.9814602883955
1580422676.79054,-49.8970016021974,-13.6415655756466,-28.7174792095825
1580422676.79454,-60.3952086671245,-4.91340505073617,-12.359807736324
1580422676.79854,-81.2085145342182,0.335698481727377,1.0681315327688
1580422676.80252,-107.148851758602,2.47196154726475,11.0780498970016
1580422676.80652,-132.173647669184,4.73029678797593,16.9985503929197
1580422676.81052,-152.620737010757,6.98863202868688,20.355535210193
1580422676.81452,-169.46669718471,8.14831769283592,23.6514839398794
1580422676.81851,-184.115358205539,8.14831769283592,30.1213092240787
1580422676.82251,-197.116044861524,7.66002899214163,40.802624551766
1580422676.82651,-207.492179751278,6.92759594110021,55.8175020981153
1580422676.83051,-212.436102845807,5.46272983901736,74.6166170748456
1580422676.83451,-210.421911955444,3.69268329900046,95.5519951171132
1580422676.83851,-200.595101853971,1.12916762035547,117.219806210422
1580422676.84251,-183.749141680018,-2.22781719691761,138.704509040971
1580422676.84651,-162.874799725338,-5.21858548867021,159.02952620737
1580422676.8505,-140.535591668574,-7.04966811627378,177.584496833753
1580422676.8545,-117.219806210422,-7.23277637903402,194.003204394598
1580422676.8585,-90.6691081101701,-7.59899290455473,208.773937590601
1580422676.8625,-63.9963378347447,-6.98863202868688,222.26291294728
1580422676.8665,-40.2532997634853,-5.58480201419093,234.409094377051
1580422676.8705,-20.050354772259,-5.03547722590974,245.395590142672
1580422676.8745,-4.73029678797593,-5.40169375143046,256.992446784161
1580422676.8785,4.18097199969475,-6.01205462729831,269.93209735256
1580422676.88251,7.59899290455473,-6.37827115281902,283.665217059586
1580422676.88651,7.23277637903402,-6.62241550316617,297.093156328679
1580422676.8905,4.73029678797593,-6.5003433279926,309.361409933623
1580422676.8945,1.19020370794237,-6.74448767833974,320.347905699245
1580422676.8985,-2.7771419851988,-7.11070420386045,330.235751888304
1580422676.9025,-6.13412680247188,-7.11070420386045,339.452201113909
1580422676.9065,-8.75867856870377,-7.17174029144735,348.424505989166
1580422676.9105,-9.85732814526591,-7.29381246662092,356.847486076143
1580422676.9145,-9.00282291905091,-7.17174029144735,365.148393987945
1580422676.9185,-5.76791027695117,-6.68345159075307,373.205157549401
1580422676.92249,-1.19020370794237,-6.31723506523235,380.834668497749
1580422676.92649,4.73029678797593,-4.91340505073617,388.158999008163
1580422676.93049,13.0312046997788,-1.80056458381023,395.178149080644
1580422676.93449,20.6607156481268,1.8616006713969,401.770046540017
1580422676.93849,25.6656748302432,3.75371938658736,407.995727473869
1580422676.94249,29.9382009613182,5.6458381017776,413.67208361944
1580422676.94649,33.9665827420461,8.94178683146401,418.738078889143
1580422676.95049,36.9573510337987,11.6884107728695,423.071641107805
1580422676.95448,38.6663614862287,13.0312046997788,427.466239414053
1580422676.95848,38.4222171358815,13.9467460135804,431.372549019608
1580422676.96246,34.6379797055008,14.9843595025559,434.485389486534
1580422676.96646,26.7643244068054,15.3505760280766,435.950255588617
1580422676.97046,15.1674677653161,16.2661173418783,435.217822537575
1580422676.97446,0.091554131380235,17.6089112687876,432.104982070649
1580422676.97846,-19.195849546044,18.0971999694818,426.428625925078
1580422676.98246,-42.2064545662624,18.4023804074159,418.921187151903
1580422676.98646,-68.5130083161669,18.8906691081102,410.070954451819
1580422676.99045,-96.8947890440224,17.792019531548,400.244144350347
1580422676.99445,-125.215533684291,15.7167925535973,389.623865110246
1580422676.99845,-152.803845273518,13.3974212252995,378.393224994278
1580422677.00245,-177.889677271687,9.97940032043948,366.979476615549
1580422677.00645,-198.764019226368,4.7913328755626,356.115053025101
1580422677.01045,-213.71786068513,-2.22781719691761,345.738918135348
1580422677.01445,-220.126649881743,-10.8949416342411,335.973144121462
1580422677.01845,-218.478675516899,-20.4165712977797,326.817730983444
1580422677.02244,-210.666056305791,-29.2057679102768,317.906462195774
1580422677.02644,-197.482261387045,-35.7366292820632,309.361409933623
1580422677.03044,-178.500038147555,-39.3377584496834,300.816357671473
1580422677.03444,-153.109025711452,-39.7039749752041,291.538872358282
1580422677.03844,-124.544136720836,-36.7742427710384,280.796520943008
1580422677.04245,-95.1247425040056,-32.3186083772032,268.40619516289
1580422677.04645,-67.1702143892576,-27.6188296330204,254.367895017929
1580422677.05045,-45.0751506828412,-22.8580148012511,238.559548332952
1580422677.05445,-29.5109483482108,-18.1582360570687,221.408407721065
1580422677.05844,-19.0737773708704,-15.3505760280766,203.158617532617
1580422677.06244,-14.1908903639276,-12.8480964370183,183.504997329671
1580422677.06644,-14.8622873273823,-9.4300755321583,163.424124513619
1580422677.07044,-17.1206225680933,-7.23277637903402,142.671854734112
1580422677.07444,-20.5386434729533,-6.62241550316617,120.820935378042
1580422677.07844,-24.0177004654001,-5.58480201419093,97.6272220950636
1580422677.08244,-26.337071793698,-3.69268329900046,72.3582818341347
1580422677.08644,-27.3746852826732,-2.34988937209118,45.2582589456015
1580422677.09044,-28.5343709468223,-1.25123979552905,16.3271534294652
1580422677.09443,-30.3044174868389,-1.25123979552905,-13.7026016632333
1580422677.09843,-31.3420309758146,-1.8616006713969,-43.3661402304112
1580422677.10243,-29.5719844357975,-2.34988937209118,-71.625848783093
1580422677.10643,-24.3839169909209,-2.16678110933094,-97.1389333943696
1580422677.11043,-16.4492256046387,-2.04470893415737,-119.600213626307
1580422677.11443,-3.08232242313261,4.66926070038903,-139.497978179599
1580422677.11843,11.5663385976959,17.9751277943083,-155.245288776989
1580422677.12241,23.6514839398794,29.755092698558,-166.109712367437
1580422677.1264,52.0943007553215,45.6855115587089,-166.720073243305
1580422677.1304,91.8287937743194,40.0701915007246,-157.930876630808
1580422677.1344,174.288548104066,18.4023804074159,-142.305638208591
1580422677.1384,233.371480888075,-11.4442664225223,-120.210574502174
1580422677.1424,216.037232013428,-34.637979705501,-89.1432059205003
1580422677.1464,140.962844281682,-31.9523918516825,-64.7287708857862
1580422677.1504,50.8125429159991,-1.0681315327688,-63.9963378347447
1580422677.1544,-28.5954070344089,22.3697261005568,-81.879911497673
1580422677.15839,-99.2141603723203,31.0368505378804,-104.15808346685
1580422677.16239,-148.104066529335,33.7224383916989,-128.511482413977
1580422677.16639,-167.635614557107,26.337071793698,-155.245288776989
1580422677.17039,-159.700923170825,9.06385900663759,-180.514229037919
1580422677.17439,-124.238956282902,-2.83817807278547,-185.275043869688
1580422677.17839,-80.9033340962844,2.41092545967808,-170.99259937438
1580422677.18239,-44.2816815442131,22.2476539253832,-157.625696192874
1580422677.18639,-16.3881895170518,40.5584802014189,-149.568932631418
1580422677.19038,-4.91340505073617,45.6855115587089,-145.052262149996
1580422677.19438,-10.5897611963073,42.0233463035017,-142.793926909285
1580422677.19838,-28.4733348592354,32.6848249027237,-142.061493858244
1580422677.20239,-53.5591668574045,19.6231021591516,-142.732890821698
1580422677.20639,-76.2035553521018,8.39246204318306,-144.014648661021
1580422677.21039,-83.7720302128632,2.34988937209118,-145.601586938277
1580422677.21439,-75.043869687953,3.38750286106665,-147.737850003815
1580422677.21839,-58.9303425650417,9.91836423285258,-149.813076981765
1580422677.22239,-45.5024032959489,18.2192721446554,-150.789654383154
1580422677.22638,-36.2859540703441,24.9942778667887,-149.629968719005
1580422677.23038,-27.6798657206073,28.1071183337147,-144.808117799649
1580422677.23438,-18.7075608453497,29.0836957351032,-137.605859464408
1580422677.23838,-8.6366063935302,30.4264896620125,-129.365987640192
1580422677.24238,0.396734569314049,34.0886549172196,-122.102693217365
1580422677.24638,8.69764248111687,40.5584802014189,-116.914625772488
1580422677.25038,16.4492256046387,48.7983520256348,-113.496604867628
1580422677.25438,21.3931486991683,56.6720073243305,-111.421377889677
1580422677.25837,27.191577019913,61.7380025940333,-108.125429159991
1580422677.26237,35.5535210193025,62.592507820249,-101.716639963378
1580422677.26637,48.5542076752877,60.3341725795376,-92.6832990005339
1580422677.27037,63.6911573968109,55.0850690470738,-82.4292362859539
1580422677.27437,78.3398184176394,48.6152437628748,-72.4193179217211
1580422677.27837,89.4483863584346,43.3051041428243,-63.9353017471581
1580422677.28235,94.5143816281379,40.1312275883115,-58.1368734264133
1580422677.28635,94.6974898908979,39.1546501869229,-55.2071412222476
1580422677.29035,91.7067215991456,38.4832532234682,-53.9253833829252
1580422677.29434,83.3447775997561,36.4080262455175,-54.1084916456855
1580422677.29834,71.0154879072252,32.6848249027237,-55.5123216601817
1580422677.30234,55.2681773098343,25.2994583047225,-57.5875486381324
1580422677.30634,37.6287479972532,15.3505760280766,-59.9679560540169
1580422677.31034,19.5620660715647,6.86655985351331,-61.8600747692074
1580422677.31434,3.81475547417404,-0.762951094834762,-62.6535439078355
1580422677.31834,-5.46272983901736,-6.68345159075307,-61.1276417181659
1580422677.32234,-8.69764248111687,-10.1625085831997,-57.5875486381324
1580422677.32633,-9.4911116197452,-10.650797283894,-53.437094682231
1580422677.33033,-8.27038986800949,-9.55214770733187,-49.5307850766767
1580422677.33433,-4.42511635004189,-8.45349813076973,-46.0517280842298
1580422677.33833,3.81475547417404,-7.35484855420759,-42.877851529717
1580422677.34233,17.8530556191347,-6.37827115281902,-39.2156862745098
1580422677.34633,32.7458609903103,-5.46272983901736,-35.3093766689556
1580422677.35033,44.8310063324939,-4.54718852521546,-31.1589227130539
1580422677.35433,53.4370946822305,-2.65506981002522,-27.5577935454337
1580422677.35833,57.8316929884791,-0.396734569314049,-25.1163500419623
1580422677.36233,57.3434042877848,1.12916762035547,-23.3463035019454
1580422677.36633,52.8877698939496,2.7161058976119,-22.1866178377966
1580422677.37033,46.4179446097503,4.24200808728165,-21.6372930495154
1580422677.37433,39.4598306248567,4.91340505073617,-22.1255817502097
1580422677.37833,33.8445105668725,3.93682764934761,-23.3463035019454
1580422677.38233,33.1120775158311,2.7161058976119,-24.5059891660944
1580422677.38633,35.0652323186082,2.04470893415737,-25.1163500419623
1580422677.39033,37.0794232089722,1.9226367589838,-25.1163500419623
1580422677.39433,37.8118562600137,2.41092545967808,-25.1163500419623
1580422677.39832,37.384603646906,3.26543068589308,-25.482566567483
1580422677.40232,37.2625314717325,2.41092545967808,-26.5812161440451
1580422677.40632,35.6145571068894,-0.396734569314049,-27.9240100709544
1580422677.41032,32.9289692530708,-4.30304417486832,-29.1447318226901
1580422677.41432,30.1823453116654,-8.81971465629044,-29.6330205233844
1580422677.41832,26.8863965819789,-13.6415655756466,-29.3888761730373
1580422677.42232,23.0411230640116,-17.5478751812009,-29.5109483482108
1580422677.42631,18.1582360570687,-17.9140917067216,-30.3654535744258
1580422677.43031,14.4350347142747,-17.9751277943083,-31.8303196765089
1580422677.43431,13.8246738384069,-17.486839093614,-33.1731136034182
1580422677.43831,16.0219729915311,-16.2050812542916,-34.0886549172199
1580422677.44229,21.1490043488211,-14.8622873273823,-34.2717631799803
1580422677.44629,26.4591439688716,-13.519493400473,-33.6003662165256
1580422677.45029,31.464103150988,-11.6884107728695,-32.4406805523768
1580422677.45429,35.7366292820629,-10.2235446707866,-30.4875257495994
1580422677.45829,36.530098420691,-9.36903944457163,-29.3278400854504
1580422677.46229,36.2859540703439,-9.30800335698473,-29.8771648737315
1580422677.46628,36.2249179827572,-9.30800335698473,-31.3420309758146
1580422677.47028,36.7742427710382,-7.72106507972831,-32.5017166399634
1580422677.47428,40.1312275883115,-4.60822461280236,-32.6848249027239
1580422677.47828,43.5492484931715,-0.396734569314049,-31.9523918516825
1580422677.48228,47.8828107118331,2.41092545967808,-30.8537422751201
1580422677.48628,52.0332646677348,2.10574502174404,-29.9382009613182
1580422677.49028,56.3668268863962,0.885023270008332,-28.7785152971694
1580422677.49427,58.747234302281,0.579842832074519,-27.9850461585411
1580422677.49827,59.90691996643,0.51880674448762,-28.4733348592354
1580422677.50227,63.3859769588771,0.091554131380235,-29.8161287861446
1580422677.50627,72.6634622720685,-0.823987182421661,-31.0368505378804
1580422677.51027,79.6826123445489,-1.55642023346309,-31.4641031509882
1580422677.51427,84.3823910887313,-2.34988937209118,-31.0368505378804
1580422677.51827,89.2652780956741,-1.0681315327688,-30.1823453116654
1580422677.52228,90.3639276722365,0.762951094834762,-30.5485618371861
1580422677.52628,91.2184328984513,1.0070954451819,-33.0510414282446
1580422677.53027,92.0119020370794,0.091554131380235,-36.7132066834517
1580422677.53427,93.2326237888151,-1.0070954451819,-40.5584802014191
1580422677.53827,89.6925307087818,-1.55642023346309,-44.6478980697339
1580422677.54227,82.7954528114751,-1.80056458381023,-49.4697489890898
1580422677.54627,75.7763027389947,-2.41092545967808,-55.2071412222476
1580422677.55027,66.010528725109,-3.63164721141379,-61.8600747692074
1580422677.55427,57.8316929884791,-4.66926070038903,-68.9402609292745
1580422677.55827,53.3760585946438,-5.34065766384379,-75.4100862134737
1580422677.56226,50.5683985656519,-6.68345159075307,-81.574731059739
1580422677.56626,47.6997024490729,-7.66002899214163,-87.861448081178
1580422677.57026,43.9154650186922,-8.08728160524902,-94.7585259784848
1580422677.57426,40.9246967269396,-8.6366063935302,-101.228351262684
1580422677.57826,39.2767223620965,-9.30800335698473,-106.538490882735
1580422677.58226,33.6614023041122,-10.1014724956131,-111.848630502785
1580422677.58626,28.2902265964751,-11.1390859845883,-117.341878385595
1580422677.59026,23.8956282902266,-12.2377355611504,-123.14030670634
1580422677.59425,21.759365224689,-13.2753490501259,-128.877698939498
1580422677.59825,23.5904478522925,-13.8857099259938,-133.943694209201
1580422677.60223,28.2291905088882,-14.5571068894483,-137.727931639582
1580422677.60623,31.2809948882275,-15.4726482032502,-141.023880369268
1580422677.61023,32.5017166399632,-16.3881895170518,-145.052262149996
1580422677.61423,34.3327992675668,-18.0971999694818,-149.324788281071
1580422677.61823,35.5535210193025,-19.6231021591516,-153.597314412146
1580422677.62223,36.1638818951703,-20.2334630350194,-157.808804455635
1580422677.62623,35.1873044937818,-20.2944991226061,-161.593041886015
1580422677.63022,30.2433813992523,-21.0879682612344,-165.86556801709
1580422677.63422,26.3981078812847,-23.2852674143587,-171.114671549554
1580422677.63822,25.7267109178301,-25.7877470054168,-176.058594644083
1580422677.64222,26.3981078812847,-26.3981078812847,-180.025940337224
1580422677.64622,26.0929274433508,-25.6656748302432,-183.382925154498
1580422677.65022,26.2760357061111,-24.9332417792018,-186.861982146944
1580422677.65422,29.2057679102768,-25.7877470054168,-190.096894789044
1580422677.65822,33.8445105668725,-27.6188296330204,-192.965590905623
1580422677.66221,38.8494697489889,-29.2057679102768,-195.284962233921
1580422677.66621,44.220645456626,-30.0602731364918,-196.871900511177
1580422677.67021,50.3852903028915,-30.609597924773,-198.702983138781
1580422677.67421,57.648584725719,-30.609597924773,-200.411993591211
1580422677.67821,67.8416113527123,-30.5485618371861,-201.57167925536
1580422677.68222,80.5371175707637,-30.6706340123596,-202.243076218814
1580422677.68622,94.5143816281379,-30.6706340123596,-202.365148393988
1580422677.69022,107.209887846189,-29.5719844357975,-201.083390554665
1580422677.69422,117.586022735943,-27.6798657206073,-199.069199664302
1580422677.69822,124.66620889601,-27.2526131074997,-197.482261387045
1580422677.70221,126.009002822919,-27.7409018081939,-196.871900511177
1580422677.70621,124.238956282902,-27.7409018081939,-198.031586175326
1580422677.71021,118.928816662852,-26.5201800564582,-200.22888532845
1580422677.71421,115.083543144885,-25.6656748302432,-202.670328831922
1580422677.71821,111.726558327611,-25.482566567483,-204.867627985046
1580422677.72221,103.547722590982,-23.773556115053,-206.820782787823
1580422677.72621,93.1105516136417,-22.4917982757304,-208.651865415427
1580422677.7302,81.2695506218051,-20.1113908598459,-210.971236743725
1580422677.7342,66.010528725109,-17.1816586556802,-214.511329823758
1580422677.7382,52.0943007553215,-14.068818188754,-218.722819867246
1580422677.7422,36.7742427710382,-14.923323414969,-223.300526436255
1580422677.7462,22.5528343633173,-19.0737773708704,-228.305485618372
1580422677.7502,11.6884107728695,-24.4449530785075,-232.822156099794
1580422677.7542,-4.48615243762879,-30.8537422751201,-236.423285267414
1580422677.7582,-34.5769436179141,-31.8303196765089,-239.475089646754
1580422677.76218,-70.5882352941176,-22.6749065384909,-242.038605325399
1580422677.76618,-106.111238269627,-9.55214770733187,-244.29694056611
1580422677.77017,-127.901121538109,0.457770656900948,-242.58793011368
1580422677.77417,-126.619363698787,6.68345159075307,-233.066300450141
1580422677.77817,-105.745021744106,3.26543068589308,-219.577325093462
1580422677.78217,-71.1375600823987,-7.90417334248878,-204.98970016022
1580422677.78617,-44.1596093690396,-26.5812161440451,-182.711528191043
1580422677.79017,-36.041809719997,-35.9807736324103,-155.123216601816
1580422677.79417,-33.9665827420463,-28.3512626840618,-125.337605859464
1580422677.79816,-30.5485618371861,-20.4165712977797,-89.1432059205003
1580422677.80216,-19.9282825970854,-16.937514305333,-50.9346150911726
1580422677.80616,-4.42511635004189,-8.69764248111687,-21.0269321736475
1580422677.81016,2.59403372243833,4.05889982452118,-3.26543068589308
1580422677.81416,-11.0780498970016,12.1156633859769,5.82894636453807
1580422677.81816,-46.2958724345769,12.7870603494316,9.79629205767901
1580422677.82216,-91.6456855115587,9.24696726939806,8.81971465629044
1580422677.82616,-134.676127260243,5.82894636453807,4.36408026245522
1580422677.83015,-167.208361944,2.96025024795904,-0.213626306553806
1580422677.83415,-188.143739986267,0.579842832074519,-1.55642023346309
1580422677.83815,-199.496452277409,-0.823987182421661,2.53299763485165
1580422677.84216,-201.266498817426,-2.16678110933094,13.3974212252995
1580422677.84616,-192.294193942168,-4.30304417486832,31.8303196765087
1580422677.85016,-173.678187228199,-6.31723506523235,57.2823682001981
1580422677.85416,-148.531319142443,-7.59899290455473,87.4952315556575
1580422677.85816,-120.393682764935,-7.29381246662092,118.440527962158
1580422677.86216,-92.9884794384679,-5.58480201419093,147.188525215533
1580422677.86615,-68.6961165789273,-2.89921416037237,171.908140688182
1580422677.87015,-47.5776302738996,-0.457770656900948,192.294193942168
1580422677.87415,-29.755092698558,1.12916762035547,208.346684977493
1580422677.87815,-15.8999008163576,1.55642023346309,220.675974670024
1580422677.88215,-6.13412680247188,0.396734569314049,230.380712596323
1580422677.88615,1.61745632104976,-2.47196154726475,238.620584420539
1580422677.89015,8.45349813076973,-5.7068741893645,247.104600595102
1580422677.89415,14.7402151522087,-8.39246204318306,256.626230258641
1580422677.89814,20.1724269474325,-9.91836423285258,267.917906462196
1580422677.90214,24.2618448157473,-9.97940032043948,280.796520943008
1580422677.90614,27.0695048447394,-9.73525597009234,294.590676737621
1580422677.91014,29.755092698558,-9.4300755321583,308.384832532235
1580422677.91414,32.9289692530708,-8.75867856870377,321.507591363394
1580422677.91814,37.4456397344929,-7.96520943007545,333.226520180056
1580422677.92212,42.3285267414358,-7.23277637903402,343.480582894636
1580422677.92612,46.7231250476843,-6.25619897764545,352.269779507134
1580422677.93012,50.5073624780648,-5.27962157625689,360.021362630655
1580422677.93411,52.5825894560157,-4.24200808728165,366.735332265202
1580422677.93811,53.5591668574043,-3.14335851071951,372.777904936293
1580422677.94211,53.2539864194705,-2.16678110933094,378.942549782559
1580422677.94611,51.36186770428,-1.55642023346309,385.290302891585
1580422677.95011,48.0048828870067,-0.457770656900948,391.577019913023
1580422677.95411,43.3051041428243,1.55642023346309,397.314412146181
1580422677.95811,36.7742427710382,3.20439459830618,402.441443503471
1580422677.96211,30.2433813992523,4.66926070038903,406.83604180972
1580422677.9661,24.322880903334,6.25619897764545,410.376134889753
1580422677.9701,17.5478751812009,8.02624551766235,412.634470130465
1580422677.9741,9.18593118181116,10.1014724956131,413.8551918822
1580422677.9781,-0.70191500724809,11.6884107728695,414.404516670481
1580422677.9821,-11.9325551232166,12.359807736324,415.136949721523
1580422677.9861,-24.2618448157473,13.214312962539,415.625238422217
1580422677.9901,-38.910505836576,14.923323414969,415.014877546349
1580422677.9941,-56.1226825360495,15.4726482032502,412.756542305638
1580422677.9981,-76.6308079652094,16.0219729915311,408.72816052491
1580422678.0021,-100.251773861296,17.2426947432668,403.662165255207
1580422678.0061,-124.605172808423,18.0971999694818,397.802700846876
1580422678.0101,-149.080643930724,17.792019531548,391.821164263371
1580422678.0141,-174.22751201648,16.5102616922254,385.900663767452
1580422678.0181,-201.022354467079,14.1298542763409,379.30876630808
1580422678.0221,-228.610666056306,11.0780498970016,372.167544060426
1580422678.0261,-253.635461966888,6.56137941557949,364.782177462425
1580422678.0301,-271.946288242924,1.8616006713969,357.579919127184
1580422678.03409,-280.918593118181,-3.44853894865332,350.743877317464
1580422678.03809,-280.3692683299,-9.85732814526591,344.029907682918
1580422678.04209,-271.885252155337,-17.1206225680933,337.071793698024
1580422678.04609,-256.870374608988,-24.322880903334,329.564354924849
1580422678.05009,-236.789501792935,-30.7316700999465,321.324483100634
1580422678.05409,-213.90096894789,-35.7366292820632,312.535286488137
1580422678.05809,-190.157930876631,-38.8494697489891,302.58640421149
1580422678.06209,-166.475928892958,-39.5208667124439,291.111619745174
1580422678.06608,-143.892576485847,-37.9949645227741,277.866788738842
1580422678.07008,-123.689631494621,-34.2107270923934,263.523308155947
1580422678.07408,-105.256733043412,-27.9240100709544,248.691538872358
1580422678.07808,-86.7017624170289,-21.759365224689,233.737697413596
1580422678.08206,-69.0012970168611,-16.0219729915311,218.600747692073
1580422678.08606,-53.437094682231,-8.08728160524902,203.46379797055
1580422678.09006,-36.2859540703441,-0.274662394140478,188.08270389868
1580422678.09406,-16.5712977798123,5.09651331349664,172.213321126116
1580422678.09806,5.34065766384379,9.06385900663759,155.489433127336
1580422678.10205,27.2526131074997,12.4818799114976,136.140993362325
1580422678.10605,46.2958724345767,16.3271534294652,112.703135729
1580422678.11005,60.1510643167771,20.2334630350194,84.3823910887313
1580422678.11405,68.2078278782333,22.8580148012511,53.0098420691234
1580422678.11805,72.1751735713742,24.3839169909209,19.9893186846723
1580422678.12205,75.5931944762342,24.4449530785075,-12.359807736324
1580422678.12605,80.2929732204166,23.4073395895323,-43.0609597924774
1580422678.13005,87.0679789425499,21.0879682612344,-71.3817044327459
1580422678.13404,97.2610055695432,19.2568856336309,-96.9558251316091
1580422678.13804,109.651331349661,18.7685969329366,-119.172961013199
1580422678.14204,122.041657129778,19.5620660715647,-137.727931639582
1580422678.14604,138.094148165103,29.4499122606239,-154.08560311284
1580422678.15004,157.076371404593,39.093614099336,-164.705882352941
1580422678.15404,188.265812161441,49.9580376897839,-165.316243228809
1580422678.15804,222.26291294728,42.0843823910886,-152.498664835584
1580422678.16205,262.912947280079,19.1348134584573,-136.873426413367
1580422678.16605,297.4593728542,-16.5712977798123,-111.17723353933
1580422678.17004,248.813611047532,-57.5265125505455,-62.2262912947281
1580422678.17404,132.661936369879,-55.7564660105288,-26.2760357061111
1580422678.17804,19.2568856336309,-10.2235446707866,-40.7415884641796
1580422678.18204,-68.2688639658197,16.6933699549859,-82.1850919356068
1580422678.18604,-150.850690470741,25.2994583047225,-121.065079728389
1580422678.19004,-231.174181734951,29.2668039978637,-156.771190966659
1580422678.19404,-281.101701380941,23.0411230640116,-199.130235751888
1580422678.19804,-275.42534523537,1.80056458381023,-235.019455252918
1580422678.20204,-219.272144655528,-17.8530556191347,-225.925078202487
1580422678.20603,-158.785381857023,-15.3505760280766,-194.674601358053
1580422678.21003,-121.065079728389,12.1766994735638,-171.480888075075
1580422678.21403,-101.594567788205,38.7273975738153,-160.921644922561
1580422678.21803,-94.6364538033113,43.4271763179979,-157.686732280461
1580422678.22203,-104.402227817197,36.0418097199968,-158.419165331502
1580422678.22603,-127.473868925002,25.5436026550697,-162.691691462577
1580422678.23003,-159.761959258412,15.5336842908368,-168.001831082628
1580422678.23403,-186.55680170901,10.3456168459602,-172.457465476463
1580422678.23802,-187.289234760052,11.0170138094147,-176.180666819257
1580422678.242,-160.921644922561,14.9843595025559,-179.293507286183
1580422678.246,-120.027466239414,19.5620660715647,-181.307698176547
1580422678.25,-77.5463492790111,22.7969787136644,-180.086976424811
1580422678.254,-45.6244754711224,24.5059891660944,-175.204089417868
1580422678.258,-25.8487830930037,26.4591439688716,-167.025253681239
1580422678.262,-15.8999008163576,29.0836957351032,-157.442587930114
1580422678.266,-14.6181429770352,31.8913557640954,-148.77546349279
1580422678.26999,-19.9893186846723,34.4548714427403,-141.390096894789
1580422678.27399,-26.7643244068054,38.7273975738153,-136.385137712673
1580422678.27799,-26.7032883192187,43.2440680552374,-132.906080720226
1580422678.28199,-17.4258030060273,44.8920424200808,-129.610131990539
1580422678.28599,-1.61745632104976,43.9765011062789,-124.910353246357
1580422678.28999,19.6231021591516,42.2674906538489,-117.280842298009
1580422678.29399,41.9012741283282,39.8870832379644,-106.660563057908
1580422678.29799,63.14183260853,37.6287479972532,-95.2468146791791
1580422678.30199,83.1616693369956,34.2107270923932,-84.9927519645989
1580422678.30598,100.434882124056,29.0836957351032,-77.0580605783168
1580422678.30998,113.191424429694,23.9566643778132,-71.1375600823987
1580422678.31398,120.088502327001,19.7451743343252,-66.0715648126954
1580422678.31798,121.919584954604,17.7309834439611,-60.9445334554055
1580422678.32199,120.027466239414,17.1816586556802,-55.4512855725948
1580422678.32599,115.022507057298,16.0219729915311,-50.3852903028917
1580422678.32999,107.637140459296,13.214312962539,-46.9062333104448
1580422678.33399,95.4909590295265,8.94178683146401,-45.3803311207753
1580422678.33799,78.1567101548794,4.60822461280236,-45.8075837338827
1580422678.34198,63.14183260853,2.28885328450451,-46.9672693980317
1580422678.34598,51.4229037918667,1.19020370794237,-48.0048828870069
1580422678.34998,42.9999237048903,1.55642023346309,-49.4087129015031
1580422678.35398,35.3093766689553,1.61745632104976,-50.4463263904784
1580422678.35798,28.4122987716487,2.22781719691761,-50.6904707408255
1580422678.36198,22.7969787136644,3.14335851071951,-50.2021820401312
1580422678.36598,16.9985503929197,4.11993591210808,-49.1035324635691
1580422678.36998,10.8339055466545,4.73029678797593,-48.1269550621805
1580422678.37397,8.81971465629044,4.48615243762879,-47.0283054856184
1580422678.37797,9.85732814526591,4.05889982452118,-45.6855115587091
1580422678.38197,14.068818188754,3.26543068589308,-44.0985732814527
1580422678.38597,20.5996795605402,2.34988937209118,-42.1454184786755
1580422678.38997,27.9850461585411,1.98367284657047,-39.8870832379646
1580422678.39397,33.7224383916989,2.59403372243833,-37.0183871213856
1580422678.39797,36.2249179827572,3.93682764934761,-34.2107270923934
1580422678.40195,36.4080262455175,5.27962157625689,-31.8303196765089
1580422678.40594,36.7132066834515,5.52376592660403,-30.1823453116654
1580422678.40994,36.5911345082779,4.60822461280236,-29.0836957351032
1580422678.41394,37.8118562600137,3.02128633554594,-27.3746852826732
1580422678.41794,41.9012741283282,1.8616006713969,-24.0177004654001
1580422678.42194,45.6244754711222,2.41092545967808,-19.3789578088044
1580422678.42594,50.2632181277177,3.87579156176093,-15.228503852903
1580422678.42994,57.4654764629586,4.24200808728165,-12.0546272983902
1580422678.43394,65.8274204623485,2.34988937209118,-10.1014724956131
1580422678.43793,72.0531013962009,-0.335698481727377,-8.81971465629044
1580422678.44193,75.1659418631266,-1.37331197070262,-8.14831769283592
1580422678.44593,76.9359884031437,-1.12916762035547,-7.90417334248878
1580422678.44993,77.2411688410775,-1.0681315327688,-8.20935378042259
1580422678.45393,74.6776531624323,-1.49538414587619,-9.24696726939806
1580422678.45793,68.9402609292747,-3.81475547417404,-10.955977721828
1580422678.46193,62.4093995574881,-6.86655985351331,-12.4818799114976
1580422678.46593,56.6109712367434,-9.79629205767901,-13.8246738384069
1580422678.46993,49.4087129015029,-10.4066529335469,-15.4726482032502
1580422678.47392,41.4129854276339,-10.5897611963073,-17.8530556191347
1580422678.47792,35.4314488441289,-10.2235446707866,-20.2334630350194
1580422678.48193,33.0510414282444,-8.88075074387734,-21.6983291371023
1580422678.48593,33.173113603418,-7.7821011673152,-21.759365224689
1580422678.48993,34.7600518806744,-6.5003433279926,-20.2944991226061
1580422678.49393,36.2859540703439,-4.7913328755626,-18.9517051956968
1580422678.49793,37.4456397344929,-3.99786373693451,-18.1582360570687
1580422678.50193,41.9012741283282,-3.57061112382689,-17.486839093614
1580422678.50593,47.1503776607917,-2.96025024795904,-17.1206225680933
1580422678.50992,49.65285725185,-3.32646677347975,-17.1816586556802
1580422678.51392,55.3902494850076,-3.02128633554594,-16.9985503929197
1580422678.51792,63.14183260853,-1.9226367589838,-17.1206225680933
1580422678.52192,68.7571526665142,-1.49538414587619,-18.1582360570687
1580422678.52592,75.5321583886475,-0.762951094834762,-19.1348134584573
1580422678.52992,84.9317158770123,0.51880674448762,-19.1348134584573
1580422678.53392,89.1432059205008,2.04470893415737,-19.9282825970854
1580422678.53792,89.2652780956741,2.16678110933094,-22.8580148012511
1580422678.54191,87.312123292897,1.37331197070262,-27.2526131074997
1580422678.54591,85.0537880521861,0.274662394140478,-31.8303196765089
1580422678.54991,81.4526588845656,0.091554131380235,-36.7742427710384
1580422678.55391,74.3724727244985,0.396734569314049,-43.1219958800641
1580422678.55791,68.2688639658199,-0.396734569314049,-49.7138933394369
1580422678.56189,64.4846265354395,-2.22781719691761,-55.8785381857024
1580422678.56589,59.6627756160829,-3.57061112382689,-61.7990386816205
1580422678.56989,53.8033112077514,-4.30304417486832,-67.9636835278859
1580422678.57389,50.0801098649576,-5.40169375143046,-73.8231479362173
1580422678.57788,46.8451972228579,-6.56137941557949,-79.4995040817882
1580422678.58188,43.4882124055846,-7.35484855420759,-85.4810406652932
1580422678.58588,41.7792019531546,-8.02624551766235,-91.279468986038
1580422678.58988,39.8260471503775,-8.81971465629044,-97.2610055695432
1580422678.59388,37.0183871213853,-9.91836423285258,-103.059433890288
1580422678.59788,34.6990157930875,-10.8949416342411,-109.040970473793
1580422678.60188,32.7458609903103,-11.2611581597619,-114.900434882124
1580422678.60588,29.4499122606239,-12.1156633859769,-121.004043640803
1580422678.60987,28.2902265964751,-12.7260242618447,-126.680399786374
1580422678.61387,28.1071183337147,-13.0922407873654,-131.929503318837
1580422678.61787,26.2760357061111,-14.1298542763409,-137.544823376822
1580422678.62187,25.8487830930037,-15.777828641184,-143.770504310674
1580422678.62587,26.2149996185244,-17.1816586556802,-148.95857175555
1580422678.62987,25.4215304798961,-17.2426947432668,-153.597314412146
1580422678.63387,21.5152208743418,-17.1816586556802,-158.84641794461
1580422678.63787,15.4116121156633,-18.7075608453497,-165.011062790875
1580422678.64188,11.2611581597619,-20.4165712977797,-171.17570763714
1580422678.64587,8.75867856870377,-21.759365224689,-176.791027695125
1580422678.64987,8.81971465629044,-22.0035095750361,-181.307698176547
1580422678.65387,10.0404364080262,-22.1866178377966,-185.214007782101
1580422678.65787,12.359807736324,-23.1631952391851,-189.242389562829
1580422678.66187,16.9985503929197,-23.7125200274661,-193.02662699321
1580422678.66587,22.7969787136644,-24.0177004654001,-196.44464789807
1580422678.66987,27.9240100709544,-23.468375677119,-199.618524452583
1580422678.67387,31.8913557640954,-23.2242313267718,-202.487220569162
1580422678.67787,35.3093766689553,-24.2618448157473,-205.17280842298
1580422678.68186,37.5677119096665,-25.1773861295489,-208.224612802319
1580422678.68586,40.1312275883115,-25.6656748302432,-211.398489356832
1580422678.68986,45.5634393835353,-26.1539635309375,-214.206149385824
1580422678.69386,53.6812390325777,-26.0318913557639,-216.342412451362
1580422678.69786,62.7756160830095,-25.1163500419623,-217.868314641031
1580422678.70186,75.4100862134737,-24.5059891660944,-218.539711604486
1580422678.70586,91.3405050736251,-25.6046387426566,-218.783855954833
1580422678.70985,110.383764400702,-27.4967574578468,-218.417639429312
1580422678.71385,128.023193713283,-28.1071183337147,-216.647592889296
1580422678.71785,137.666895551995,-26.337071793698,-214.267185473411
1580422678.72183,138.33829251545,-24.3839169909209,-212.497138933394
1580422678.72583,130.891889829862,-23.2242313267718,-212.680247196155
1580422678.72983,119.111924925612,-22.3697261005568,-215.060654612039
1580422678.73383,108.979934386206,-21.2710765239947,-217.441062027924
1580422678.73783,98.2986190585184,-20.8438239108873,-218.783855954833
1580422678.74183,86.7017624170294,-21.6372930495154,-219.699397268635
1580422678.74582,78.9501792935075,-21.8204013122759,-220.737010757611
1580422678.74982,78.8891432059208,-18.646524757763,-221.591515983826
1580422678.75382,82.3071641107808,-14.6791790646218,-221.652552071412
1580422678.75782,82.7954528114751,-14.3129625391011,-220.737010757611
1580422678.76182,74.1283283741514,-16.2050812542916,-219.028000305181
1580422678.76582,57.1602960250248,-18.9517051956968,-218.051422903792
1580422678.76982,35.7366292820629,-21.9424734874494,-218.417639429312
1580422678.77382,7.29381246662092,-25.1163500419623,-220.737010757611
1580422678.77781,-27.6798657206073,-25.6046387426566,-223.60570687419
1580422678.78181,-61.3717860685131,-18.2803082322423,-226.352330815595
1580422678.78581,-91.9508659494925,-6.74448767833974,-228.061341268025
1580422678.78981,-109.407186999313,0.640878919661191,-226.657511253529
1580422678.79381,-109.224078736553,5.03547722590974,-221.89669642176
1580422678.79781,-100.007629510948,4.42511635004189,-215.671015487907
1580422678.80182,-90.3028915846494,-3.81475547417404,-207.186999313344
1580422678.80582,-79.8046845197223,-12.1766994735638,-192.233157854582
1580422678.80982,-65.2170595864804,-13.8246738384069,-163.668268863966
1580422678.81381,-45.746547646296,-14.3129625391011,-120.149538414588
1580422678.81781,-20.6607156481268,-14.8012512397954,-71.9920653086137
1580422678.82181,6.07309071488521,-11.0170138094147,-30.7316700999465
1580422678.82581,30.1213092240787,-2.16678110933094,0.213626306553806
1580422678.82981,42.3285267414358,7.11070420386045,21.9424734874494
1580422678.83381,32.1965362020294,13.0922407873654,37.4456397344929
1580422678.83781,-1.31227588311594,15.5947203784237,46.9062333104446
1580422678.84181,-48.6762798504617,16.2661173418783,48.2490272373539
1580422678.8458,-97.3830777447167,15.4726482032502,43.366140230411
1580422678.8498,-137.117570763714,13.214312962539,37.384603646906
1580422678.8538,-165.438315403983,10.650797283894,35.1873044937818
1580422678.8578,-183.810177767605,8.33142595559616,38.9715419241625
1580422678.8618,-194.064240482185,6.13412680247188,49.1645685511558
1580422678.8658,-195.284962233921,3.99786373693451,65.6443121995881
1580422678.8698,-185.763332570382,2.10574502174404,88.2276646066989
1580422678.8738,-165.743495841917,-0.152590218966907,114.656290531777
1580422678.87779,-137.605859464408,-2.7771419851988,142.610818646525
1580422678.88177,-106.660563057908,-4.60822461280236,169.222552834363
1580422678.88577,-76.5697718776225,-5.21858548867021,192.904554818037
1580422678.88977,-49.8359655146105,-4.24200808728165,212.924391546502
1580422678.89377,-26.0929274433508,-2.59403372243833,229.037918669414
1580422678.89777,-4.91340505073617,-0.457770656900948,241.611352712291
1580422678.90177,13.0922407873654,1.25123979552905,251.13298237583
1580422678.90577,27.7409018081939,1.8616006713969,259.616998550393
1580422678.90977,36.7742427710382,1.61745632104976,269.382772564279
1580422678.91376,39.1546501869229,1.19020370794237,280.796520943008
1580422678.91776,37.2014953841458,0.579842832074519,293.553063248646
1580422678.92176,33.3562218661782,0.51880674448762,307.103074692912
1580422678.92576,29.755092698558,1.19020370794237,321.080338750287
1580422678.92976,26.5812161440451,3.08232242313261,334.264133669032
1580422678.93376,24.9942778667887,5.6458381017776,346.776531624323
1580422678.93776,26.5812161440451,7.84313725490188,358.068207827878
1580422678.94176,30.5485618371861,10.0404364080262,367.956054016938
1580422678.94576,35.4314488441289,12.1156633859769,376.562142366674
1580422678.94975,40.3753719386586,14.0077821011673,383.642328526741
1580422678.95375,45.0141145952543,16.1440451667047,389.501792935073
1580422678.95775,49.8359655146105,19.0737773708704,394.68986037995
1580422678.96176,53.8643472953381,22.613870450904,399.450675211719
1580422678.96576,55.2071412222476,25.3604943923094,404.211490043488
1580422678.96976,53.4370946822305,27.8019378957808,408.789196612497
1580422678.97376,48.6762798504615,30.4875257495994,412.939650568399
1580422678.97776,42.0233463035017,32.1965362020294,416.174563210498
1580422678.98176,34.4548714427403,33.1120775158311,418.860151064317
1580422678.98575,24.2618448157473,33.8445105668725,420.813305867094
1580422678.98975,11.2611581597619,35.1262684061951,421.789883268482
1580422678.99375,-3.44853894865332,36.3469901579308,421.545738918135
1580422678.99775,-19.6231021591516,37.0183871213853,419.958800640879
1580422679.00175,-36.8352788586253,37.6287479972532,417.212176699473
1580422679.00575,-55.6954299229419,37.5677119096665,412.695506218051
1580422679.00975,-75.898374914168,36.2859540703439,406.713969634546
1580422679.01374,-97.0778973067827,34.6379797055008,399.694819562066
1580422679.01774,-118.989852750439,32.0744640268558,392.553597314412
1580422679.02174,-140.4135194934,28.046082246128,386.022735942626
1580422679.02574,-160.982681010147,22.919050888838,379.919127183948
1580422679.02974,-179.659723811704,17.1816586556802,373.876554512856
1580422679.03374,-195.529106584268,10.2845807583733,367.34569314107
1580422679.03774,-207.736324101625,2.34988937209118,360.204470893416
1580422679.04172,-214.633401998932,-6.62241550316617,352.391851682307
1580422679.04572,-214.145113298237,-15.8388647287709,344.151979858091
1580422679.04972,-206.088349736782,-25.1773861295489,335.790035858702
1580422679.05371,-192.782482642863,-34.0276188296332,327.306019684138
1580422679.05771,-178.866254673075,-40.9857328145267,318.577859159228
1580422679.06171,-167.452506294347,-45.3192950331884,309.300373846036
1580422679.06571,-158.66330968185,-47.0283054856184,299.53459983215
1580422679.06971,-152.437628747997,-46.2348363469903,287.815671015488
1580422679.07371,-148.226138704509,-43.2440680552377,273.228046082246
1580422679.07771,-145.113298237583,-39.2156862745098,255.344472419318
1580422679.0817,-143.587396047913,-34.5769436179141,234.653238727398
1580422679.0857,-141.695277332723,-29.9992370489051,212.558175020981
1580422679.0897,-139.009689478904,-27.0695048447394,190.707255664912
1580422679.0937,-135.713740749218,-24.2618448157473,169.954985885405
1580422679.0977,-131.197070267796,-20.904859998474,149.691004806592
1580422679.1017,-123.689631494621,-16.3271534294652,129.854276340886
1580422679.1057,-114.656290531777,-13.0312046997788,108.979934386206
1580422679.1097,-104.280155642023,-11.0170138094147,86.4576180666822
1580422679.11369,-93.2936598764018,-8.5755703059433,62.7756160830095
1580422679.11769,-81.4526588845654,-6.13412680247188,38.0560006103608
1580422679.1217,-68.6350804913404,-2.7771419851988,12.1156633859769
1580422679.1257,-52.7656977187762,1.0681315327688,-13.9467460135804
1580422679.1297,-33.0510414282446,5.40169375143046,-39.3377584496834
1580422679.1337,-8.27038986800949,10.1625085831997,-63.3859769588769
1580422679.1377,19.2568856336309,14.4960708018616,-85.6641489280537
1580422679.1417,48.7983520256348,22.5528343633173,-106.05020218204
1580422679.1457,78.0346379797056,37.1404592965589,-124.84931715877
1580422679.14969,96.2844281681546,40.4974441138322,-139.070725566491
