Timestamp_seconds,Accel_X_g,Accel_Y_g,Accel_Z_g
1580422672.27281,-0.924086366063936,-0.352788586251622,0.159914549477378
1580422672.3049,-0.937270160982681,-0.355230029755093,0.146242465857938
1580422672.33699,-0.929457541771573,-0.351812008850233,0.162844281681544
1580422672.36908,-0.916762035553521,-0.35718318455787,0.153566796368352
1580422672.40118,-0.938735027084764,-0.33667505912871,0.129640650034332
1580422672.43328,-0.941176470588236,-0.323491264209965,0.128664072632944
1580422672.46537,-0.926039520866713,-0.346440833142596,0.165285725185015
1580422672.49746,-0.931898985275044,-0.321049820706493,0.161867704280155
1580422672.52955,-0.928480964370184,-0.328374151216908,0.150148775463492
1580422672.56164,-0.935317006179904,-0.332280460822462,0.151125352864881
1580422672.59374,-0.928480964370184,-0.336186770428016,0.154543373769741
1580422672.62583,-0.94850080109865,-0.32642099641413,0.128175783932249
1580422672.65792,-0.943617914091707,-0.296635385671779,0.147707331960021
1580422672.69001,-0.937270160982681,-0.36401922636759,0.117433432516975
1580422672.72211,-0.942153047989624,-0.32983901731899,0.144289311055161
1580422672.7542,-0.935317006179904,-0.364995803768979,0.126222629129472
1580422672.78629,-0.928480964370184,-0.350835431448845,0.0925307087815668
1580422672.81838,-0.908461127641718,-0.376714732585642,0.0749523155565726
1580422672.85047,-0.928969253070878,-0.363042648966202,0.060303654535744
1580422672.88257,-0.914808880750744,-0.350835431448845,0.0764171816586554
1580422672.91466,-0.934340428778516,-0.374761577782865,0.0866712443732354
1580422672.94675,-0.937270160982681,-0.377203021286336,0.0793469138628211
1580422672.97884,-0.947524223697261,-0.357671473258565,0.0939955748836496
1580422673.01093,-0.922621499961853,-0.354741741054399,0.0803234912642097
1580422673.04303,-0.911879148546578,-0.348393987945373,0.0661631189440754
1580422673.07512,-0.915297169451438,-0.36401922636759,0.0744640268558783
1580422673.10721,-0.94850080109865,-0.362066071564813,0.060303654535744
1580422673.1393,-0.932387273975738,-0.319096665903716,0.0651865415426869
1580422673.17139,-0.926527809567407,-0.321538109407188,0.0744640268558783
1580422673.20349,-0.933852140077821,-0.355718318455787,0.0852063782711525
1580422673.23558,-0.938735027084764,-0.33325703822385,0.12133974212253
1580422673.26767,-0.924086366063936,-0.316655222400245,0.140383001449607
1580422673.29976,-0.949965667200733,-0.32983901731899,0.138918135347524
1580422673.33185,-0.937758449683376,-0.314702067597468,0.160402838178072
1580422673.36395,-0.926527809567407,-0.318120088502328,0.191165026321812
1580422673.39604,-0.891859311818113,-0.291752498664836,0.225833524071106
1580422673.42813,-0.93824673838407,-0.321049820706493,0.192629892423895
1580422673.46022,-0.949477378500038,-0.337163347829405,0.156496528572518
1580422673.49231,-0.868421454184787,-0.317631799801633,0.154055085069047
1580422673.52441,-0.922133211261158,-0.336186770428016,0.130617227435721
1580422673.5565,-0.983169298847944,-0.335210193026628,0.041260395208667
1580422673.58859,-0.958266575112535,-0.357671473258565,0.00366216525520713
1580422673.62068,-0.91432059205005,-0.352300297550928,0.0617685206378269
1580422673.65277,-0.99635309376669,-0.354253452353705,0.149172198062104
1580422673.68494,-0.93824673838407,-0.313725490196079,0.190188448920424
1580422673.71703,-0.96217288471809,-0.329350728618296,0.129640650034332
1580422673.74912,-0.922621499961853,-0.330327306019685,0.126710917830167
1580422673.78121,-0.908949416342413,-0.331792172121768,0.138918135347524
1580422673.8133,-0.90748455024033,-0.350835431448845,0.128664072632944
1580422673.8454,-0.910414282444496,-0.334233615625239,0.0959487296864268
1580422673.87749,-0.939711604486153,-0.332768749523156,0.0803234912642097
1580422673.90958,-0.940199893186847,-0.376714732585642,0.0856946669718468
1580422673.94167,-0.916273746852827,-0.38110933089189,0.11450370031281
1580422673.97376,-0.91090257114519,-0.331792172121768,0.152590218966964
1580422674.00586,-0.938735027084764,-0.320561532005799,0.164309147783626
1580422674.03795,-0.97584496833753,-0.331792172121768,0.0954604409857325
1580422674.07004,-0.927016098268101,-0.373785000381476,0.0617685206378269
1580422674.10213,-0.933363851377127,-0.344975967040513,0.0871595330739297
1580422674.13422,-0.952407110704204,-0.298588540474556,0.0876478217746239
1580422674.16632,-0.964126039520867,-0.313725490196079,0.124269474326695
1580422674.19841,-0.91090257114519,-0.325932707713436,0.131593804837109
1580422674.2305,-0.935805294880598,-0.307377737087053,0.217532616159303
1580422674.26259,-1.06471351186389,-0.132570382238498,0.198001068131532
1580422674.29469,-1.08424505989166,0.00122072175173571,0.203372243839169
1580422674.32678,-1.1662775616083,-0.0827649347676811,0.305912870984969
1580422674.35887,-1.24538033112077,-0.0866712443732354,0.219974059662775
1580422674.39096,-1.32545967803464,-0.318608377203022,-0.0588387884336612
1580422674.42305,-1.11305409323262,0.160402838178072,-0.305912870984971
1580422674.45515,-0.901136797131304,0.517830167086291,-0.114991989013504
1580422674.48724,-0.898207064927139,0.0324711985961699,-0.00415045395590141
1580422674.51933,-0.972915236133364,-0.396734569314107,0.0290531776913099
1580422674.55142,-0.98609903105211,-0.570565346761272,0.0500495918211641
1580422674.58351,-0.889906157015336,-0.43921568627451,0.195559624628061
1580422674.61561,-0.751720454718853,-0.0969253070878153,0.206790264744029
1580422674.6477,-0.986587319752804,-0.0500495918211641,0.301029983978026
1580422674.67979,-1.0637369344625,-0.131593804837109,0.463141832608528
1580422674.71188,-0.966567483024338,-0.210208285648889,0.543709468223089
1580422674.74397,-0.94508278019379,-0.113527122911421,0.499275196459905
1580422674.77607,-0.846448462653544,-0.0568856336308841,0.444098573281451
1580422674.80816,-0.838147554741742,-0.127199206530861,0.322514686808574
1580422674.84025,-0.867444876783399,-0.161867704280155,0.126222629129472
1580422674.87234,-1.24684519722286,0.0427252613107498,-0.0397955291065841
1580422674.90444,-1.24391546501869,0.0969253070878153,-0.0847180895704582
1580422674.93653,-0.867444876783399,-0.173586633096818,-0.204837109941252
1580422674.96881,-0.957778286411841,-0.133058670939192,-0.151125352864881
1580422675.0009,-0.985122453650721,0.0354009308003356,-0.138429846646829
1580422675.03299,-1.09987029831388,0.0256351567864499,-0.0803234912642097
1580422675.06509,-0.812756542305639,0.0441901274128327,-0.123781185626001
1580422675.09718,-0.770275425345236,0.0485847257190812,-0.458258945601587
1580422675.12927,-0.83570611123827,0.320561532005797,-0.529549095902953
1580422675.16136,-2.41190203707942,0.0549324788281069,0.89723048752575
1580422675.19345,-1.4402075226978,-0.263920042725262,-0.0866712443732354
1580422675.22555,-1.31081101701381,-0.186282139314869,-0.169192034790569
1580422675.25764,-0.735118638895246,0.235111009384298,-0.631113145647364
1580422675.28973,-1.09108110170138,0.130128938735027,-0.600839246204318
1580422675.32182,-1.15309376668955,-0.179934386205844,-0.0212405584802013
1580422675.35392,-0.892835889219501,-0.00659189745937283,-0.0720225833524069
1580422675.38601,-1.07057297627222,0.299076829175249,-0.163820859082932
1580422675.4181,-1.01979095140002,0.0417486839093613,-0.260013733119708
1580422675.45019,-1.06666666666667,0.0744640268558783,-0.200442511635003
1580422675.48228,-1.1408865491722,0.269779507133592,0.0422369726100555
1580422675.51438,-1.02516212710765,0.249759670405126,0.374761577782863
1580422675.54647,-0.896253910124361,0.310795757991912,0.709727626459145
1580422675.57856,-1.09059281300069,0.179446097505149,1.03492790112154
1580422675.61065,-1.414328221561,-0.048096437018387,1.12135500114443
1580422675.64275,-2.03006027313649,-0.157473105973907,1.15065232318608
1580422675.67484,-2.13406576638437,0.262943465323872,0.750255588616771
1580422675.70693,-2.18484779125658,0.351323720149537,-0.93141069657435
1580422675.73902,-0.91773861295491,0.222903791866941,-1.22194247348745
1580422675.77111,-1.25319295033188,0.415289539940488,-0.448981460288396
1580422675.80321,-0.45630579079881,-0.306889448386359,-0.873792629892424
1580422675.8353,-0.229739833676661,-0.873792629892424,-0.578866254673075
1580422675.86739,-0.115968566414892,-0.718028534370946,-0.913344014648661
1580422675.89948,-0.338139925230793,-0.490974288548104,-0.716075379568169
1580422675.93157,-0.680430304417486,0.334721904325932,-0.999282825970855
1580422675.96367,-1.46413366903182,0.605233844510568,-0.861097123674373
1580422675.99576,-1.03053330281529,-1.29616235599298,-0.691660944533455
1580422676.02785,-0.643808651865415,-0.153078507667658,-0.712169069962615
1580422676.05994,-0.613534752422369,0.324956130312046,-0.590585183489738
1580422676.09203,-1.82009613183795,-0.610605020218204,1.28249027237354
1580422676.12413,-1.19703974975204,0.792248416876479,-0.310307469291219
1580422676.15622,-1.39870298313878,-0.539314869916838,-0.685801480125123
1580422676.18831,-0.987075608453498,-0.727306019684137,-0.827893492027162
1580422676.2204,-1.15651178759441,0.269291218432897,-0.722911421377889
1580422676.25232,-1.31862363622492,0.582772564278631,-0.399664301518273
1580422676.28441,-1.0642252231632,-0.0544441901274126,-0.177492942702372
1580422676.3165,-1.05983062485695,-0.116945143816281,-0.0910658426794839
1580422676.34859,-1.01441977569238,0.209231708247501,0.0144045166704814
1580422676.38069,-0.913344014648661,0.149172198062104,0.0852063782711525
1580422676.41278,-1.01344319829099,0.0759288929579611,0.070557717250324
1580422676.44487,-0.884534981307699,0.323491264209963,0.325932707713434
1580422676.47696,-0.906996261539636,0.281498435950255,0.488532845044631
1580422676.50906,-0.956801709010453,0.067139696345464,0.635996032654308
1580422676.54115,-1.19752803845273,-0.0827649347676811,0.601815823605708
1580422676.57324,-1.21217669947356,0.060303654535744,0.769787136644542
1580422676.60533,-1.61159685664149,0.144289311055161,0.922621499961853
1580422676.63742,-1.81326009002823,-0.0852063782711525,1.23610284580758
1580422676.66952,-1.81521324483101,0.734630350194553,0.130128938735027
1580422676.70161,-1.59108873121233,0.263431754024566,-0.872327763790341
1580422676.7337,-0.966079194323644,-0.0979018844892039,-0.383062485694667
1580422676.76579,-0.821545738918136,0.111573968108644,-0.682383459220263
1580422676.79788,-0.411383230334936,-0.397222858014802,-0.706309605554283
1580422676.82998,-0.458747234302281,-0.502204928664073,-0.425055313954376
1580422676.86207,-0.585214007782101,-0.523689631494621,-0.636972610055695
1580422676.89416,-0.823010605020219,-0.194094758525978,-0.713633936064697
1580422676.92625,-1.07838559548333,0.297611963073166,-0.613534752422369
1580422676.95834,-1.19459830624857,-0.272220950637065,-0.668223086900129
1580422676.99044,-1.15162890058747,-0.885999847409781,-0.589120317387655
1580422677.02253,-0.560311284046692,0.0871595330739297,-0.557381551842527
1580422677.05462,-0.653086137178606,-0.152101930266269,-0.759533073929962
1580422677.08671,-1.84304570077058,-0.0651865415426869,1.07106126497291
1580422677.11881,-0.630136568245975,0.357671473258563,-0.292729076066225
1580422677.1509,-1.64089417868315,-0.184817273212786,-0.532967116807813
1580422677.18299,-1.10084687571527,-0.665293354695963,-0.386480506599527
1580422677.21508,-0.971450370031281,0.0559090562294955,-0.652597848477912
1580422677.24717,-1.33327229724575,0.732677195391776,-0.505134660868238
1580422677.27927,-1.05348287174792,-0.0158693827725642,-0.203372243839169
1580422677.31136,-1.01930266269932,-0.112062256809338,0.0559090562294955
1580422677.34345,-1.04908827344167,0.235599298084992,0.070557717250324
1580422677.37554,-0.937270160982681,0.0764171816586554,0.0686045624475469
1580422677.40763,-0.950453955901427,0.0954604409857325,-0.0842298008697639
1580422677.43973,-1.06666666666667,0.149660486762798,-0.0397955291065841
1580422677.47182,-1.04078736552987,0.0666514076447697,0.300053406576637
1580422677.50391,-0.80836194399939,0.256595712214846,0.618905928130008
1580422677.53598,-1.06276035706111,0.129152361333638,0.6281834134432
1580422677.56807,-1.28688487067979,0.104737926298924,0.650644693675137
1580422677.60016,-1.30397497520409,0.103761348897535,0.645761806668194
1580422677.63226,-1.63308155947204,0.00854505226214997,0.96900892652781
1580422677.66435,-1.53200579842832,0.332768749523154,0.961196307316701
1580422677.69644,-2.12478828107118,0.776134889753568,-0.310795757991913
1580422677.72853,-1.26588845654994,0.146242465857938,-0.778088044556345
1580422677.76062,-1.17604333562219,-0.0246585793850613,-0.481208514534218
1580422677.79272,-0.719981689173723,-0.00512703135728998,-0.766857404440376
1580422677.82481,-0.43921568627451,-0.529549095902953,-0.588143739986267
1580422677.8569,-0.388433661402305,-0.431891355764096,-0.563729304951552
1580422677.88899,-0.532967116807813,-0.262455176623179,-0.617441062027924
1580422677.92108,-0.814709697108416,0.00170901045242999,-0.584725719081407
1580422677.95318,-1.08180361638819,-0.000732433051041426,-0.549080643930724
1580422677.98527,-1.28395513847562,-0.140383001449607,-0.659433890287632
1580422678.01736,-1.19313344014649,-0.753673609521631,-0.681406881818875
1580422678.04945,-0.494880598153658,0.044678416113527,-0.518806744487678
1580422678.08154,-0.683848325322346,-0.0983901731898982,-0.767833981841765
1580422678.11364,-1.81033035782406,0.365484092469671,1.65944914930953
1580422678.14573,-0.448004882887007,0.171145189593346,-0.167238879987792
1580422678.17782,-1.71950865949493,-0.220950637064163,-0.510505836575875
1580422678.20991,-0.997329671168078,-0.348882276646068,-0.509529259174487
1580422678.24201,-0.825940337224385,0.034424353398947,-0.720958266575112
1580422678.2741,-1.47829404135195,0.361577782864117,-0.479743648432136
1580422678.30619,-1.19020370794232,-0.00708018616006711,-0.119874876020447
1580422678.33828,-0.948989089799344,-0.00903334096284425,-0.10766765850309
1580422678.37037,-1.0891279468986,0.0642099641412983,-0.0759288929579611
1580422678.40247,-0.930922407873656,0.194583047226672,0.0974135957885096
1580422678.43456,-0.99977111467155,0.11108567940795,-0.0393072404058898
1580422678.46665,-1.11061264972915,0.0505378805218584,0.187747005416952
1580422678.49874,-0.822522316319525,0.217532616159303,0.551033798733503
1580422678.53083,-0.838635843442436,0.177981231403066,0.678477149614711
1580422678.56293,-1.10377660791943,0.193606469825284,0.701915007248036
1580422678.59502,-1.17018387121385,0.223392080567635,0.579842832074466
1580422678.62711,-1.48903639276722,0.149660486762798,0.760509651331351
1580422678.6592,-1.65456626230259,-0.0397955291065841,1.46657511253528
1580422678.69129,-1.59450675211719,0.25366598001068,0.683360036621654
1580422678.72339,-2.15066758220798,0.403082322423131,-0.723399710078583
1580422678.75548,-1.21998931868467,-0.119386587319752,-0.769298847943848
1580422678.78757,-1.12965590905623,0.0944838635843439,-0.588143739986267
1580422678.81961,-0.678477149614709,-0.174563210498206,-0.678965438315403
1580422678.8517,-0.437262531471733,-0.761486228732739,-0.53150225070573
1580422678.88379,-0.424078736552987,-0.56226443884947,-0.641367208361943
1580422678.91589,-0.664805065995269,-0.181399252307926,-0.612069886320286
1580422678.94798,-0.972915236133364,0.202883955138475,-0.593026626993209
1580422678.98007,-1.13649195086595,-0.188235294117646,-0.905531395437553
1580422679.01216,-1.32350652323186,-0.527107652399481,-0.79810788128481
1580422679.04426,-0.576424811169604,-0.0520027466239412,-0.872816052491036
1580422679.07635,-0.52466620889601,-0.271244373235676,-0.879163805600061
1580422679.10844,-1.41286335545892,0.416266117341877,0.96900892652781
1580422679.14053,-1.00709544518196,0.417242694743265,0.141359578850995
1580422679.17262,-1.54323643854429,-0.378179598687725,-0.46997787441825
1580422679.20472,-1.0212558175021,-0.369878690775922,-0.690196078431372
1580422679.23681,-0.968520637827115,0.25366598001068,-0.762462806134128
1580422679.2689,-1.33473716334783,0.493415732051574,-0.581307698176547
1580422679.30099,-1.19264515144579,0.0598153658350498,-0.202883955138475
1580422679.33308,-1.00172426947433,-0.143312733653772,-0.140871290150301
1580422679.36518,-1.09694056610971,-0.135500114442664,-0.0246585793850613
1580422679.39727,-0.94166475928893,0.178957808804455,0.0261234454871442
1580422679.42936,-1.03150988021668,0.0632333867399097,-0.048096437018387
1580422679.46145,-1.08863965819791,0.0598153658350498,0.190676737621118
1580422679.49354,-0.727306019684137,0.412848096437017,0.531502250705731
1580422679.52564,-0.913344014648661,0.10766765850309,0.52906080720226
1580422679.55773,-1.12477302204929,0.101319905394064,0.609140154116123
1580422679.58982,-1.2087586785687,0.128664072632944,0.657480735484857
1580422679.62191,-1.3884489204242,0.141847867551689,0.789806973373008
1580422679.654,-1.70290684367132,0.0466315709163041,1.34108491645685
1580422679.6861,-1.58767071030747,0.301029983978026,0.728770885786222
1580422679.71819,-2.14773785000381,0.439215686274508,-0.756115053025102
1580422679.75028,-1.12281986724651,-0.0817883573662925,-1.21266498817426
1580422679.78237,-0.896742198825056,-0.0573739223315783,-0.41187151903563
1580422679.81447,-0.656015869382772,-0.0334477759975584,-0.651621271076523
1580422679.84656,-0.293217364766919,-0.51783016708629,-0.560799572747387
1580422679.87865,-0.571541924162661,-0.365972381170367,-0.465094987411307
1580422679.91074,-0.719005111772335,-0.261966887922485,-0.672129396505683
1580422679.94283,-1.03053330281529,-0.156984817273212,-0.522713054093233
1580422679.97493,-1.2429388876173,-0.0788586251621268,-0.483161669336996
1580422680.00702,-1.29323262378882,-0.208743419546806,-0.685801480125123
1580422680.03911,-0.908461127641718,-0.423102159151599,-0.896253910124361
1580422680.0712,-0.585702296482795,-0.112062256809338,-0.73560692759594
1580422680.10333,-1.04518196383612,-0.243900205996795,-0.704356450751506
1580422680.13542,-2.51248950942245,0.31860837720302,0.277103837644006
1580422680.16752,-1.04029907682918,0.0778820477607383,-0.282475013351645
1580422680.19961,-1.63356984817273,-0.0905775539787896,-0.334233615625239
1580422680.2317,-1.01832608529793,-0.34351110093843,-0.597909514000152
1580422680.26379,-1.04225223163195,0.555916685740446,-0.766369115739682
1580422680.29588,-1.32350652323186,0.135500114442664,-0.183840695811398
1580422680.32798,-0.990005340657664,-0.248783093003738,-0.106202792401007
1580422680.36007,-1.06324864576181,0.0402838178072784,-0.0563973449301898
1580422680.39216,-0.958266575112535,0.237064164187075,0.00854505226214997
1580422680.42425,-0.867933165484093,0.164797436484321,0.00415045395590141
1580422680.45634,-0.954848554207675,0.218020904859998,0.268802929732203
1580422680.48844,-0.887953002212559,0.195559624628061,0.479743648432134
1580422680.52053,-0.988052185854887,0.108155947203784,0.545662623025866
1580422680.55262,-1.14479285877775,-0.0651865415426869,0.547615777828643
1580422680.58471,-1.23805600061036,0.223392080567635,0.551522087434197
1580422680.61681,-1.36696421759365,0.165774013885709,0.577401388570994
1580422680.6489,-1.59548332951858,0.0402838178072784,1.19899290455482
1580422680.68099,-1.54665445944915,0.186770428015564,0.941176470588236
1580422680.71308,-2.11209277485313,0.651132982375831,-0.206790264744029
1580422680.74517,-1.2863965819791,0.0222171358815899,-0.851819638361182
1580422680.77727,-1.11158922713054,0.0817883573662925,-0.380132753490502
1580422680.80936,-0.833264667734799,0.000244144350347142,-0.682383459220263
1580422680.84145,-0.466071564812696,-0.513923857480735,-0.626718547341115
1580422680.87354,-0.417730983443962,-0.480720225833524,-0.570565346761272
1580422680.90563,-0.448004882887007,-0.475837338826581,-0.652597848477912
1580422680.93773,-0.78785381857023,-0.385992217898833,-0.651132982375829
1580422680.96982,-1.09694056610971,0.0910658426794839,-0.609628442816815
1580422681.00191,-1.12233157854581,0.0183108262760356,-0.95191882200351
1580422681.034,-1.14381628137636,-0.958266575112535,-0.930434119172961
1580422681.06609,-0.594491493095292,-0.0363775082017241,-0.80494392309453
1580422681.09819,-0.916762035553521,-0.133546959639887,-0.622812237735561
1580422681.13028,-2.66092927443351,0.252689402609292,0.470954451819637
1580422681.16237,-1.09205767910277,0.406012054627297,-0.300053406576639
1580422681.19446,-1.51442740520333,-0.590585183489738,-0.494880598153658
1580422681.22655,-0.81519798580911,-0.208743419546806,-0.79127183947509
1580422681.25865,-1.23903257801175,0.614023041123065,-0.659922178988326
1580422681.29074,-1.3112993057145,0.0349126420996413,-0.223880369268329
1580422681.32283,-0.947524223697261,-0.206790264744029,0.0100099183642328
1580422681.35492,-0.994888227664607,0.169192034790569,-0.0280766002899213
1580422681.38696,-1.0471351186389,0.154543373769741,-0.0349126420996413
1580422681.41905,-1.03395132372015,-0.0715342946517126,-0.125734340428778
1580422681.45115,-1.09449912260624,0.0368657969024184,0.187258716716258
1580422681.48324,-0.767833981841765,0.374761577782863,0.675547417410545
1580422681.51533,-0.806897077897307,0.126710917830167,0.624277103837645
1580422681.54742,-1.08668650339513,0.0393072404058898,0.633066300450142
1580422681.57951,-1.09840543221179,0.143801022354467,0.514412146181431
1580422681.6116,-1.41481651026169,0.10083161669337,0.588143739986268
1580422681.64369,-1.74392309452964,-0.0549324788281069,1.16530098420691
1580422681.67579,-1.58815899900816,0.181399252307926,0.89723048752575
1580422681.70788,-2.16043335622187,0.623788815136951,-0.551033798733501
1580422681.73997,-0.963637750820173,0.041260395208667,-0.864515144579233
1580422681.77206,-1.10475318532082,0.0549324788281069,-0.453864347295339
1580422681.80415,-0.697520408941786,0.0212405584802013,-0.860608834973679
1580422681.83624,-0.379156176089113,-0.675547417410543,-0.643808651865415
1580422681.86834,-0.339116502632182,-0.554451819638361,-0.603768978408484
1580422681.90043,-0.44605172808423,-0.302006561379416,-0.657969024185549
1580422681.93252,-0.68433661402304,0.0280766002899213,-0.636972610055695
1580422681.96461,-1.2942092011902,0.0944838635843439,-0.521736476691844
1580422681.9967,-1.29958037689784,-0.225345235370412,-0.625253681239032
1580422682.0288,-0.977309834439613,-0.48706797894255,-0.575936522468909
1580422682.06089,-0.468513008316167,-0.254154268711376,-0.295170519569696
1580422682.09298,-0.925062943465324,-0.103761348897535,-0.488532845044633
1580422682.12507,-2.73075455863279,0.031006332494087,0.437262531471731
1580422682.15716,-0.951430533302815,0.0754406042572668,-0.586678873884184
1580422682.18925,-1.54909590295262,0.229739833676661,-0.735118638895246
1580422682.22134,-0.918226901655604,-0.39478141451133,-0.650156404974441
1580422682.25344,-1.21412985427634,0.00170901045242999,-0.632089723048752
1580422682.28553,-1.30446326390478,0.486091401541159,-0.235599298084992
1580422682.31762,-0.92457465476463,-0.000732433051041426,-0.141359578850995
1580422682.34971,-0.981216144045167,-0.0959487296864268,-0.0441901274128327
1580422682.3818,-1.05348287174792,0.0803234912642097,0.0168459601739528
1580422682.41389,-0.928480964370184,0.148195620660715,-0.0524910353246355
1580422682.44599,-1.05934233615625,-0.096437018387121,-0.0651865415426869
1580422682.47808,-1.0637369344625,0.150637064164187,0.356694895857174
1580422682.51017,-0.817151140611887,0.216067750057221,0.645761806668194
1580422682.54226,-0.99977111467155,0.157473105973907,0.649668116273748
1580422682.57435,-1.07154955367361,0.198489356832226,0.60425726710918
1580422682.60644,-1.16041809719997,0.227298390173189,0.777111467154956
1580422682.63854,-1.66823834592203,0.0900892652780954,0.781994354161899
1580422682.67062,-1.84548714427405,-0.167238879987792,1.05494773785
1580422682.70271,-1.72487983520256,0.28784618905928,0.266849774929426
1580422682.73481,-1.738551918822,0.173586633096818,-0.817639429312582
1580422682.7669,-0.908461127641718,0.0334477759975584,-0.298588540474556
1580422682.79899,-0.877698939497979,0.444098573281451,-0.558358129243915
1580422682.83108,-0.484626535439078,-0.373296711680782,-0.77418173495079
1580422682.86317,-0.514900434882124,-0.693125810635538,-0.571541924162661
1580422682.89526,-0.560311284046692,-0.469001297016861,-0.600839246204318
1580422682.92736,-0.701915007248035,-0.212649729152361,-0.532967116807813
1580422682.95945,-1.02760357061112,0.114015411612115,-0.429938200961319
1580422682.99154,-1.19362172884718,-0.160891126878766,-0.505134660868238
1580422683.02363,-1.25368123903258,-0.183840695811398,-0.551522087434195
1580422683.05572,-0.848401617456322,-0.198489356832226,-0.778088044556345
1580422683.08781,-0.606210421911955,-0.0974135957885096,-0.78101777676051
1580422683.11991,-1.16090638590066,-0.0187991149767299,-0.0715342946517126
1580422683.152,-1.84597543297475,0.515877012283514,-0.0212405584802013
1580422683.18409,-1.21120012207217,0.271732661936369,-0.251224536507211
1580422683.21618,-1.52077515831235,-0.7048447394522,-0.270267795834288
1580422683.24827,-0.97584496833753,-0.197512779430838,-0.568123903257801
1580422683.28036,-1.07399099717708,0.746349279011216,-0.728282597085526
1580422683.31246,-1.29176775768673,0.335210193026626,-0.264896620126651
1580422683.34455,-0.997329671168078,-0.376714732585642,-0.077393759060044
1580422683.37664,-1.06617837796597,-0.0148928053711757,-0.0456549935149155
1580422683.40873,-0.980239566643778,0.181399252307926,0.0324711985961699
1580422683.44082,-0.924086366063936,0.150637064164187,0.0217288471808956
1580422683.47291,-0.984145876249332,0.102296482795452,0.163332570382238
1580422683.505,-0.905531395437553,0.220462348363469,0.45191119249256
1580422683.5371,-0.943129625391013,0.179934386205844,0.52906080720226
1580422683.56919,-1.0212558175021,0.0598153658350498,0.663828488593882
1580422683.60128,-1.13844510566873,0.0930189974822611,0.56665903715572
1580422683.63337,-1.35329213397421,0.153078507667658,0.649179827573054
1580422683.66546,-1.60476081483177,0.100343327992675,0.910414282444496
1580422683.69755,-1.61257343404288,-0.0852063782711525,1.27370107576104
1580422683.72965,-1.77419699397269,0.562264438849471,0.00659189745937283
1580422683.76174,-1.66237888151369,0.205325398641946,-0.562752727550164
1580422683.79383,-0.987075608453498,0.00170901045242999,-0.604745555809872
1580422683.82592,-0.845471885252156,0.0588387884336612,-0.568612191958495
1580422683.85801,-0.464606698710613,-0.220462348363469,-0.617929350728618
1580422683.89011,-0.38794537270161,-0.520759899290455,-0.582772564278629
1580422683.9222,-0.556404974441138,-0.332280460822462,-0.544197756923781
1580422683.95453,-0.691660944533455,-0.281010147249562,-0.597909514000152
1580422683.98662,-0.980239566643778,-0.128175783932249,-0.44946974898909
1580422684.01871,-1.30055695429923,0.0187991149767299,-0.493415732051576
1580422684.0508,-1.27663080796521,-0.202395666437781,-0.573495078965438
1580422684.0829,-0.799572747386893,-0.37769130998703,-0.859143968871596
1580422684.11499,-0.595956359197375,-0.121828030823224,-0.645761806668192
1580422684.14708,-0.956801709010453,0.136964980544747,-0.0075684748607614
1580422684.17917,-2.2942244602121,0.347417410543983,0.35278858625162
1580422684.21126,-1.08619821469444,0.214602883955138,-0.409430075532159
1580422684.24335,-1.57302204928664,-0.419684138246739,-0.522713054093233
1580422684.27544,-0.95875486381323,-0.382085908293279,-0.638925764858472
1580422684.30754,-1.08473334859235,0.537361715114063,-0.686289768825818
1580422684.33963,-1.34352635996033,0.345464255741206,-0.209231708247501
1580422684.37172,-0.953383688105593,-0.245365072098878,-0.0881361104753182
1580422684.40381,-1.04811169604028,-0.0544441901274126,-0.0607919432364383
1580422684.4359,-0.974868390936141,0.287357900358586,0.031006332494087
1580422684.46799,-0.974380102235447,0.166262302586404,-0.0134279392690928
1580422684.50009,-1.06959639887083,-0.101808194094758,0.0783703364614325
1580422684.53218,-0.926039520866713,0.203372243839169,0.391851682307163
1580422684.56427,-0.895277332722973,0.237552452887769,0.513435568780043
1580422684.59636,-1.00514229037919,0.129152361333638,0.690684367132068
1580422684.62845,-1.17946135652705,0.154543373769741,0.604745555809874
1580422684.66054,-1.3283894102388,0.0725108720531011,0.627695124742505
1580422684.69264,-1.64235904478523,0.0388189517051956,1.07496757457847
1580422684.72473,-1.51979858091096,0.112062256809338,0.867933165484093
1580422684.75682,-2.0466620889601,0.428473334859234,-0.444586861982147
1580422684.78891,-1.31520561532006,0.205325398641946,-0.743907835507743
1580422684.821,-1.01490806439307,-0.0212405584802013,-0.412848096437019
1580422684.85309,-0.823498893720913,-0.0329594872968642,-0.78101777676051
1580422684.88519,-0.423590447852293,-0.413336385137713,-0.69800869764248
1580422684.91728,-0.505134660868238,-0.455817502098116,-0.448493171587701
1580422684.94937,-0.518806744487678,-0.485603112840467,-0.552986953536278
1580422684.98146,-0.665293354695963,-0.180422674906538,-0.583260852979324
1580422685.01355,-1.13258564126039,0.236087586785686,-0.432867933165484
1580422685.04564,-1.26979476615549,0.0192874036774242,-0.833264667734799
1580422685.07773,-1.22682536049439,-0.565194171053635,-0.605233844510566
1580422685.10983,-0.546150911726558,0.0266117341878385,-0.951430533302815
1580422685.14192,-0.640878919661249,-0.182864118410009,-0.939711604486153
1580422685.17401,-1.29811551079576,0.30493629358358,0.656504158083468
1580422685.2061,-1.22487220569161,0.564705882352943,-0.103273060196841
1580422685.23798,-1.62331578545815,-0.0803234912642097,-0.430914778362707
1580422685.27007,-1.12623788815137,-0.688731212329289,-0.501716639963378
1580422685.30216,-0.769298847943848,-0.0192874036774242,-0.703868162050812
1580422685.33425,-1.36891737239643,0.736583504997331,-0.507087815671015
1580422685.36634,-1.22487220569161,-0.123292896925307,-0.0568856336308841
1580422685.39843,-0.91432059205005,-0.0339360646982527,-0.11450370031281
1580422685.43052,-1.03981078812848,0.201419089036392,-0.0554207675288012
1580422685.46262,-0.93824673838407,0.144777599755855,0.077393759060044
1580422685.49471,-0.980727855344472,-0.0129396505683985,-0.127687495231555
1580422685.5268,-1.10572976272221,0.0905775539787896,0.156984817273212
1580422685.55889,-0.855237659266042,0.184328984512092,0.453864347295337
1580422685.59098,-0.84937819485771,0.142824444953078,0.492927443350879
1580422685.62308,-1.08278019378958,0.159426260776684,0.610116731517511
1580422685.65517,-1.22487220569161,0.180422674906538,0.542244602121006
1580422685.68726,-1.41823453116655,0.0969253070878153,0.667246509498742
1580422685.71935,-1.69655909056229,-0.0778820477607383,1.23610284580758
1580422685.75144,-1.65114824139773,0.238529030289158,0.751232166018159
1580422685.78353,-2.04275577935454,0.440192263675897,-0.999282825970855
1580422685.81562,-1.20485236896315,-0.299076829175251,-0.97242694743267
1580422685.84772,-0.856702525368124,0.142824444953078,-0.432867933165484
1580422685.87981,-0.614999618524452,0.0568856336308841,-0.674570840009155
1580422685.9119,-0.472907606622416,-0.353276874952316,-0.594491493095292
1580422685.94399,-0.566659037155718,-0.336186770428016,-0.484138246738384
1580422685.97608,-0.611093308918898,-0.493415732051576,-0.598397802700847
1580422686.00817,-0.849866483558404,-0.389410238803693,-0.663828488593881
1580422686.04027,-1.22194247348745,0.0417486839093613,-0.344975967040513
1580422686.07236,-1.19948119325551,0.0900892652780954,-0.626230258640421
1580422686.10445,-1.30251010910201,-0.491950865949493,-0.615976195925841
1580422686.13654,-0.552498664835584,-0.271732661936371,-0.620859082932784
1580422686.16863,-0.719005111772335,-0.0329594872968642,-0.97926298924239
1580422686.20072,-1.52224002441443,0.28784618905928,1.45973907072556
1580422686.23282,-0.67750057221332,0.268802929732203,-0.309819180590525
1580422686.26491,-1.58620584420539,-0.0046387426565957,-0.575936522468909
1580422686.297,-1.32936598764019,-0.771740291447319,-0.332280460822462
1580422686.32909,-0.817639429312582,0.00903334096284425,-0.607675288014038
1580422686.36118,-1.26588845654994,0.973403524834058,-0.552498664835584
1580422686.39327,-1.14821087968261,-0.127687495231555,-0.177492942702372
1580422686.42537,-1.02418554970626,-0.180422674906538,-0.135500114442664
1580422686.45746,-0.987075608453498,0.242435339894712,-0.0158693827725642
1580422686.48955,-0.99635309376669,0.196536202029449,0.0197756923781185
1580422686.52167,-1.01832608529793,-0.0876478217746239,-0.0646982528419926
1580422686.55376,-1.0295567254139,0.237064164187075,0.31860837720302
1580422686.58585,-0.749767299916074,0.230228122377355,0.580819409475854
1580422686.61794,-1.00514229037919,0.116456855115587,0.518318455786986
1580422686.65003,-1.09352254520485,0.167238879987792,0.556893263141834
1580422686.68212,-1.15162890058747,0.00366216525520713,0.562752727550166
1580422686.71422,-1.46950484473945,0.200930800335698,0.705821316853591
1580422686.74631,-1.69069962615396,0.00903334096284425,1.19264515144579
1580422686.7784,-1.63552300297551,0.180422674906538,0.525154497596706
1580422686.81049,-1.98953231097887,0.292240787365529,-0.903089951934081
1580422686.84258,-0.978774700541695,-0.148195620660715,-1.01051346608682
1580422686.87468,-0.934340428778516,0.0529793240253298,-0.484626535439078
1580422686.90677,-0.648203250171663,-0.0144045166704814,-0.734630350194552
1580422686.93886,-0.418219272144656,-0.430426489662013,-0.637460898756389
1580422686.97095,-0.541268024719615,-0.38452735179675,-0.619882505531395
1580422687.00304,-0.641367208361943,-0.2434119172961,-0.657480735484855
1580422687.03513,-0.81519798580911,-0.0754406042572668,-0.583749141680018
1580422687.06722,-0.969985503929198,-0.0788586251621268,-0.716563668268863
1580422687.09932,-1.2429388876173,-0.0271000228885327,-0.594491493095292
1580422687.13141,-1.00172426947433,-0.308354314488442,-0.573006790264744
1580422687.1635,-0.635996032654306,-0.264408331425956,-0.475349050125887
1580422687.19559,-0.835217822537576,-0.0168459601739528,-0.46997787441825
1580422687.22768,-1.82204928664073,-0.912367437247273,0.997329671168078
1580422687.25977,-1.16090638590066,0.216067750057221,-0.118410009918364
1580422687.29187,-1.35378042267491,0.0432135500114441,-0.800061036087587
1580422687.32396,-0.77759975585565,-0.352300297550928,-0.662851911192492
1580422687.35605,-1.17799649042496,-0.287846189059282,-0.533455405508507
1580422687.38814,-1.35133897917144,0.801037613488976,-0.266361486228734
1580422687.42023,-1.02418554970626,0.0676279850461583,-0.198001068131532
1580422687.45232,-0.965102616922255,-0.178469520103761,-0.239017318989852
1580422687.48442,-1.09352254520485,0.201907377737086,-0.156984817273212
1580422687.51651,-1.00611886778058,0.0798352025635154,-0.0520027466239412
1580422687.5486,-0.97242694743267,-0.0539559014267184,-0.0861829556725411
1580422687.58069,-1.11305409323262,0.153566796368352,-0.10083161669337
1580422687.61278,-1.10133516441596,0.0749523155565726,0.140383001449607
1580422687.64487,-0.930922407873656,0.145754177157244,0.463141832608528
1580422687.67696,-0.872816052491036,0.190676737621118,0.797619592584116
1580422687.70906,-0.982192721446555,0.0939955748836496,0.765880827038988
1580422687.74115,-1.20241092545968,-0.0144045166704814,0.852307927061876
1580422687.77324,-1.54421301594568,0.0251468680857556,0.932387273975738
1580422687.80533,-1.65407797360189,0.219485770962081,0.543709468223089
1580422687.83742,-2.14431982909895,0.4484931715877,-0.38794537270161
1580422687.86951,-1.21071183337148,0.116456855115587,-1.15846494239719
1580422687.9016,-1.07936217288472,0.0290531776913099,-0.430914778362707
1580422687.93369,-0.823498893720913,0.00366216525520713,-0.652597848477912
1580422687.96579,-0.440192263675899,-0.42212558175021,-0.689707789730678
1580422687.99788,-0.51783016708629,-0.539314869916838,-0.511482413977264
1580422688.02997,-0.621347371633478,-0.319096665903716,-0.551033798733501
1580422688.06206,-0.903578240634776,-0.0324711985961699,-0.478278782330053
1580422688.09415,-1.072526131075,0.0046387426565957,-0.421637293049516
1580422688.12624,-1.13502708476387,-0.139406424048218,-0.739513237201495
1580422688.15834,-1.31862363622492,-0.42896162355993,-0.458747234302281
1580422688.19043,-0.483161669336996,-0.0832532234683754,-0.520759899290455
1580422688.22252,-0.552498664835584,0.130128938735027,-0.816662851911193
1580422688.25461,-1.1916685740444,0.121828030823224,0.543221179522394
1580422688.2867,-1.57888151369497,0.337651636530097,-0.0598153658350498
1580422688.31879,-1.38210116731518,0.218509193560692,-0.37427328908217
1580422688.35088,-1.39772640573739,-0.633066300450141,-0.686778057526512
1580422688.38298,-0.900160219729916,-0.266849774929428,-0.760021362630656
1580422688.41507,-1.1750667582208,0.606698710612651,-0.699473563744563
1580422688.44716,-1.3625696192874,0.259525444419012,-0.103273060196841
1580422688.47925,-0.930434119172961,-0.196536202029449,-0.100343327992675
1580422688.51134,-1.05983062485695,-0.112550545510032,-0.0534676127260241
1580422688.54343,-0.993911650263218,0.232669565880826,-0.0158693827725642
1580422688.57553,-0.938735027084764,0.133058670939192,-0.0397955291065841
1580422688.60762,-1.08863965819791,0.125734340428778,0.172610055695429
1580422688.63971,-0.834729533836882,0.310307469291217,0.528572518501566
1580422688.6718,-0.890882734416724,0.300541695277332,0.610116731517511
1580422688.70389,-1.04518196383612,0.0983901731898982,0.640390630960557
1580422688.73599,-1.18141451132982,-0.0178225375753414,0.635507743953614
1580422688.76808,-1.39430838483253,0.0769054703593497,0.722911421377891
1580422688.80017,-1.60964370183871,0.138429846646829,1.06861982146944
1580422688.83226,-1.69314106965743,-0.0363775082017241,0.574471656366828
1580422688.86435,-1.96267643244068,0.311284046692606,-0.509040970473793
1580422688.89644,-1.23805600061036,0.290775921263446,-0.988540474555581
1580422688.92853,-0.924086366063936,0.115480277714198,-0.383550774395362
1580422688.96063,-0.763439383535516,0.0187991149767299,-0.76392767223621
1580422688.99272,-0.448981460288396,-0.48023193713283,-0.733165484092469
1580422689.02481,-0.364507515068285,-0.49048599984741,-0.592538338292515
1580422689.0569,-0.461188677805753,-0.48706797894255,-0.620859082932784
1580422689.08917,-0.714610513466086,-0.189211871519035,-0.632089723048752
1580422689.12126,-1.03346303501946,0.193606469825284,-0.356694895857176
1580422689.15335,-1.25709925993744,-0.0261234454871442,-0.656504158083466
1580422689.18545,-1.31032272831312,-0.287357900358588,-0.282963302052339
1580422689.21754,-0.563729304951552,-0.145754177157244,-0.922621499961853
1580422689.24963,-0.470954451819638,0.334721904325932,-0.713145647364003
1580422689.28172,-1.28981460288396,0.226321812771801,0.848401617456322
1580422689.31381,-1.09645227740902,0.477790493629357,-0.0788586251621268
1580422689.3459,-1.45827420462348,0.127199206530861,-0.694102388036926
1580422689.378,-1.31032272831312,-0.618417639429312,-0.685801480125123
1580422689.41009,-0.936293583581293,-0.450446326390479,-0.688242923628595
1580422689.44218,-1.2429388876173,0.87672236209659,-0.661387045090409
1580422689.47427,-1.26149385824369,0.35620660715648,-0.210696574349583
1580422689.50636,-0.938735027084764,-0.406012054627299,-0.114015411612115
1580422689.53846,-1.05983062485695,-0.060303654535744,-0.0505378805218584
1580422689.57055,-0.94850080109865,0.384039063096054,0.114991989013504
1580422689.60264,-1.02223239490349,0.0524910353246355,-0.0300297550926985
1580422689.63473,-1.14576943617914,-0.0666514076447697,0.116456855115587
1580422689.66682,-0.860608834973679,0.397711146715494,0.539803158617534
1580422689.69891,-0.806897077897307,0.208255130846112,0.64185549706264
1580422689.731,-1.04567025253681,0.0153810940718699,0.642832074464028
1580422689.7631,-1.17262531471733,0.060303654535744,0.663340199893188
1580422689.79519,-1.24831006332494,0.147219043259327,0.765392538338293
1580422689.82728,-1.71560234988937,-0.00610360875867855,0.961196307316701
1580422689.85937,-1.57448691538872,0.100343327992675,0.4143129625391
1580422689.89146,-1.94900434882124,0.347417410543983,-0.529060807202258
1580422689.92355,-0.879163805600061,-0.189211871519035,-1.22536049439231
1580422689.95565,-0.90748455024033,0.262943465323872,-0.544686045624475
1580422689.98774,-0.777111467154956,0.0271000228885327,-0.496833752956436
1580422690.01983,-0.617441062027924,-0.237552452887769,-0.806408789196613
1580422690.05192,-0.402105745021744,-0.525154497596704,-0.553963530937667
1580422690.08401,-0.734142061493857,-0.616952773327229,-0.488044556343938
1580422690.1161,-0.746837567711909,-0.276127260242619,-0.571541924162661
1580422690.1482,-0.899183642328527,0.301029983978026,-0.444586861982147
1580422690.18029,-1.26784161135271,0.154055085069047,-0.578377965972381
1580422690.21238,-1.36940566109712,-0.413824673838407,-0.496833752956436
1580422690.24447,-0.55542839703975,-0.260502021820402,-0.824963759822996
1580422690.27656,-0.577889677271687,0.0866712443732354,-0.758556496528573
1580422690.30865,-1.25612268253605,-0.0373540856031127,0.258060578316929
1580422690.34074,-1.82937361715114,0.538338292515451,0.0866712443732354
1580422690.37268,-1.16188296330205,0.240482185091935,-0.315190356298162
1580422690.40477,-1.51100938429847,-0.742931258106355,-0.445563439383536
1580422690.43686,-0.89723048752575,-0.163820859082932,-0.663828488593881
1580422690.46896,-1.17409018081941,0.703379873350119,-0.655527580682078
1580422690.50105,-1.29079118028534,0.105714503700312,-0.205325398641946
1580422690.53314,-0.929457541771573,-0.282475013351645,-0.0686045624475469
1580422690.56523,-1.11207751583123,0.159426260776684,-0.00659189745937283
1580422690.59732,-0.984145876249332,0.186770428015564,0.0627450980392155
1580422690.62941,-0.942153047989624,0.101319905394064,-0.0144045166704814
1580422690.6615,-1.03736934462501,0.134523537041275,0.0358892195010299
1580422690.6936,-0.922621499961853,0.261478599221789,0.412848096437017
1580422690.72569,-0.803479056992447,0.229251544975966,0.573006790264746
1580422690.75778,-1.19508659494926,0.0197756923781185,0.484138246738382
1580422690.78987,-1.21266498817426,0.103761348897535,0.611581597619594
1580422690.82196,-1.21559472037842,0.113527122911421,0.636972610055697
1580422690.85405,-1.6448004882887,0.0456549935149155,0.91090257114519
1580422690.88615,-1.64040588998245,-0.0876478217746239,1.05983062485695
1580422690.91824,-1.77859159227894,0.619394216830703,0.044678416113527
1580422690.95033,-1.73171587701228,0.33569848172732,-0.882581826504921
1580422690.98242,-1.13893339436942,-0.060303654535744,-0.634042877851529
1580422691.01451,-0.959731441214618,0.0554207675288012,-0.634042877851529
1580422691.0466,-0.431403067063401,-0.302494850080111,-0.642343785763332
1580422691.0787,-0.34692912184329,-0.51783016708629,-0.483161669336996
1580422691.11079,-0.497810330357824,-0.227298390173189,-0.620370794232089
1580422691.14288,-0.713145647364003,-0.096437018387121,-0.723887998779277
1580422691.17497,-1.07789730678263,-0.0397955291065841,-0.656504158083466
1580422691.20706,-1.1408865491722,-0.0886243991760125,-0.877210650797284
1580422691.23915,-1.35524528877699,-0.375738155184253,-0.747325856412603
1580422691.27125,-0.650156404974441,-0.249759670405126,-0.724376287479972
1580422691.30334,-0.518806744487678,-0.138429846646829,-0.709239337758449
1580422691.33543,-1.32448310063325,0.146730754558632,0.421637293049514
1580422691.36752,-1.414328221561,0.292240787365529,0.00708018616006711
1580422691.39961,-1.3117875944152,0.176516365300984,-0.276127260242619
1580422691.4317,-1.3459678034638,-0.429449912260624,-0.529549095902953
1580422691.46379,-0.823498893720913,-0.0871595330739297,-0.713633936064697
1580422691.49589,-1.27907225146868,0.482673380636299,-0.52124818799115
1580422691.52798,-1.23854428931105,-0.0510261692225527,-0.158449683375295
1580422691.56007,-0.97242694743267,-0.127199206530861,-0.0534676127260241
1580422691.59216,-1.05152971694514,0.109132524605172,-0.0661631189440754
1580422691.62425,-0.985122453650721,0.237064164187075,0.0104982070649271
1580422691.6564,-0.990005340657664,0.0427252613107498,-0.130617227435721
1580422691.68849,-1.06959639887083,-0.0397955291065841,0.0881361104753182
1580422691.72058,-0.882093537804227,0.430914778362705,0.45874723430228
1580422691.75268,-0.829358358129245,0.210208285648889,0.553475242236974
1580422691.78477,-1.1579766536965,0.107179369802395,0.575936522468911
1580422691.81686,-1.26247043564508,0.193606469825284,0.647714961470971
1580422691.84895,-1.33962005035477,0.103761348897535,0.804455634393836
1580422691.88104,-1.68484016174563,-0.0124513618677042,1.04176394293126
1580422691.91313,-1.41969939726864,0.120851453421835,0.79468986037995
1580422691.94523,-2.11990539406424,0.613534752422371,-0.870374608987564
1580422691.97732,-1.2605172808423,0.101808194094758,-0.626718547341115
1580422692.00941,-1.1745784695201,0.269779507133592,-0.540291447318227
1580422692.0415,-0.597421225299458,-0.205813687342641,-0.677012283512626
1580422692.07359,-0.628183413443198,-0.399176012817579,-0.498786907759213
1580422692.10568,-0.550545510032807,-0.289799343862059,-0.492439154650187
1580422692.13778,-0.633554589150835,-0.347905699244679,-0.621835660334172
1580422692.16987,-0.90064850843061,-0.287846189059282,-0.573495078965438
1580422692.20196,-1.18190280003052,0.0720225833524069,-0.610605020218204
1580422692.23405,-1.072526131075,-0.152101930266269,-0.947524223697261
1580422692.26614,-1.08522163729305,-0.663828488593881,-0.935317006179904
1580422692.29823,-0.430914778362707,0.00708018616006711,-0.799084458686199
1580422692.33033,-1.11012436102846,-0.183840695811398,-0.685313191424429
1580422692.36242,-1.91628900587472,0.93482871747921,0.228763256275272
1580422692.39451,-1.41921110856794,-0.198001068131532,-0.48364995803769
1580422692.4266,-1.04078736552987,-0.696055542839703,-0.685313191424429
1580422692.45869,-1.04371709773404,0.218509193560692,-0.611093308918898
1580422692.49078,-1.23512626840619,0.699473563744565,-0.592050049591821
1580422692.52288,-1.22536049439231,-0.109132524605172,-0.238040741588463
1580422692.55497,-1.02223239490349,-0.245853360799572,-0.134523537041275
1580422692.58706,-1.03395132372015,0.0720225833524069,-0.0734874494544897
1580422692.61915,-1.03883421072709,0.176516365300984,0.024170290684367
1580422692.65124,-0.991470206759747,0.145265888456549,0.0686045624475469
1580422692.68333,-0.929945830472267,0.0407721065079727,0.288334477759975
1580422692.71543,-0.788830395971619,0.406988632028686,0.527107652399483
1580422692.74752,-0.925062943465324,0.0280766002899213,0.665781643396659
1580422692.77961,-0.981216144045167,-0.0388189517051956,0.825940337224385
1580422692.8117,-1.28297856107424,0.218509193560692,0.695567254139011
1580422692.84379,-1.81765468833448,0.157961394674601,0.818127718013276
1580422692.87588,-1.65847257190814,-0.132570382238498,1.12428473334859
1580422692.90797,-1.73366903181506,0.754650186923019,0.109132524605172
1580422692.94009,-1.61452658884565,0.4314030670634,-0.840100709544519
1580422692.97218,-1.02809185931182,-0.266361486228734,-0.417242694743267
1580422693.00428,-0.835217822537576,0.287357900358586,-0.729259174486915
1580422693.03637,-0.382085908293279,-0.354253452353705,-0.698496986343175
1580422693.06846,-0.611093308918898,-0.438239108873121,-0.420660715648127
1580422693.10055,-0.545662623025864,-0.40161745632105,-0.562752727550164
1580422693.13264,-0.731700617990386,-0.310795757991913,-0.611581597619592
1580422693.16473,-0.974380102235447,-0.111573968108644,-0.440680552376593
1580422693.19683,-1.08131532768749,-0.114991989013504,-0.713145647364003
1580422693.22892,-1.3034866865034,-0.143312733653772,-0.429938200961319
1580422693.26101,-0.7048447394522,-0.552986953536278,-0.618417639429312
1580422693.2931,-0.640878919661249,-0.00122072175173571,-0.717051956969557
1580422693.32519,-1.20192263675898,0.360601205462729,0.214602883955138
1580422693.35729,-1.6277103837644,0.3630426489662,0.0212405584802013
1580422693.38938,-1.30885786221103,0.232669565880826,-0.285404745555811
1580422693.42147,-1.49440756847486,-0.48023193713283,-0.504646372167544
1580422693.45356,-0.847425040054933,-0.181399252307926,-0.515388723582818
1580422693.48565,-1.19264515144579,0.586190585183491,-0.644296940566109
1580422693.51774,-1.337666895552,0.108644235904478,-0.172610055695429
1580422693.54983,-0.946059357595178,-0.135011825741969,-0.0676279850461583
1580422693.58193,-1.0207675288014,0.0642099641412983,0.0256351567864499
1580422693.61402,-0.930434119172961,0.28784618905928,0.0690928511482412
1580422693.64611,-0.925062943465324,0.134523537041275,-0.0212405584802013
1580422693.6782,-1.0466468299382,0.0788586251621268,0.189700160219729
1580422693.71029,-0.789806973373008,0.296635385671777,0.588143739986268
1580422693.74238,-0.850843060959793,0.153078507667658,0.627695124742505
1580422693.77448,-1.13551537346456,-0.0505378805218584,0.544686045624477
1580422693.80657,-1.1320973525597,0.135500114442664,0.584725719081408
1580422693.83866,-1.34792095826658,0.103761348897535,0.593514915693905
1580422693.87075,-1.79763485160601,0.0617685206378269,0.89381246662089
1580422693.90284,-1.585229266804,-0.0168459601739528,0.785900663767453
1580422693.93493,-2.00955214770733,0.516365300984209,-0.414312962539102
1580422693.96703,-1.23170824750133,0.190188448920424,-1.06959639887083
1580422693.99912,-1.07545586327916,0.137941557946135,-0.291264209964142
1580422694.03121,-0.727306019684137,0.0988784618905925,-0.94166475928893
1580422694.0633,-0.411383230334936,-0.761486228732739,-0.696055542839703
1580422694.09539,-0.506599526970321,-0.575936522468909,-0.505622949568933
1580422694.12748,-0.400152590218967,-0.327397573815519,-0.621347371633478
1580422694.15957,-0.781506065461205,-0.0466315709163041,-0.610116731517509
1580422694.19167,-1.14235141527428,-0.0573739223315783,-0.488532845044633
1580422694.22394,-1.0378576333257,-0.127687495231555,-0.817639429312582
1580422694.25603,-1.26686503395132,-0.379644464789807,-0.605722133211261
1580422694.28812,-0.577889677271687,-0.150148775463492,-0.596932936598764
1580422694.32021,-0.606698710612649,-0.0544441901274126,-0.602792401007095
1580422694.3523,-1.84402227817197,-0.512947280079347,1.40114442664225
1580422694.3844,-0.782970931563288,0.221927214465552,-0.0896009765774011
1580422694.41649,-1.53981841763943,0.143312733653772,-0.801037613488976
1580422694.44858,-0.858655680170902,-0.649668116273746,-0.723887998779277
1580422694.48067,-1.24245059891661,-0.209719996948195,-0.643320363164721
1580422694.51276,-1.35671015487907,0.79468986037995,-0.426520180056459
1580422694.54485,-1.07350270847639,0.0568856336308841,-0.287357900358588
1580422694.57694,-0.98268101014725,-0.163820859082932,-0.197024490730143
1580422694.60904,-1.13063248645762,0.0930189974822611,-0.0515144579232469
1580422694.64113,-0.922621499961853,0.185793850614175,0.0700694285496297
1580422694.67322,-0.973403524834058,0.173586633096818,-0.041260395208667
1580422694.70531,-0.948989089799344,0.186282139314869,0.114015411612115
1580422694.7374,-0.802990768291753,0.333745326924543,0.45874723430228
1580422694.7695,-0.915785458152133,0.209231708247501,0.5085526817731
1580422694.80159,-1.18873884184024,-0.153078507667658,0.575448233768217
1580422694.83368,-1.14821087968261,0.0578622110322726,0.729259174486916
1580422694.86577,-1.33522545204852,0.134035248340581,0.740001525902191
1580422694.89786,-1.65554283970397,0.26733806363012,1.12770275425345
1580422694.92995,-1.61550316624704,0.196047913328755,0.99293507286183
1580422694.96204,-2.08670176241703,0.690196078431374,-0.550057221332112
1580422694.99414,-1.25661097123674,0.0969253070878153,-0.766369115739682
1580422695.02623,-0.988052185854887,-0.0451667048142212,-0.370366979476616
1580422695.05832,-0.737560082398717,0.125734340428778,-0.737071793698023
1580422695.09041,-0.418219272144656,-0.390386816205082,-0.638437476157778
1580422695.1225,-0.594003204394598,-0.420172426947433,-0.513435568780041
1580422695.15459,-0.575936522468909,-0.39136339360647,-0.597421225299458
1580422695.18669,-0.836194399938964,-0.119874876020447,-0.645273517967498
1580422695.21878,-1.35085069047074,0.217532616159303,-0.367925535973145
1580422695.25087,-1.19069199664301,-0.124269474326695,-0.802502479591059
1580422695.28296,-1.08229190508888,-0.812756542305639,-0.809826810101473
1580422695.31505,-0.43921568627451,0.114991989013504,-0.675547417410543
1580422695.34714,-0.614023041123064,-0.380621042191196,-0.901625085831999
1580422695.37924,-1.95877012283513,0.164797436484321,1.30836957351034
1580422695.41133,-0.448493171587701,0.199954222934309,-0.439703974975204
1580422695.44342,-1.92751964599069,-0.607186999313344,-0.553475242236972
1580422695.47551,-0.980239566643778,-0.444586861982147,-0.895277332722973
1580422695.50754,-0.90064850843061,0.389410238803691,-0.881605249103533
1580422695.53963,-1.45876249332418,0.432867933165483,-0.385503929198139
1580422695.57172,-1.14674601358053,-0.205813687342641,-0.185305561913481
1580422695.60381,-1.00953688868544,-0.141847867551689,-0.0920424200808725
1580422695.63591,-1.05445944914931,0.109620813305867,-0.0183108262760356
1580422695.668,-1.00856031128405,0.174074921797512,-0.0300297550926985
1580422695.70009,-1.01734950789654,0.0974135957885096,0.0520027466239412
1580422695.73218,-0.841077286945907,0.306889448386357,0.364507515068283
1580422695.76427,-0.802502479591059,0.302494850080109,0.503669794766157
1580422695.79637,-1.00611886778058,0.0524910353246355,0.62476539253834
1580422695.82846,-1.17604333562219,0.00268558785381856,0.606210421911957
1580422695.86055,-1.27125963225757,0.0222171358815899,0.625741969939728
1580422695.89264,-1.6531013962005,0.128664072632944,0.89039444571603
1580422695.92473,-1.46999313344015,0.10083161669337,1.08278019378958
1580422695.95683,-1.81667811093309,0.455817502098114,0.189211871519035
1580422695.98892,-1.61306172274357,0.0744640268558783,-0.915785458152133
1580422696.02101,-1.21559472037842,0.12133974212253,-0.382574196993973
1580422696.0531,-0.966567483024338,0.207278553444723,-0.723399710078583
1580422696.08519,-0.50415808346685,-0.357671473258565,-0.757579919127185
1580422696.11729,-0.42896162355993,-0.579842832074464,-0.604257267109178
1580422696.14938,-0.397711146715496,-0.315678644998856,-0.643320363164721
1580422696.18147,-0.577401388570992,-0.0827649347676811,-0.585214007782101
1580422696.21356,-0.963637750820173,0.10083161669337,-0.529060807202258
1580422696.24566,-1.26588845654994,-0.0979018844892039,-0.582284275577935
1580422696.27775,-1.29567406729229,-0.264408331425956,-0.604257267109178
1580422696.30984,-0.915297169451438,-0.167238879987792,-0.778576333257039
1580422696.34193,-0.526131074998093,-0.137453269245441,-0.615976195925841
1580422696.37402,-0.914808880750744,-0.0168459601739528,-0.226810101472495
1580422696.40612,-2.35526054779889,0.350347142748149,0.313237201495383
1580422696.43821,-1.16530098420691,0.0349126420996413,-0.595468070496681
1580422696.4703,-1.46901655603876,-0.195071335927366,-0.510505836575875
1580422696.50239,-0.892835889219501,-0.453376058594644,-0.565194171053635
1580422696.53448,-1.1745784695201,0.436774242771037,-0.660410467689021
1580422696.56658,-1.40798046845197,0.294682230869,-0.202395666437781
1580422696.59867,-0.926527809567407,-0.156008239871824,-0.143801022354467
1580422696.63076,-1.02613870450904,0.0109864957656214,-0.0837415121690697
1580422696.66285,-0.991470206759747,0.196047913328755,0.116456855115587
1580422696.69494,-0.93482871747921,0.122316319523918,-0.031006332494087
1580422696.72704,-1.08619821469444,0.00854505226214997,0.0427252613107498
1580422696.75913,-0.905043106736859,0.209231708247501,0.273685816739146
1580422696.79126,-0.922133211261158,0.261478599221789,0.3972228580148
1580422696.82335,-0.895277332722973,0.202395666437781,0.580819409475854
1580422696.85544,-1.10231174181735,0.070557717250324,0.630136568245977
1580422696.88754,-1.26784161135271,0.0490730144197755,0.600350957503625
1580422696.91963,-1.51442740520333,0.0974135957885096,0.862561989776456
1580422696.95172,-1.80398260471504,0.0100099183642328,1.27321278706035
1580422696.98381,-1.83132677195392,0.469489585717554,0.243900205996795
1580422697.0159,-2.03543144884413,0.367925535973143,-0.961684596017395
1580422697.048,-1.04078736552987,-0.0959487296864268,-0.546150911726558
1580422697.08009,-0.929945830472267,0.0334477759975584,-0.652597848477912
1580422697.11218,-0.489509422446021,-0.188723582818341,-0.736583504997329
1580422697.14427,-0.380621042191196,-0.549080643930724,-0.609140154116121
1580422697.17636,-0.437262531471733,-0.404547188525216,-0.619882505531395
1580422697.20846,-0.553475242236972,-0.199954222934309,-0.561287861448081
1580422697.24055,-0.912855725947967,0.0461432822156098,-0.544197756923781
1580422697.27264,-1.35182726787213,-0.203860532539863,-0.752697032120242
1580422697.30473,-1.24635690852216,-0.149660486762798,-0.678965438315403
1580422697.33682,-0.788342107270925,-0.172121766994735,-0.895765621423667
1580422697.36892,-0.523201342793927,-0.214114595254443,-0.80152590218967
1580422697.40101,-0.802014190890365,0.147219043259327,-0.554451819638361
1580422697.4331,-3.18486305027848,0.33228046082246,0.57349507896544
1580422697.46519,-0.994888227664607,0.40064087891966,-0.501716639963378
1580422697.49728,-1.78493934538796,-0.23657587548638,-0.511970702677958
1580422697.52938,-0.836682688639659,-0.448004882887007,-0.669199664301518
1580422697.56147,-1.10963607232776,0.192141603723201,-0.750255588616771
1580422697.59356,-1.49733730067903,0.3630426489662,-0.154055085069047
1580422697.62565,-0.908949416342413,-0.123292896925307,-0.122316319523918
1580422697.65775,-0.954848554207675,0.137941557946135,-0.0148928053711757
1580422697.68984,-0.937270160982681,0.240970473792629,0.174074921797512
1580422697.72193,-0.983657587548638,0.0720225833524069,0.0837415121690697
1580422697.75402,-1.12672617685206,0.0881361104753182,0.027588311589227
1580422697.78611,-0.973891813534753,0.303471427481497,0.363530937666894
1580422697.81821,-0.865980010681316,0.428961623559928,0.878675516899367
1580422697.8503,-0.884534981307699,0.166262302586404,0.898207064927139
1580422697.88239,-1.32448310063325,-0.136964980544747,0.843030441748684
1580422697.91448,-1.41335164415961,-0.0158693827725642,0.888441290913253
1580422697.94657,-1.73611047531853,-0.0246585793850613,1.28737315938048
1580422697.97867,-1.78005645838102,0.343022812237734,0.55298695353628
1580422698.01076,-1.98123140306706,0.482673380636299,-0.905043106736859
1580422698.04285,-1.07301441977569,0.133058670939192,-0.426031891355764
1580422698.07498,-1.13551537346456,0.489021133745325,-0.520271610589761
1580422698.10707,-0.48364995803769,-0.220950637064163,-0.835217822537576
1580422698.13917,-0.419195849546044,-0.587655451285572,-0.674082551308461
1580422698.17126,-0.290775921263448,-0.487556267643244,-0.824475471122302
1580422698.20335,-0.506599526970321,-0.205325398641946,-0.655039291981383
1580422698.23544,-1.11940184634165,-0.118410009918364,-0.68091859311818
1580422698.26754,-1.16432440680552,-0.11108567940795,-0.717051956969557
1580422698.29963,-1.08863965819791,-0.244388494697489,-0.48023193713283
1580422698.33172,-0.713633936064697,-0.514900434882124,-0.639902342259861
1580422698.36381,-0.587167162584878,0.114991989013504,-0.667246509498741
1580422698.39591,-1.6106202792401,-0.0197756923781185,1.85378805218586
1580422698.428,-0.734142061493857,0.154543373769741,-0.0588387884336612
1580422698.46009,-1.56130312046998,-0.00561532005798426,-0.933852140077821
1580422698.49218,-0.952895399404898,0.151613641565575,-0.844495307850767
1580422698.52428,-1.0471351186389,-0.42554360265507,-0.638437476157778
1580422698.55637,-1.41872281986725,0.590096894789045,-0.485114824139773
1580422698.58846,-1.13990997177081,0.231204699778743,-0.142336156252384
1580422698.62055,-0.963637750820173,-0.219974059662775,-0.136964980544747
1580422698.65265,-1.09254596780346,-0.129640650034332,-0.10766765850309
1580422698.68474,-0.97926298924239,0.225833524071106,-0.0524910353246355
1580422698.71683,-0.966079194323644,0.070557717250324,-0.100343327992675
1580422698.74892,-0.97926298924239,0.070557717250324,0.0681162737468526
1580422698.78102,-0.88697642481117,0.310795757991912,0.340093080033569
1580422698.81311,-0.810315098802167,0.390875104905774,0.61792935072862
1580422698.8452,-0.971938658731975,0.218020904859998,0.814709697108416
1580422698.8773,-1.07399099717708,0.0402838178072784,0.831799801632716
1580422698.90939,-1.34743266956588,-0.0461432822156098,0.901136797131304
1580422698.94148,-1.77077897306783,0.00854505226214997,1.15162890058747
1580422698.97357,-1.78542763408866,0.191165026321812,0.23657587548638
1580422699.00567,-1.8757610437171,0.285893034256503,-0.451911192492561
1580422699.03776,-1.24196231021591,0.244388494697489,-1.2175478751812
1580422699.06985,-1.03590447852293,-0.00268558785381856,-0.532478828107118
1580422699.10194,-0.663340199893186,-0.0207522697795071,-0.871351186388953
1580422699.13404,-0.417730983443962,-0.766369115739682,-0.579354543373769
1580422699.16613,-0.394293125810636,-0.578377965972381,-0.551522087434195
1580422699.19822,-0.503181506065461,-0.261478599221791,-0.719005111772335
1580422699.23031,-0.971450370031281,0.0158693827725642,-0.480720225833524
1580422699.26241,-1.10084687571527,-0.216067750057221,-0.657480735484855
1580422699.2945,-1.00318913557641,-0.252201113908599,-0.797131303883422
1580422699.32659,-1.00709544518196,-0.392828259708553,-0.93482871747921
1580422699.35876,-0.645761806668192,0.0500495918211641,-0.683848325322346
1580422699.39086,-0.948989089799344,-0.323491264209965,-0.493415732051576
1580422699.42295,-2.35916685740444,0.284916456855115,0.627695124742505
1580422699.45504,-0.977309834439613,0.465094987411305,-0.511970702677958
1580422699.48713,-1.62233920805676,-0.71168078126192,-0.688731212329289
1580422699.51923,-0.857679102769513,-0.296635385671779,-0.714610513466086
1580422699.55132,-1.10768291752499,0.790783550774396,-0.675547417410543
1580422699.58341,-1.3801480125124,0.319584954604409,-0.231204699778743
1580422699.6155,-0.902113374532693,-0.384039063096056,-0.218997482261386
1580422699.6476,-1.01539635309377,-0.0466315709163041,-0.115968566414892
1580422699.67969,-1.07350270847639,0.217044327458609,0.0393072404058898
1580422699.71178,-1.00807202258335,0.0471198596169984,-0.0402838178072784
1580422699.74388,-1.18385595483329,0.0373540856031127,0.0681162737468526
1580422699.77597,-0.964614328221561,0.389898527504386,0.635996032654308
1580422699.80806,-0.750743877317465,0.10766765850309,0.641367208361945
1580422699.84015,-1.19850461585412,-0.0744640268558783,0.647714961470971
1580422699.87224,-1.15114061188678,0.0573739223315783,0.689219501029985
1580422699.90434,-1.23610284580758,-0.00903334096284425,0.733653772793165
1580422699.93643,-1.56325627527275,-0.139406424048218,0.885511558709087
1580422699.96852,-1.75173571374075,0.519783321889069,0.268314641031509
1580422700.00062,-2.01004043640803,0.329350728618294,-0.270267795834288
1580422700.03271,-1.15114061188678,0.107179369802395,-1.42409399557488
1580422700.0648,-1.07447928587777,0.139894712748912,-0.404547188525216
1580422700.09689,-0.731212329289692,-0.0646982528419926,-0.835217822537576
1580422700.12899,-0.425055313954376,-0.78443579766537,-0.614511329823758
1580422700.16108,-0.573983367666132,-0.72535286488136,-0.495368886854353
1580422700.19317,-0.652597848477912,-0.627206836041809,-0.620859082932784
1580422700.22526,-0.937270160982681,-0.0627450980392155,-0.549568932631418
1580422700.25736,-1.05983062485695,0.248294804303043,-0.477302204928664
1580422700.28945,-1.10426489662013,-0.44946974898909,-0.712169069962615
1580422700.32154,-0.976333257038224,-0.441168841077287,-0.912855725947967
1580422700.35363,-0.543221179522392,0.00805676356145568,-0.906019684138247
1580422700.38573,-0.793713282978562,-0.123781185626001,-0.665293354695963
1580422700.41782,-2.32693980315862,-0.190188448920424,0.572518501564051
1580422700.44991,-0.978774700541695,0.224368657969023,-0.33325703822385
1580422700.482,-1.62136263065537,-0.636484321355001,-0.734142061493857
1580422700.5141,-0.929457541771573,-0.218020904859998,-0.804455634393836
1580422700.54619,-1.10719462882429,0.540291447318229,-0.816174563210499
1580422700.57828,-1.39772640573739,0.176516365300984,-0.229739833676661
1580422700.61037,-1.09645227740902,-0.300053406576639,-0.0324711985961699
1580422700.64267,-0.979751277943084,0.037842374303807,-0.0227054245822842
1580422700.67476,-1.03297474631876,0.186282139314869,0.0461432822156098
1580422700.70685,-0.971938658731975,0.170656900892652,0.000732433051041426
1580422700.73895,-0.917250324254216,0.10766765850309,0.0300297550926985
1580422700.77104,-0.820080872816053,0.271244373235675,0.277103837644006
1580422700.80313,-0.865980010681316,0.240970473792629,0.515877012283514
1580422700.83522,-1.13551537346456,0.0520027466239412,0.512947280079349
1580422700.86732,-1.1916685740444,0.0187991149767299,0.656015869382774
1580422700.89941,-1.30397497520409,0.167238879987792,0.724376287479974
1580422700.9315,-1.68825818265049,0.174074921797512,1.20289921416037
1580422700.96359,-1.56667429617761,0.233646143282215,1.13453879606317
1580422700.99569,-2.06814679179065,0.460212100404362,-0.429449912260624
1580422701.02778,-1.35719844357977,0.0656748302433812,-0.762951094834822
1580422701.05987,-1.01930266269932,0.12475776302739,-0.43921568627451
1580422701.09196,-0.702891584649423,0.227786678873883,-0.651621271076523
1580422701.12406,-0.407476920729382,-0.387457084000916,-0.68091859311818
1580422701.15615,-0.513435568780041,-0.537361715114061,-0.56910048065919
1580422701.18824,-0.532967116807813,-0.38110933089189,-0.635996032654306
1580422701.22034,-0.828381780727856,-0.136964980544747,-0.675059128709849
1580422701.25243,-1.21608300907912,0.0886243991760125,-0.509529259174487
1580422701.28452,-1.11842526894026,-0.10083161669337,-0.852307927061876
1580422701.31661,-1.19459830624857,-0.764904249637599,-0.755138475623713
1580422701.34871,-0.384039063096056,0.127687495231555,-0.855237659266042
1580422701.3808,-0.620370794232089,-0.492927443350881,-1.03492790112154
1580422701.41289,-1.73073929961089,-0.0861829556725411,1.42751201647974
1580422701.44498,-0.621347371633478,0.494392309452962,-0.0666514076447697
1580422701.47708,-1.71804379339284,-0.536873426413367,-0.354741741054399
1580422701.50917,-0.915297169451438,-0.278568703746091,-0.948989089799344
1580422701.54126,-1.09449912260624,0.275638971541923,-0.946059357595178
1580422701.57335,-1.37721828030823,0.280033569848172,-0.380132753490502
1580422701.60545,-1.20485236896315,-0.168215457389181,-0.169680323491264
1580422701.63754,-0.968032349126421,0.0124513618677042,-0.0666514076447697
1580422701.66963,-1.01051346608682,0.211184863050278,0.060303654535744
1580422701.70172,-0.929457541771573,0.0715342946517126,0.0559090562294955
1580422701.73382,-1.01979095140002,0.0793469138628211,0.0642099641412983
1580422701.76591,-0.87672236209659,0.356694895857174,0.367437247272449
1580422701.798,-0.778088044556345,0.241947051194018,0.464606698710611
1580422701.83009,-1.04567025253681,0.0944838635843439,0.495368886854351
1580422701.86219,-1.02809185931182,0.150637064164187,0.603768978408485
1580422701.89428,-1.19899290455482,0.0715342946517126,0.585214007782103
1580422701.92642,-1.36794079499504,0.0632333867399097,0.746349279011216
1580422701.95851,-1.59108873121233,-0.00659189745937283,1.14283970397497
1580422701.99061,-1.64138246738384,0.156496528572518,0.493904020752268
1580422702.0227,-1.98318455786984,0.484138246738382,-0.606210421911955
1580422702.05479,-1.23707942320897,0.0441901274128327,-1.17750820172427
1580422702.08689,-1.15016403448539,0.0256351567864499,-0.564705882352941
1580422702.11898,-0.719005111772335,-0.131105516136415,-0.795178149080645
1580422702.15107,-0.437262531471733,-0.53833829251545,-0.619882505531395
1580422702.18317,-0.373785000381476,-0.40503547722591,-0.590585183489738
1580422702.21526,-0.480720225833524,-0.39819943541619,-0.557869840543221
1580422702.24735,-0.864026855878539,-0.114991989013504,-0.496345464255741
1580422702.27944,-1.23659113450828,0.0246585793850613,-0.575448233768215
1580422702.31154,-1.16823071641108,-0.0217288471808956,-0.603768978408484
1580422702.34363,-0.861585412375067,-0.390386816205082,-1.02027924010071
1580422702.37572,-0.639902342259861,-0.133546959639887,-0.769787136644542
1580422702.40782,-1.03541618982223,-0.299076829175251,-0.722423132677195
1580422702.43991,-2.4563363088426,0.219974059662775,0.374273289082169
1580422702.472,-1.04322880903334,0.370855268177309,-0.498298619058518
1580422702.5041,-1.68630502784771,-0.374761577782865,-0.487556267643244
1580422702.53619,-0.889417868314641,-0.561776150148775,-0.630624856946669
1580422702.56828,-1.07936217288472,0.431891355764094,-0.655527580682078
1580422702.60038,-1.36501106279088,0.498298619058517,-0.248294804303043
1580422702.63247,-0.95191882200351,-0.268314641031511,-0.0886243991760125
1580422702.66456,-0.980727855344472,-0.0554207675288012,-0.0139162279697871
1580422702.69666,-0.997329671168078,0.234622720683603,0.0466315709163041
1580422702.72875,-1.00318913557641,0.0822766460669868,-0.063721675440604
1580422702.76084,-1.10280003051804,0.0202639810788128,-0.0627450980392155
1580422702.79293,-0.936781872281987,0.195071335927366,0.482185091935605
1580422702.82503,-0.820569161516747,0.196536202029449,0.594491493095294
1580422702.85712,-1.10182345311665,0.115480277714198,0.602304112306403
1580422702.88921,-1.1579766536965,0.0461432822156098,0.660410467689022
1580422702.92131,-1.24635690852216,0.0505378805218584,0.769298847943848
1580422702.9534,-1.70974288548104,0.0388189517051956,0.919691767757687
1580422702.98549,-1.5422598611429,-0.0158693827725642,0.931898985275044
1580422703.01759,-1.89968719005112,0.489997711146714,-0.0104982070649271
1580422703.04968,-1.59450675211719,0.101808194094758,-1.02906843671321
1580422703.08177,-1.16285954070344,0.127687495231555,-0.41870756084535
1580422703.11386,-0.952895399404898,0.166750591287098,-0.639414053559166
1580422703.14596,-0.497810330357824,-0.441168841077287,-0.597421225299458
1580422703.17805,-0.484626535439078,-0.49732204165713,-0.539803158617532
1580422703.21011,-0.564217593652247,-0.380132753490502,-0.681895170519569
1580422703.24221,-0.766369115739682,-0.461188677805753,-0.699961852445258
1580422703.2743,-0.90406652933547,-0.127687495231555,-0.683848325322346
1580422703.30639,-1.29665064469368,0.208255130846112,-0.615976195925841
1580422703.33849,-1.04225223163195,-0.229251544975966,-0.780041199359122
1580422703.37058,-0.673105973907072,-0.464606698710613,-0.81861600671397
1580422703.40267,-0.758556496528573,-0.0842298008697639,-0.88355840390631
1580422703.43476,-1.34254978255894,0.249271381704432,0.952407110704204
1580422703.46686,-1.11354238193332,0.713145647364005,-0.362066071564813
1580422703.49895,-1.5251697566186,0.0139162279697871,-0.40503547722591
1580422703.53104,-1.14381628137636,-0.560311284046692,-0.309330891889831
1580422703.56314,-0.91773861295491,0.141847867551689,-0.519783321889067
1580422703.59523,-1.19948119325551,0.650156404974442,-0.573006790264744
1580422703.62732,-1.21120012207217,-0.0422369726100555,-0.105714503700312
1580422703.65942,-0.989028763256275,-0.228763256275272,-0.0568856336308841
1580422703.69151,-0.996841382467384,0.0534676127260241,-0.0754406042572668
1580422703.7236,-0.953383688105593,0.178469520103761,0.00561532005798426
1580422703.75569,-0.990493629358358,0.167727168688486,-0.122316319523918
1580422703.78779,-1.10475318532082,0.067139696345464,0.0290531776913099
1580422703.81988,-0.980727855344472,0.226810101472495,0.388433661402303
1580422703.85197,-0.915785458152133,0.126222629129472,0.487556267643242
1580422703.88407,-1.00904859998474,0.201419089036392,0.614999618524454
1580422703.91616,-1.08815136949721,0.149660486762798,0.694102388036928
1580422703.94825,-1.21608300907912,0.0456549935149155,0.609628442816817
1580422703.98035,-1.57302204928664,0.0549324788281069,0.809826810101473
1580422704.01244,-1.4743877317464,-0.0466315709163041,1.15846494239719
1580422704.04453,-1.79128709849699,0.473395895323108,0.0983901731898982
1580422704.07662,-1.72732127870603,0.220462348363469,-0.818127718013276
1580422704.10872,-1.16383611810483,-0.0217288471808956,-0.550545510032807
1580422704.14081,-0.885999847409781,0.237064164187075,-0.678965438315403
1580422704.1729,-0.43237964446479,-0.291264209964142,-0.787365529869536
1580422704.205,-0.409918364232853,-0.542732890821698,-0.554451819638361
1580422704.23709,-0.505622949568933,-0.44946974898909,-0.585214007782101
1580422704.26918,-0.702891584649423,-0.269291218432899,-0.624765392538338
1580422704.30128,-0.98268101014725,0.0280766002899213,-0.355230029755093
1580422704.33337,-1.17018387121385,-0.0163576714732585,-0.586190585183489
1580422704.36546,-1.3801480125124,-0.154055085069047,-0.454840924696727
1580422704.39756,-0.670176241702906,-0.259525444419014,-0.817151140611887
1580422704.42965,-0.567635614557107,0.0373540856031127,-0.655039291981383
1580422704.46174,-1.07545586327916,0.217044327458609,-0.302494850080111
1580422704.49393,-2.35330739299611,-0.000244144350347142,0.389410238803691
1580422704.52602,-0.987075608453498,0.198977645532921,-0.621347371633478
1580422704.55811,-1.54323643854429,-0.099855039291981,-0.536385137712672
1580422704.59021,-1.07350270847639,-0.54517433432517,-0.593514915693904
1580422704.6223,-1.07301441977569,0.217044327458609,-0.753673609521631
1580422704.65439,-1.43288319218738,0.674082551308462,-0.306889448386359
1580422704.68649,-0.948012512397955,-0.159914549477378,-0.0837415121690697
1580422704.71858,-1.03932249942779,-0.179934386205844,-0.0793469138628211
1580422704.75067,-1.03981078812848,0.271244373235675,0.00268558785381856
1580422704.78277,-0.933363851377127,0.211184863050278,0.0515144579232469
1580422704.81486,-0.984145876249332,0.0256351567864499,0.115480277714198
1580422704.84695,-0.910414282444496,0.335210193026626,0.411871519035628
1580422704.87905,-0.781994354161899,0.2434119172961,0.571053635461968
1580422704.91114,-1.03736934462501,0.0974135957885096,0.595956359197377
1580422704.94324,-1.10231174181735,0.186770428015564,0.659922178988328
1580422704.97533,-1.17311360341802,0.171145189593346,0.647714961470971
1580422705.00742,-1.62429236285954,0.0173342488746471,0.674082551308462
1580422705.03952,-1.61989776455329,0.0222171358815899,1.11696040283818
1580422705.07161,-1.72976272220951,0.510505836575877,0.444098573281451
1580422705.1037,-2.01004043640803,0.575448233768217,-0.899183642328527
1580422705.1358,-1.10719462882429,-0.171145189593346,-0.225345235370412
1580422705.16789,-1.02223239490349,0.295658808270389,-0.833752956435493
1580422705.19998,-0.395757991912719,-0.576913099870298,-0.793713282978562
1580422705.23208,-0.56568245975433,-0.540291447318227,-0.519295033188373
1580422705.26417,-0.384039063096056,-0.408941786831464,-0.693614099336232
1580422705.29626,-0.6877546349279,-0.116456855115587,-0.658945601586938
1580422705.32836,-1.08473334859235,0.0339360646982527,-0.509529259174487
1580422705.36045,-1.1408865491722,-0.0549324788281069,-0.843518730449379
1580422705.39254,-1.22926680399786,-0.371343556878005,-0.752697032120242
1580422705.42464,-0.567635614557107,-0.135500114442664,-0.922621499961853
1580422705.45673,-0.581795986877241,-0.206790264744029,-0.950942244602121
1580422705.48883,-1.5935301747158,-0.181399252307926,1.4138399328603
1580422705.52092,-0.719981689173723,0.444098573281451,0.0187991149767299
1580422705.55301,-1.60769054703593,-0.404058899824522,-0.666269932097352
1580422705.58511,-1.08766308079652,-0.678965438315403,-0.799572747386893
1580422705.6172,-0.995376516365301,0.420660715648125,-0.746837567711909
1580422705.64929,-1.30641641870756,0.903578240634776,-0.427008468757153
1580422705.68139,-1.11989013504234,-0.213626306553749,-0.179934386205844
1580422705.71348,-0.977309834439613,-0.265873197528039,-0.0900892652780954
1580422705.74557,-1.00660715648127,0.206301976043335,-0.0529793240253298
1580422705.77768,-1.00758373388266,0.141847867551689,-0.00903334096284425
1580422705.80977,-1.08278019378958,-0.0969253070878153,-0.153078507667658
1580422705.84187,-0.984145876249332,0.255130846112763,0.472907606622414
1580422705.87396,-0.683360036621652,0.360601205462729,0.58033112077516
1580422705.90605,-1.06129549095903,-0.0231937132829785,0.461188677805751
1580422705.93815,-1.1662775616083,0.182864118410009,0.558846417944611
1580422705.97024,-1.20631723506523,0.0876478217746239,0.613046463721677
1580422706.00233,-1.50173189898528,0.0554207675288012,0.81519798580911
1580422706.03443,-1.72878614480812,0.0285648889906156,1.16090638590066
1580422706.06652,-1.74050507362478,0.410406652933546,0.374761577782863
1580422706.09861,-1.93630884260319,0.232181277180132,-0.816174563210499
1580422706.13071,-1.072526131075,0.102784771496147,-0.585214007782101
1580422706.1628,-1.04127565423056,0.196047913328755,-0.653574425879301
1580422706.1949,-0.567147325856412,-0.214114595254443,-0.703868162050812
1580422706.22699,-0.450446326390479,-0.494880598153658,-0.600839246204318
1580422706.25908,-0.455329213397421,-0.383062485694667,-0.554940108339055
1580422706.29117,-0.533455405508507,-0.358159761959259,-0.648203250171663
1580422706.32327,-0.816662851911193,-0.144777599755855,-0.617929350728618
1580422706.35536,-1.27809567406729,0.0725108720531011,-0.537361715114061
1580422706.38746,-1.29958037689784,-0.136964980544747,-0.637460898756389
1580422706.41955,-0.937270160982681,-0.328862439917602,-0.756115053025102
1580422706.45164,-0.575448233768215,-0.237552452887769,-0.436774242771039
1580422706.48374,-0.932387273975738,-0.321049820706493,-0.566170748455024
1580422706.51583,-2.50565346761273,-0.0632333867399097,0.58033112077516
1580422706.54792,-0.876234073395896,-0.0358892195010299,-0.628671702143892
1580422706.58002,-1.68923476005188,-0.103273060196841,-0.614999618524452
1580422706.61211,-1.03688105592432,-0.404058899824522,-0.594979781795987
1580422706.6442,-1.00025940337224,0.357183184557869,-0.678477149614709
1580422706.6763,-1.39430838483253,0.261966887922483,-0.277592126344702
1580422706.70839,-0.942641336690318,-0.243900205996795,-0.0476081483176927
1580422706.74048,-0.998794537270161,0.0974135957885096,0.0246585793850613
1580422706.77258,-1.00172426947433,0.264408331425955,0.0339360646982527
1580422706.80467,-0.907972838941024,0.041260395208667,-0.060303654535744
1580422706.83676,-1.06324864576181,0.149660486762798,-0.0437018387121384
1580422706.86886,-1.00709544518196,0.192141603723201,0.359136339360646
1580422706.90095,-0.77418173495079,0.220950637064163,0.640390630960557
1580422706.93305,-1.05348287174792,0.146730754558632,0.656992446784162
1580422706.96514,-1.16578927290761,0.158937972075989,0.531502250705731
1580422706.99723,-1.25123979552911,0.171145189593346,0.644785229266805
1580422707.02933,-1.50563820859083,0.0861829556725411,0.780041199359122
1580422707.06146,-1.46315709163043,0.316166933699549,1.35866330968185
1580422707.09356,-1.71999694819562,0.531502250705731,0.185793850614175
1580422707.12565,-1.49050125886931,-0.162844281681544,0.125734340428778
1580422707.15774,-1.36403448538949,0.33228046082246,-1.0466468299382
1580422707.18984,-1.17555504692149,0.691660944533457,-0.309819180590525
1580422707.22193,-0.512947280079347,-0.533455405508507,-0.733653772793163
1580422707.25402,-0.700450141145952,-0.727794308384832,-0.384039063096056
1580422707.28612,-0.575448233768215,-0.0187991149767299,-0.553963530937667
1580422707.31821,-0.674082551308461,0.0944838635843439,-0.501716639963378
1580422707.3503,-1.17018387121385,0.00366216525520713,-0.489509422446021
1580422707.3824,-1.22536049439231,-0.395757991912719,-0.614023041123064
1580422707.41449,-1.11891355764095,-0.249759670405126,-0.887953002212559
1580422707.44658,-0.879163805600061,-0.0168459601739528,-0.915785458152133
1580422707.47868,-0.587167162584878,-0.542732890821698,-0.957778286411841
1580422707.51077,-0.981704432745861,0.276615548943312,-0.00366216525520713
1580422707.54287,-2.13308918898299,0.998306248569467,0.30493629358358
1580422707.57496,-1.32594796673533,-0.0187991149767299,-0.420172426947433
1580422707.60705,-1.30690470740826,-0.741466392004272,-0.715587090867475
1580422707.63914,-1.01686121919585,-0.115480277714198,-0.859143968871596
1580422707.67124,-1.21412985427634,0.728282597085528,-0.645273517967498
1580422707.70333,-1.32106507972839,0.0109864957656214,-0.231692988479438
1580422707.73543,-0.963637750820173,-0.160402838178072,-0.151613641565575
1580422707.76752,-1.02320897230488,0.186770428015564,-0.00512703135728998
1580422707.79961,-0.98268101014725,0.293705653467612,0.105226214999618
1580422707.83171,-1.0129549095903,0.0754406042572668,-0.027588311589227
1580422707.8638,-1.0295567254139,0.070557717250324,0.306889448386357
1580422707.89589,-0.719493400473029,0.316655222400243,0.526619363698789
1580422707.92799,-0.903578240634776,0.126222629129472,0.577889677271688
1580422707.96008,-1.0979171435111,-0.0139162279697871,0.588632028686963
1580422707.99217,-1.1574883649958,0.122316319523918,0.529549095902954
1580422708.02427,-1.28737315938048,0.237552452887769,0.600350957503625
1580422708.05636,-1.63112840466926,-0.00561532005798426,0.917250324254216
1580422708.08845,-1.396749828336,0.0690928511482412,0.533455405508509
1580422708.12055,-2.04275577935454,0.375738155184251,-0.327397573815519
1580422708.15264,-1.23366140230411,0.107179369802395,-1.26149385824369
1580422708.18473,-1.12819104295415,0.138429846646829,-0.549080643930724
1580422708.21683,-0.915297169451438,-0.0524910353246355,-0.662363622491798
1580422708.24892,-0.489509422446021,-0.44263370717937,-0.667246509498741
1580422708.28102,-0.297611963073168,-0.522224765392538,-0.542732890821698
1580422708.31311,-0.464606698710613,-0.223880369268329,-0.575936522468909
1580422708.34531,-0.601327534905012,-0.168703746089875,-0.585214007782101
1580422708.3774,-1.14430457007706,-0.0583504997329669,-0.352300297550928
1580422708.40949,-1.19069199664301,-0.220462348363469,-0.714122224765392
1580422708.44159,-1.27614251926452,-0.189700160219729,-0.492927443350881
1580422708.47368,-0.651132982375829,-0.174074921797512,-0.944594491493095
1580422708.50578,-0.525154497596704,-0.206301976043335,-0.80152590218967
1580422708.53787,-1.44997329671168,0.2605020218204,1.00465400167849
1580422708.56996,-1.01490806439307,0.626718547341117,-0.0529793240253298
1580422708.60206,-1.65603112840467,-0.110597390707255,-0.641855497062638
1580422708.63415,-1.06276035706111,-0.536873426413367,-0.720469977874417
1580422708.66625,-1.00465400167849,-0.0651865415426869,-0.733653772793163
1580422708.69834,-1.37917143511101,0.749279011215382,-0.489509422446021
1580422708.73043,-1.14332799267567,-0.0192874036774242,-0.219485770962081
1580422708.76253,-0.96559090562295,-0.199465934233615,-0.031006332494087
1580422708.79462,-1.00318913557641,0.135988403143358,0.0783703364614325
1580422708.82672,-0.892347600518807,0.256107423514152,0.0920424200808725
1580422708.85881,-0.938735027084764,0.073975738155184,-0.0192874036774242
1580422708.8909,-1.10231174181735,0.0227054245822842,0.119386587319752
1580422708.923,-0.865003433279927,0.245853360799572,0.463141832608528
1580422708.95509,-0.89723048752575,0.142824444953078,0.592538338292517
1580422708.98719,-1.0554360265507,0.0490730144197755,0.617441062027925
1580422709.01928,-1.12037842374304,0.112550545510032,0.545174334325171
1580422709.05137,-1.36110475318532,0.0622568093385212,0.464118410009917
1580422709.08347,-1.53981841763943,0.125246051728084,0.827893492027162
1580422709.11556,-1.61647974364843,-0.0314946211947813,1.13942168307011
1580422709.14766,-1.87038986800946,0.490485999847408,0.365484092469671
1580422709.17975,-1.7214618142977,0.155519951171129,-0.868909742885482
1580422709.21184,-1.05738918135348,0.0744640268558783,-0.300053406576639
1580422709.24394,-0.935805294880598,0.484138246738382,-0.788342107270925
1580422709.27603,-0.505134660868238,-0.426520180056459,-0.772228580148013
1580422709.30813,-0.560799572747387,-0.552986953536278,-0.494392309452964
1580422709.34022,-0.349858854047456,-0.527107652399481,-0.585214007782101
1580422709.37231,-0.671152819104295,-0.296635385671779,-0.667246509498741
1580422709.40441,-1.12281986724651,0.177492942702372,-0.374761577782865
1580422709.4365,-1.05445944914931,-0.112062256809338,-0.806897077897307
1580422709.4686,-1.39235523002976,-0.115480277714198,-0.523689631494621
1580422709.50069,-0.549568932631418,-0.148683909361409,-0.840588998245213
1580422709.53278,-0.609628442816815,-0.193118181124589,-0.978774700541695
1580422709.56488,-1.36403448538949,-0.0661631189440754,0.626718547341117
1580422709.59697,-1.11354238193332,0.871351186388953,-0.135011825741969
1580422709.62912,-1.53884184023804,0.316655222400243,-0.348393987945373
1580422709.66121,-1.24000915541314,-1.23219653620203,-0.313237201495385
1580422709.69331,-0.816174563210499,-0.161379415579461,-0.818127718013276
1580422709.7254,-1.21168841077287,1.21657129777981,-0.632578011749446
1580422709.7575,-1.19118028534371,0.0227054245822842,-0.243900205996795
1580422709.78959,-0.971938658731975,-0.437750820172427,-0.134035248340581
1580422709.82168,-1.05201800564584,0.0676279850461583,-0.0617685206378269
1580422709.85378,-1.01100175478752,0.285893034256503,-0.037842374303807
1580422709.88587,-1.01588464179446,0.031006332494087,-0.146242465857938
1580422709.91797,-1.12184328984512,0.0495613031204698,0.115480277714198
1580422709.95006,-0.770275425345236,0.3630426489662,0.609140154116123
1580422709.98215,-0.882093537804227,0.167238879987792,0.635996032654308
1580422710.01425,-1.15895323109789,-0.0236820019836728,0.510017547875183
1580422710.04634,-1.08180361638819,0.111573968108644,0.619394216830703
1580422710.07844,-1.37038223849851,0.0495613031204698,0.799572747386893
1580422710.11053,-1.92117189288167,-0.194583047226672,1.06031891355764
1580422710.14262,-1.8157015335317,0.437750820172425,0.222415503166246
1580422710.17472,-1.99343862058442,0.193118181124589,-0.611093308918898
1580422710.20681,-0.921644922560464,0.0505378805218584,-1.50270847638666
1580422710.23891,-1.04127565423056,-0.0798352025635154,-0.511482413977264
1580422710.271,-0.571541924162661,0.0725108720531011,-0.703379873350118
1580422710.30309,-0.254642557412071,-0.470466163118944,-0.665781643396658
1580422710.33519,-0.425055313954376,-0.44605172808423,-0.470466163118944
1580422710.36728,-0.441168841077287,-0.372808422980087,-0.603768978408484
1580422710.39938,-0.562752727550164,-0.281986724650951,-0.614999618524452
1580422710.43147,-0.950942244602121,-0.0500495918211641,-0.456794079499504
1580422710.46356,-1.25026321812772,-0.00268558785381856,-0.679942015716792
1580422710.49566,-1.34792095826658,-0.303471427481499,-0.406012054627299
1580422710.52775,-0.527107652399481,-0.145265888456549,-0.379156176089113
1580422710.55985,-0.607675288014038,-0.0227054245822842,-0.648691538872358
1580422710.59194,-1.88552681773098,0.146242465857938,1.77615014877546
1580422710.62403,-0.230716411078049,-0.0979018844892039,0.181399252307926
1580422710.65613,-1.42897688258183,0.103761348897535,-0.612069886320286
1580422710.68822,-1.11598382543679,-0.285893034256505,-0.338628213931488
1580422710.72032,-0.926039520866713,-0.360112916762036,-0.592050049591821
1580422710.75241,-1.33424887464714,0.623300526436257,-0.44946974898909
1580422710.7845,-1.149187457084,0.290287632562752,-0.146730754558632
1580422710.8166,-0.901136797131304,-0.185305561913481,-0.123292896925307
1580422710.84869,-1.10084687571527,0.0866712443732354,-0.0417486839093613
1580422710.88079,-0.994399938963912,0.334233615625237,0.0886243991760125
1580422710.91305,-0.990981918059052,0.0173342488746471,-0.0280766002899213
1580422710.94515,-0.952407110704204,0.12475776302739,0.218509193560692
1580422710.97724,-0.976821545738918,0.145754177157244,0.401129167620354
1580422711.00934,-0.956313420309758,0.178957808804455,0.543221179522394
1580422711.04143,-1.08522163729305,0.126222629129472,0.729747463187611
1580422711.07352,-1.15162890058747,0.120851453421835,0.691172655832762
1580422711.10562,-1.28053711757076,0.0368657969024184,0.828381780727856
1580422711.13771,-1.76687266346227,-0.0217288471808956,1.22096589608606
1580422711.16981,-1.585229266804,0.102296482795452,0.766369115739682
1580422711.2019,-2.24588387884337,0.60767528801404,-1.03395132372015
1580422711.23399,-1.3029983978027,-0.164797436484321,-1.16676585030899
1580422711.26609,-1.02858014801251,-0.113527122911421,-0.596932936598764
1580422711.29818,-0.559334706645304,0.00219729915312428,-0.643320363164721
1580422711.33028,-0.344487678339819,-0.279545281147479,-0.587655451285572
1580422711.36237,-0.367925535973145,-0.239017318989852,-0.518318455786984
1580422711.39446,-0.441168841077287,-0.335698481727322,-0.641855497062638
1580422711.42656,-0.745372701609826,-0.242923628595406,-0.580331120775158
1580422711.45865,-1.27516594186313,0.0178225375753414,-0.506111238269627
1580422711.49075,-1.2346379797055,0.151125352864881,-0.802014190890365
1580422711.52284,-1.1579766536965,-0.50757610437171,-0.624277103837644
1580422711.55493,-0.51099412527657,-0.295658808270391,-0.419684138246739
1580422711.58703,-0.764415960936905,-0.12133974212253,-0.817639429312582
1580422711.61912,-2.12088197146563,-0.202395666437781,1.18678568703746
1580422711.65122,-0.472419317921721,-0.239017318989852,-0.423590447852293
1580422711.68331,-1.79372854200046,-0.0661631189440754,-0.498298619058518
1580422711.7154,-1.18141451132982,-0.45288776989395,-0.583749141680018
1580422711.7475,-0.814709697108416,0.256107423514152,-0.794201571679256
1580422711.77959,-1.39284351873045,0.55640497444114,-0.345464255741208
1580422711.81169,-1.05104142824445,-0.250247959105822,-0.0935072861829553
1580422711.84378,-1.00318913557641,-0.130128938735027,-0.110109102006561
1580422711.87587,-1.04322880903334,0.216556038757915,-0.0515144579232469
1580422711.90797,-1.03199816891737,0.116945143816281,-0.108644235904478
1580422711.94006,-1.10133516441596,-0.00854505226214997,-0.0354009308003356
1580422711.97216,-0.899183642328527,0.302006561379415,0.379644464789806
1580422712.00425,-0.763439383535516,0.397711146715494,0.53589684901198
1580422712.03635,-1.00758373388266,0.11792172121767,0.565194171053637
1580422712.06844,-1.08375677119097,0.157961394674601,0.590096894789045
1580422712.10053,-1.19362172884718,0.00170901045242999,0.591561760891128
1580422712.13263,-1.47682917524987,0.10424963759823,0.931898985275044
1580422712.16472,-1.69118791485466,-0.0178225375753414,1.0383459220264
1580422712.19684,-1.71364919508659,0.0476081483176927,0.34937056534676
1580422712.22893,-1.89431601434348,0.163332570382238,-0.591073472190432
1580422712.26103,-1.35329213397421,0.285893034256503,-0.44263370717937
1580422712.29312,-1.00807202258335,0.42798504615854,-0.901136797131304
1580422712.32522,-0.531013962005035,-0.467048142214084,-0.702891584649423
1580422712.35731,-0.526619363698787,-0.515877012283513,-0.550545510032807
1580422712.38941,-0.348393987945373,-0.352788586251622,-0.596444647898069
1580422712.4215,-0.565194171053635,-0.0476081483176927,-0.740489814602883
1580422712.45359,-1.01149004348821,0.168215457389181,-0.525154497596704
1580422712.48569,-1.19703974975204,-0.0988784618905925,-0.625253681239032
1580422712.51778,-1.19313344014649,-0.420660715648127,-0.706797894254978
1580422712.54988,-0.769298847943848,-0.147219043259327,-1.03346303501946
1580422712.58197,-0.533943694209201,-0.0734874494544897,-0.77759975585565
1580422712.61407,-1.09303425650416,0.0993667505912867,-0.0651865415426869
1580422712.64616,-2.05838101777676,0.596444647898071,0.452887769893948
1580422712.67825,-1.30104524299992,-0.0788586251621268,-0.567147325856412
1580422712.71035,-1.40016784924086,-0.33667505912871,-0.697032120241092
1580422712.74244,-0.95875486381323,-0.158449683375295,-0.765392538338293
1580422712.77454,-1.14967574578469,0.60083924620432,-0.740489814602883
1580422712.80663,-1.43923094529641,0.221438925764858,-0.220950637064163
1580422712.83873,-1.00123598077363,-0.177492942702372,-0.216556038757915
1580422712.87082,-1.0207675288014,0.0588387884336612,-0.127687495231555
1580422712.90292,-1.0207675288014,0.347905699244677,0.0354009308003356
1580422712.93501,-0.963637750820173,0.0368657969024184,0.01196307316701
1580422712.9671,-0.941176470588236,0.114015411612115,0.267826352330815
1580422712.9992,-0.781994354161899,0.33911650263218,0.459723811703668
1580422713.03129,-0.872816052491036,0.0368657969024184,0.558846417944611
1580422713.06339,-1.12037842374304,0.0236820019836728,0.527107652399483
1580422713.09548,-1.12184328984512,0.133546959639887,0.598886091401543
1580422713.12758,-1.21950102998398,0.224856946669718,0.700450141145954
1580422713.15967,-1.69069962615396,0.120851453421835,1.02174410620279
1580422713.19177,-1.62722209506371,0.156496528572518,0.845471885252156
1580422713.22386,-1.98562600137331,0.432867933165483,-0.204348821240558
1580422713.25596,-1.3796597238117,0.128664072632944,-0.880628671702144
1580422713.28805,-1.1067063401236,0.143312733653772,-0.364507515068285
1580422713.32014,-0.726817730983443,0.0329594872968642,-0.928969253070878
1580422713.35224,-0.491462577248798,-0.56910048065919,-0.709727626459143
1580422713.38433,-0.509529259174487,-0.389898527504387,-0.609628442816815
1580422713.41643,-0.48364995803769,-0.347905699244679,-0.624277103837644
1580422713.44852,-0.89381246662089,-0.0754406042572668,-0.581307698176547
1580422713.48068,-1.11891355764095,-0.00366216525520713,-0.434332799267567
1580422713.51278,-1.12135500114443,-0.0373540856031127,-0.789806973373008
1580422713.54487,-1.27077134355688,-0.518318455786984,-0.52466620889601
1580422713.57696,-0.438239108873121,-0.0710460059510183,-0.538826581216144
1580422713.60906,-0.543221179522392,-0.257084000915542,-0.714122224765392
1580422713.64115,-1.40798046845197,0.519295033188374,1.07350270847639
1580422713.67325,-0.84254215304799,0.265873197528038,-0.232181277180132
1580422713.70534,-1.60720225833524,-0.0983901731898982,-0.579842832074464
1580422713.73744,-1.17653162432288,-0.560311284046692,-0.52466620889601
1580422713.76953,-0.777111467154956,-0.0104982070649271,-0.786388952468148
1580422713.80163,-1.35963988708324,0.635507743953614,-0.578866254673075
1580422713.83372,-1.17360189211871,-0.108155947203784,-0.211673151750972
1580422713.86582,-1.01149004348821,-0.00659189745937283,-0.134035248340581
1580422713.89791,-1.0808270389868,0.160891126878766,-0.0930189974822611
1580422713.93,-0.943617914091707,0.206301976043335,0.0700694285496297
1580422713.9621,-0.998794537270161,0.112062256809338,-0.0681162737468526
1580422713.99419,-1.08424505989166,0.102784771496147,0.0427252613107498
1580422714.02629,-0.881605249103533,0.317143511100937,0.420660715648125
1580422714.05838,-0.792248416876479,0.212161440451666,0.59058518348974
1580422714.09048,-1.1067063401236,0.00805676356145568,0.602304112306403
1580422714.12257,-1.12672617685206,0.0871595330739297,0.537361715114063
1580422714.15467,-1.32741283283742,0.109132524605172,0.55298695353628
1580422714.18676,-1.68825818265049,0.0837415121690697,0.86305027847715
1580422714.21885,-1.54030670634012,0.145265888456549,0.985610742351415
1580422714.25095,-1.97048905165179,0.580819409475854,0.00170901045242999
1580422714.28304,-1.40846875715267,-0.0144045166704814,-1.08131532768749
1580422714.31514,-1.10572976272221,0.0837415121690697,-0.383062485694667
1580422714.34723,-0.831799801632716,0.244388494697489,-0.692637521934843
1580422714.37933,-0.451911192492561,-0.40161745632105,-0.675547417410543
1580422714.41142,-0.509040970473793,-0.498298619058518,-0.561287861448081
1580422714.44352,-0.440192263675899,-0.466071564812696,-0.626230258640421
1580422714.47561,-0.730235751888303,-0.226321812771801,-0.717540245670252
1580422714.5077,-1.05250629434653,0.110109102006561,-0.508552681773098
1580422714.5398,-1.2776073853666,0.175051499198901,-0.705821316853589
1580422714.57189,-1.3283894102388,-0.640390630960555,-0.729259174486915
1580422714.60399,-0.507087815671015,0.0324711985961699,-0.922621499961853
1580422714.63608,-0.627206836041809,-0.292729076066225,-0.958266575112535
1580422714.66818,-1.33083085374228,0.194094758525978,0.694590676737622
1580422714.70027,-1.08766308079652,0.768810559243153,-0.113527122911421
1580422714.73237,-1.51833371480888,-0.0144045166704814,-0.529549095902953
1580422714.76449,-1.19850461585412,-0.634531166552224,-0.498786907759213
1580422714.79659,-0.772228580148013,-0.0305180437933927,-0.707286182955672
1580422714.82868,-1.33864347295338,0.650644693675137,-0.431403067063401
1580422714.86078,-1.13990997177081,-0.0554207675288012,-0.170656900892652
1580422714.89287,-0.99293507286183,-0.148683909361409,-0.133058670939192
1580422714.92497,-1.07740901808194,0.156984817273212,-0.000732433051041426
1580422714.95706,-0.94166475928893,0.152590218966964,0.0549324788281069
1580422714.98916,-0.99977111467155,0.0300297550926985,-0.0979018844892039
1580422715.02125,-1.06666666666667,0.171145189593346,0.0886243991760125
1580422715.05335,-0.88355840390631,0.282963302052337,0.477790493629357
1580422715.08544,-0.859143968871596,0.213138017853055,0.674570840009157
1580422715.11753,-1.19069199664301,0.0607919432364383,0.605722133211263
1580422715.14963,-1.1921568627451,0.132082093537804,0.63843747615778
1580422715.18172,-1.46950484473945,0.102296482795452,0.802502479591059
1580422715.21382,-1.80447089341573,-0.180422674906538,1.28249027237354
1580422715.24591,-1.69851224536507,0.466071564812694,0.485114824139771
1580422715.27801,-2.02127107652399,0.227786678873883,-0.825940337224385
1580422715.3101,-0.949965667200733,-0.133058670939192,-1.05641260395209
1580422715.3422,-0.933363851377127,0.249271381704432,-0.489509422446021
1580422715.37429,-0.554451819638361,0.0383306630045013,-0.715587090867475
1580422715.40638,-0.400152590218967,-0.581307698176547,-0.638437476157778
1580422715.43848,-0.570077058060578,-0.455329213397421,-0.629159990844586
1580422715.47057,-0.615976195925841,-0.356206607156482,-0.650644693675135
1580422715.50267,-0.943617914091707,0.0490730144197755,-0.513923857480735
1580422715.53476,-1.28786144808118,0.165774013885709,-0.414312962539102
1580422715.56686,-1.30836957351034,-0.135500114442664,-0.547615777828641
1580422715.59895,-0.907972838941024,-0.328374151216908,-0.727306019684137
1580422715.63105,-0.499275196459907,-0.255619134813459,-0.573495078965438
1580422715.66314,-0.84937819485771,-0.350835431448845,-0.677988860914015
1580422715.69524,-3.03544670786603,0.0715342946517126,0.938735027084764
1580422715.72733,-0.597909514000152,0.186770428015564,-0.625741969939726
1580422715.75942,-1.72536812390326,-0.123781185626001,-0.579842832074464
1580422715.79152,-0.98609903105211,-0.687266346227206,-0.600839246204318
1580422715.82361,-1.06813153276875,0.161867704280155,-0.692149233234149
1580422715.85571,-1.396749828336,0.730235751888305,-0.298588540474556
1580422715.8878,-0.917250324254216,-0.0925307087815668,-0.141359578850995
1580422715.9199,-1.03443961242084,-0.0588387884336612,-0.0949721522850382
1580422715.95199,-1.06080720225834,0.176028076600289,0.0559090562294955
1580422715.98409,-0.934340428778516,0.104737926298924,0.0168459601739528
1580422716.01618,-1.07643244068055,-0.0720225833524069,-0.0954604409857325
1580422716.0484,-1.02223239490349,0.203372243839169,0.245365072098878
1580422716.08049,-0.84254215304799,0.266849774929426,0.52906080720226
1580422716.11259,-0.964614328221561,0.2434119172961,0.620859082932785
1580422716.14469,-1.01979095140002,0.195071335927366,0.625741969939728
1580422716.17678,-1.21022354467079,0.044678416113527,0.58033112077516
1580422716.20887,-1.44216067750057,0.0695811398489354,0.762951094834822
1580422716.24097,-1.79177538719768,-0.0813000686655982,1.23317311360342
1580422716.27306,-1.73562218661784,0.316655222400243,0.337651636530097
1580422716.30516,-2.03640802624552,0.161379415579461,-0.99635309376669
1580422716.33726,-0.966079194323644,-0.0280766002899213,-1.03053330281529
1580422716.36935,-0.891371023117419,0.118410009918364,-0.486091401541161
1580422716.40144,-0.527107652399481,-0.00317387655451284,-0.676035706111238
1580422716.43354,-0.343022812237736,-0.444098573281453,-0.560799572747387
1580422716.46563,-0.503669794766155,-0.36401922636759,-0.543709468223087
1580422716.49773,-0.588143739986267,-0.308354314488442,-0.47681391622797
1580422716.52982,-0.861097123674373,-0.0417486839093613,-0.56226443884947
1580422716.56192,-1.28151369497215,0.0451667048142212,-0.327397573815519
1580422716.59401,-1.23414969100481,-0.123781185626001,-0.685801480125123
1580422716.62611,-1.28200198367285,-0.40503547722591,-0.487556267643244
1580422716.65821,-0.593514915693904,-0.261966887922485,-0.345464255741208
1580422716.6903,-0.697520408941786,-0.0314946211947813,-0.773693446250096
1580422716.72239,-1.58913557640955,0.0798352025635154,1.82839703974975
1580422716.75449,-0.469001297016861,0.0974135957885096,-0.172121766994735
1580422716.78658,-1.52175173571374,0.135011825741969,-0.580819409475852
1580422716.81868,-1.24440375371939,-0.498786907759213,-0.409430075532159
1580422716.85077,-0.80494392309453,-0.324467841611353,-0.567147325856412
1580422716.88287,-1.27272449835966,1.03443961242084,-0.414801251239796
1580422716.91496,-1.16969558251316,0.130617227435721,-0.209719996948195
1580422716.94706,-0.984634164950027,-0.427496757457847,-0.171145189593346
1580422716.97915,-1.05104142824445,0.127199206530861,-0.156984817273212
1580422717.01125,-1.01344319829099,0.242435339894712,-0.0251468680857556
1580422717.04334,-1.0295567254139,-0.123292896925307,-0.0969253070878153
1580422717.07544,-1.13600366216525,0.077393759060044,0.144777599755855
1580422717.10753,-0.725841153582055,0.39038681620508,0.510994125276572
1580422717.13963,-0.948012512397955,0.223392080567635,0.585214007782103
1580422717.17172,-0.973891813534753,0.227786678873883,0.670664530403602
1580422717.20382,-1.08522163729305,0.163820859082932,0.700938429846648
1580422717.23591,-1.33327229724575,0.0407721065079727,0.724376287479974
1580422717.26801,-1.83962767986572,-0.123781185626001,0.98609903105211
1580422717.3001,-1.73415732051575,0.096437018387121,0.593026626993211
1580422717.33234,-1.98562600137331,0.214602883955138,-0.568123903257801
1580422717.36443,-1.19557488364996,-0.0134279392690928,-1.23659113450828
1580422717.39653,-0.928969253070878,0.0715342946517126,-0.393804837109942
1580422717.42862,-0.642343785763332,0.192629892423895,-0.696055542839703
1580422717.46072,-0.364507515068285,-0.379156176089113,-0.713145647364003
1580422717.49281,-0.429938200961319,-0.420172426947433,-0.532967116807813
1580422717.52491,-0.491462577248798,-0.414801251239796,-0.617929350728618
1580422717.557,-0.746837567711909,-0.183352407110704,-0.550545510032807
1580422717.5891,-1.07057297627222,0.162355992980849,-0.39478141451133
1580422717.62119,-1.29225604638743,-0.0407721065079727,-0.669199664301518
1580422717.65329,-1.23512626840619,-0.294193942168308,-0.324956130312048
1580422717.68539,-0.670176241702906,-0.149172198062104,-0.591561760891127
1580422717.71748,-0.598397802700847,0.108644235904478,-0.661387045090409
1580422717.74958,-1.32301823453117,0.299076829175249,0.447028305485617
1580422717.78167,-1.414328221561,0.150148775463492,-0.235599298084992
1580422717.81377,-1.32301823453117,0.11792172121767,-0.519295033188373
1580422717.84586,-1.31764705882353,-0.113038834210727,-0.481208514534218
1580422717.87796,-0.788830395971619,-0.625741969939726,-0.492927443350881
1580422717.91005,-1.22145418478675,0.482185091935605,-0.535896849011978
1580422717.94215,-1.34792095826658,0.45191119249256,-0.184328984512092
1580422717.97424,-0.836194399938964,-0.159914549477378,-0.187258716716258
1580422718.00634,-1.05494773785,-0.0729991607537954,-0.0490730144197755
1580422718.03844,-0.990981918059052,0.30151827267872,0.067139696345464
1580422718.07053,-0.990981918059052,0.0456549935149155,-0.0207522697795071
1580422718.10263,-1.1750667582208,-0.0461432822156098,-0.0383306630045013
1580422718.13472,-0.899183642328527,0.302983138780803,0.448004882887005
1580422718.16682,-0.767833981841765,0.199465934233615,0.600350957503625
1580422718.19891,-1.1062180514229,0.146730754558632,0.591073472190434
1580422718.23101,-1.10572976272221,0.201907377737086,0.532967116807814
1580422718.2631,-1.28297856107424,0.0354009308003356,0.53247882810712
1580422718.2952,-1.69314106965743,-0.0197756923781185,0.932387273975738
1580422718.32729,-1.61745632104982,-0.0109864957656214,1.13551537346456
1580422718.35939,-1.87087815671016,0.673594262607768,-0.185793850614175
1580422718.39148,-1.54811932555123,0.290287632562752,-0.482673380636301
1580422718.42358,-1.00221255817502,-0.10424963759823,-0.581307698176547
1580422718.45568,-0.885023270008393,0.0168459601739528,-0.579842832074464
1580422718.48777,-0.451911192492561,-0.189211871519035,-0.56568245975433
1580422718.51987,-0.479743648432136,-0.363530937666896,-0.526131074998093
1580422718.55196,-0.573495078965438,-0.399176012817579,-0.567147325856412
1580422718.58406,-0.672617685206378,-0.379644464789807,-0.652597848477912
1580422718.61621,-0.980727855344472,-0.138918135347524,-0.435309376668956
1580422718.64831,-1.29079118028534,0.251712825207903,-0.505134660868238
1580422718.6804,-1.27565423056382,-0.221927214465552,-0.508552681773098
1580422718.7125,-0.734142061493857,-0.422613870450904,-0.803967345693142
1580422718.74459,-0.607186999313344,0.00805676356145568,-0.810315098802167
1580422718.77669,-1.15016403448539,0.191653315022506,0.317143511100937
1580422718.80879,-1.85915922789349,0.39038681620508,-0.0222171358815899
1580422718.84088,-1.17848477912566,0.247806515602349,-0.499763485160601
1580422718.87298,-1.54860761425193,-0.518806744487678,-0.276615548943314
1580422718.90507,-0.982192721446555,-0.23657587548638,-0.620859082932784
1580422718.93717,-1.1067063401236,0.636972610055697,-0.710704203860532
1580422718.96927,-1.33571374074922,0.222903791866941,-0.239017318989852
1580422719.00136,-0.920180056458381,-0.281498435950256,-0.0441901274128327
1580422719.03346,-1.04908827344167,-0.00903334096284425,-0.0612802319371326
1580422719.06555,-0.975356679636835,0.143312733653772,-0.0139162279697871
1580422719.09765,-1.01441977569238,0.110597390707255,-0.136476691844052
1580422719.12975,-1.13746852826734,0.0539559014267184,0.0559090562294955
1580422719.16184,-0.758068207827879,0.30151827267872,0.564705882352943
1580422719.19394,-0.786877241168842,0.166262302586404,0.61451132982376
1580422719.22603,-1.20827038986801,0.0690928511482412,0.568123903257803
1580422719.25813,-1.12819104295415,0.183840695811398,0.535408560311286
1580422719.29023,-1.28102540627146,0.0681162737468526,0.733653772793165
1580422719.32232,-1.74685282673381,0.0666514076447697,1.18190280003052
1580422719.35442,-1.81960784313726,0.210696574349583,0.693614099336234
1580422719.38651,-1.94314488441291,0.29126420996414,-0.274662394140536
1580422719.41861,-1.12135500114443,0.145265888456549,-1.08668650339513
1580422719.4507,-0.996841382467384,0.0485847257190812,-0.307377737087053
1580422719.4828,-0.771252002746625,0.168215457389181,-0.725841153582055
1580422719.5149,-0.470954451819638,-0.557381551842527,-0.625741969939726
1580422719.54699,-0.717540245670252,-0.611093308918898,-0.455329213397421
1580422719.57909,-0.570077058060578,-0.602792401007095,-0.580819409475852
1580422719.61118,-0.782970931563288,-0.261478599221791,-0.653086137178606
1580422719.64328,-1.11744869153887,0.25366598001068,-0.420660715648127
1580422719.67538,-0.99635309376669,-0.0959487296864268,-0.939711604486153
1580422719.70747,-1.11403067063401,-0.730724040588997,-0.765392538338293
1580422719.73957,-0.494880598153658,-0.0783703364614325,-0.748790722514686
1580422719.77166,-1.02662699320974,-0.0729991607537954,-0.631113145647364
1580422719.80376,-2.33377584496834,0.295658808270389,0.225833524071106
1580422719.83586,-1.30055695429923,0.293217364766917,-0.373785000381476
1580422719.86795,-1.40358587014572,-0.658945601586938,-0.625253681239032
1580422719.90018,-0.866956588082704,-0.36401922636759,-0.722423132677195
1580422719.93227,-1.18971541924163,0.616952773327231,-0.591073472190432
1580422719.96437,-1.35133897917144,0.377203021286334,-0.218509193560692
1580422719.99646,-0.976333257038224,-0.272709239337759,-0.139894712748912
1580422720.02856,-1.04811169604028,0.0837415121690697,-0.0588387884336612
1580422720.06066,-1.01539635309377,0.152590218966964,0.0759288929579611
1580422720.09275,-0.938735027084764,0.00854505226214997,0.0383306630045013
1580422720.12485,-1.02272068360418,0.0368657969024184,-0.0803234912642097
1580422720.15694,-1.00709544518196,0.0949721522850382,0.162355992980849
1580422720.18904,-0.912367437247273,0.212649729152361,0.330327306019683
1580422720.22114,-0.892347600518807,0.257572289616235,0.586678873884185
1580422720.25323,-0.952895399404898,0.200930800335698,0.719005111772336
1580422720.28533,-1.22096589608606,0.0100099183642328,0.688242923628597
1580422720.31742,-1.52663462272068,0.0520027466239412,0.898695353627833
1580422720.34952,-1.89724574654765,-0.0788586251621268,1.17946135652705
1580422720.38161,-1.77419699397269,0.351812008850231,0.129152361333638
1580422720.41371,-2.00466926070039,0.413824673838405,-0.963149462119478
1580422720.44581,-0.943129625391013,-0.0876478217746239,-0.619394216830701
1580422720.4779,-0.870862897688259,0.044678416113527,-0.650644693675135
1580422720.51,-0.479743648432136,-0.125246051728084,-0.6877546349279
1580422720.54209,-0.354253452353705,-0.457282368200199,-0.582284275577935
1580422720.57419,-0.439703974975204,-0.378179598687725,-0.530525673304341
1580422720.60629,-0.515877012283513,-0.245853360799572,-0.492439154650187
1580422720.63838,-0.788830395971619,-0.0407721065079727,-0.562752727550164
1580422720.67048,-1.31032272831312,-0.0124513618677042,-0.381597619592585
1580422720.70257,-1.28297856107424,-0.177004654001678,-0.605233844510566
1580422720.73467,-1.1408865491722,-0.163332570382238,-0.409918364232853
1580422720.76677,-0.529060807202258,-0.437262531471733,-0.116456855115587
1580422720.79886,-0.723399710078583,0.034424353398947,-0.645273517967498
1580422720.83096,-1.81911955443656,0.254154268711375,1.80349431601434
1580422720.86305,-0.400152590218967,-0.397711146715496,-0.119874876020447
1580422720.89515,-1.48610666056306,-0.250247959105822,-0.793713282978562
1580422720.92725,-1.23073167009995,-0.157961394674601,-0.641855497062638
1580422720.95934,-0.952407110704204,-0.292729076066225,-0.56568245975433
1580422720.99144,-1.29030289158465,0.769787136644542,-0.513923857480735
1580422721.02353,-1.17994964522774,0.250736247806515,-0.215091172655832
1580422721.05563,-0.953383688105593,-0.232181277180132,-0.143312733653772
1580422721.08772,-1.05104142824445,0.0734874494544897,-0.0617685206378269
1580422721.11982,-0.974380102235447,0.209231708247501,0.0422369726100555
1580422721.15192,-0.947524223697261,-0.0144045166704814,-0.0427252613107498
1580422721.18411,-1.14137483787289,0.0842298008697639,0.167238879987792
1580422721.21621,-0.806897077897307,0.265384908827343,0.391363393606468
1580422721.2483,-0.936293583581293,0.256595712214846,0.543221179522394
1580422721.2804,-0.964614328221561,0.249271381704432,0.675059128709851
1580422721.3125,-1.13893339436942,-0.00659189745937283,0.731700617990388
1580422721.34459,-1.3542687113756,-0.027588311589227,0.814221408407722
1580422721.37669,-1.85378805218586,0.024170290684367,1.13307392996109
1580422721.40879,-1.76150148775464,0.0881361104753182,0.367925535973143
1580422721.44088,-2.12381170366979,0.225345235370412,-1.04176394293126
1580422721.47298,-1.06129549095903,-0.129152361333638,-1.16725413900969
1580422721.50508,-0.895765621423667,-0.024170290684367,-0.513923857480735
1580422721.53717,-0.572518501564049,0.0354009308003356,-0.606210421911955
1580422721.56927,-0.293217364766919,-0.326909285114825,-0.631601434348058
1580422721.60136,-0.471442740520333,-0.371831845578699,-0.500251773861295
1580422721.63346,-0.54517433432517,-0.390875104905776,-0.48023193713283
1580422721.66556,-0.79127183947509,-0.187747005416952,-0.489997711146716
1580422721.69765,-1.14186312657359,0.0783703364614325,-0.178469520103761
1580422721.72975,-1.29323262378882,-0.0852063782711525,-0.426031891355764
1580422721.76185,-1.30251010910201,-0.0959487296864268,-0.203860532539863
1580422721.79394,-0.612558175020981,-0.379156176089113,-0.51783016708629
1580422721.82604,-0.547615777828641,0.346440833142594,-0.756115053025102
1580422721.85814,-1.29860379949645,0.282963302052337,0.461676966506445
1580422721.89023,-1.36110475318532,0.181887541008621,-0.285893034256505
1580422721.92233,-1.18287937743191,0.30835431448844,-0.611581597619592
1580422721.95442,-1.62282749675746,-0.400640878919662,-0.481208514534218
1580422721.98652,-0.903578240634776,-0.455817502098116,-0.536873426413367
1580422722.01862,-1.16432440680552,0.53589684901198,-0.573983367666132
1580422722.05071,-1.37819485770962,0.302494850080109,-0.163820859082932
1580422722.08281,-0.896253910124361,-0.293705653467613,-0.0349126420996413
1580422722.11491,-1.03688105592432,0.138429846646829,-0.0451667048142212
1580422722.147,-0.969985503929198,0.2605020218204,0.116945143816281
1580422722.1791,-0.920180056458381,0.070557717250324,-0.0261234454871442
1580422722.2112,-1.14674601358053,0.128175783932249,-0.00512703135728998
1580422722.24329,-0.966567483024338,0.0554207675288012,0.349858854047454
1580422722.27539,-0.900160219729916,0.242435339894712,0.435309376668954
1580422722.30749,-0.903089951934081,0.199954222934309,0.547127489127949
1580422722.33958,-1.0554360265507,0.112550545510032,0.689219501029985
1580422722.37168,-1.2600289921416,0.100343327992675,0.752697032120242
1580422722.40377,-1.44557869840543,0.0910658426794839,0.958266575112535
1580422722.43587,-1.8674601358053,-0.175539787899595,1.08131532768749
1580422722.46805,-1.71218432898451,0.53247882810712,0.0139162279697871
1580422722.50014,-1.92605477988861,0.510505836575877,-0.639902342259861
1580422722.53224,-1.0036774242771,-0.0524910353246355,-0.655527580682078
1580422722.56434,-0.905043106736859,0.0700694285496297,-0.727794308384832
1580422722.59643,-0.431891355764096,-0.174074921797512,-0.683848325322346
1580422722.62853,-0.303959716182193,-0.455817502098116,-0.580819409475852
1580422722.66063,-0.445075150682841,-0.404058899824522,-0.547127489127947
1580422722.69272,-0.554451819638361,-0.196536202029449,-0.600839246204318
1580422722.72482,-0.938735027084764,0.0959487296864268,-0.491950865949493
1580422722.75691,-1.32399481193256,-0.0202639810788128,-0.549568932631418
1580422722.78901,-1.37087052719921,-0.250247959105822,-0.519783321889067
1580422722.82111,-0.887953002212559,-0.125246051728084,-0.814221408407722
1580422722.8532,-0.647226672770275,-0.261478599221791,-0.537361715114061
1580422722.8853,-0.834241245136187,-0.351323720149539,-0.83228809033341
1580422722.9174,-2.85038529030289,-0.00805676356145568,1.01979095140002
1580422722.94949,-0.485114824139773,0.041260395208667,-0.725841153582055
1580422722.98159,-1.78005645838102,0.178469520103761,-0.43237964446479
1580422723.01369,-0.971450370031281,-0.868909742885482,-0.52124818799115
1580422723.04578,-0.985122453650721,-0.0217288471808956,-0.806897077897307
1580422723.07788,-1.45094987411307,1.04127565423056,-0.245853360799572
1580422723.10997,-0.974380102235447,-0.211184863050278,-0.182864118410009
1580422723.14207,-0.99977111467155,-0.219974059662775,-0.131105516136415
1580422723.17417,-1.05104142824445,0.396246280613411,0.00659189745937283
1580422723.20626,-1.03736934462501,0.123781185626001,-0.0178225375753414
1580422723.23836,-1.04762340733959,-0.143312733653772,-0.122316319523918
1580422723.27046,-1.04371709773404,0.228763256275272,0.262455176623178
1580422723.30255,-0.741466392004272,0.316655222400243,0.515877012283514
1580422723.33465,-0.910414282444496,0.111573968108644,0.53931486991684
1580422723.36675,-1.04029907682918,0.266361486228732,0.619882505531397
1580422723.39884,-1.18971541924163,0.0700694285496297,0.706309605554285
1580422723.43094,-1.44069581139849,0.0368657969024184,0.734630350194553
1580422723.46304,-1.83669794766156,-0.0622568093385212,1.27858396276799
1580422723.49513,-1.7131609063859,0.228274967574578,0.43823910887312
1580422723.52723,-2.11795223926146,0.364507515068283,-0.891371023117419
1580422723.55932,-1.02174410620279,0.0568856336308841,-1.35866330968185
1580422723.59142,-1.03053330281529,0.0222171358815899,-0.539314869916838
1580422723.62352,-0.556404974441138,-0.0075684748607614,-0.823987182421607
1580422723.65561,-0.347417410543985,-0.533943694209201,-0.614999618524452
1580422723.68771,-0.382574196993973,-0.347417410543985,-0.534431982909895
1580422723.71981,-0.470466163118944,-0.322026398107882,-0.617441062027924
1580422723.75201,-0.820080872816053,-0.216067750057221,-0.56910048065919
1580422723.78411,-1.30446326390478,0.0754406042572668,-0.37085526817731
1580422723.81621,-1.29665064469368,-0.0690928511482412,-0.608163576714732
1580422723.8483,-1.0466468299382,-0.546639200427252,-0.695078965438315
1580422723.8804,-0.74927901121538,-0.44605172808423,-0.342046234836348
1580422723.9125,-0.680430304417486,0.0407721065079727,-0.800061036087587
1580422723.94459,-2.24930189974823,-0.0642099641412983,1.76589608606088
1580422723.97669,-0.204348821240558,-0.289311055161365,-0.306401159685665
1580422724.00879,-1.38307774471656,-0.0354009308003356,-0.797619592584116
1580422724.04089,-1.25416952773327,-0.00561532005798426,-0.257572289616236
1580422724.07298,-1.02516212710765,-0.455329213397421,-0.379156176089113
1580422724.10508,-1.27907225146868,0.730235751888305,-0.369390402075227
1580422724.13718,-1.06080720225834,0.295170519569695,-0.181887541008621
1580422724.16927,-0.941176470588236,-0.35718318455787,-0.0788586251621268
1580422724.20137,-1.0808270389868,-0.0485847257190812,-0.0939955748836496
1580422724.23347,-0.977798123140307,0.30493629358358,-0.0451667048142212
1580422724.26556,-1.10231174181735,-0.0651865415426869,-0.155031662470435
1580422724.29766,-1.02906843671321,0.0256351567864499,0.238040741588463
1580422724.32976,-0.731212329289692,0.369390402075226,0.515877012283514
1580422724.36185,-0.94508278019379,0.234134431982909,0.574471656366828
1580422724.39395,-1.0808270389868,0.200930800335698,0.593514915693905
1580422724.42605,-1.08326848249027,0.0622568093385212,0.698496986343176
1580422724.45814,-1.56911573968109,-0.0622568093385212,0.676035706111239
1580422724.49024,-1.87234302281224,-0.0505378805218584,1.24440375371939
1580422724.52234,-1.77907988097963,0.322514686808574,0.596932936598765
1580422724.55444,-2.19559014267185,0.282475013351643,-1.20192263675898
1580422724.58653,-1.03590447852293,-0.115480277714198,-1.20436408026245
1580422724.61863,-0.940688181887541,-0.0676279850461583,-0.595468070496681
1580422724.65073,-0.466071564812696,0.0466315709163041,-0.584725719081407
1580422724.68282,-0.283451590753033,-0.361089494163425,-0.543221179522392
1580422724.71492,-0.411383230334936,-0.40161745632105,-0.467048142214084
1580422724.74702,-0.491950865949493,-0.457770656900893,-0.55884641794461
1580422724.77911,-0.812268253604945,-0.177981231403066,-0.612558175020981
1580422724.81121,-1.33327229724575,0.220950637064163,-0.396246280613413
1580422724.84331,-1.30006866559854,-0.0300297550926985,-0.760997940032045
1580422724.8754,-1.18629739833677,-0.606210421911955,-0.603280689707789
1580422724.9075,-0.68433661402304,-0.273685816739148,-0.169680323491264
1580422724.9396,-0.756115053025102,-0.150148775463492,-0.674570840009155
1580422724.97169,-1.37282368200198,0.575936522468911,1.11793698023957
1580422725.00379,-0.732677195391775,0.314702067597466,-0.400640878919662
1580422725.03595,-1.40944533455406,-0.228274967574578,-0.644785229266803
1580422725.06805,-1.54177157244221,-0.419684138246739,-0.0813000686655982
1580422725.10014,-0.584237430380712,-0.289311055161365,-0.536873426413367
1580422725.13224,-1.27663080796521,0.806897077897307,-0.529060807202258
1580422725.16434,-1.23219653620203,0.108644235904478,-0.232181277180132
1580422725.19643,-0.928480964370184,-0.389898527504387,-0.0939955748836496
1580422725.22853,-1.0637369344625,0.190676737621118,-0.00268558785381856
1580422725.26063,-0.962661173418784,0.272709239337757,0.0227054245822842
1580422725.29272,-1.03688105592432,-0.146730754558632,-0.127199206530861
