Timestamp_seconds,Accel_X_g,Accel_Y_g,Accel_Z_g
1580422672.2577,-0.971938658731975,-0.185793850614175,-0.200442511635003
1580422672.28991,-0.974380102235447,-0.186282139314869,-0.167238879987792
1580422672.32213,-0.978774700541695,-0.172610055695429,-0.177004654001678
1580422672.35434,-0.985122453650721,-0.144777599755855,-0.184817273212786
1580422672.38655,-0.988540474555581,-0.146730754558632,-0.177981231403066
1580422672.41876,-0.984634164950027,-0.152101930266269,-0.175539787899595
1580422672.45097,-0.97926298924239,-0.154055085069047,-0.187258716716258
1580422672.48318,-0.973891813534753,-0.159914549477378,-0.205813687342641
1580422672.51539,-0.977309834439613,-0.149660486762798,-0.209719996948195
1580422672.5476,-0.989028763256275,-0.140383001449607,-0.218997482261386
1580422672.57981,-0.990493629358358,-0.128175783932249,-0.246341649500266
1580422672.61202,-0.99293507286183,-0.150637064164187,-0.226321812771801
1580422672.64423,-0.990005340657664,-0.179446097505149,-0.256595712214848
1580422672.67645,-0.962661173418784,-0.181887541008621,-0.266361486228734
1580422672.70865,-0.949477378500038,-0.173098344396124,-0.289799343862059
1580422672.74087,-0.944106202792401,-0.157473105973907,-0.288822766460671
1580422672.77308,-0.957289997711147,-0.168215457389181,-0.307377737087053
1580422672.80529,-0.973891813534753,-0.161379415579461,-0.281498435950256
1580422672.8375,-0.997329671168078,-0.172121766994735,-0.270756084534982
1580422672.86971,-0.978774700541695,-0.180910963607232,-0.297123674372473
1580422672.90192,-0.974868390936141,-0.167238879987792,-0.311284046692608
1580422672.93413,-0.967055771725033,-0.147707331960021,-0.302983138780805
1580422672.96634,-0.954360265506981,-0.137941557946135,-0.310307469291219
1580422672.99855,-0.953383688105593,-0.129152361333638,-0.303959716182193
1580422673.03076,-0.957289997711147,-0.148683909361409,-0.288822766460671
1580422673.06297,-0.960708018616007,-0.124269474326695,-0.281986724650951
1580422673.09519,-0.97242694743267,-0.139894712748912,-0.245853360799572
1580422673.1274,-0.973403524834058,-0.151613641565575,-0.238529030289158
1580422673.15961,-0.964614328221561,-0.132082093537804,-0.24682993820096
1580422673.19182,-0.983169298847944,-0.152590218966964,-0.201907377737086
1580422673.22403,-1.0041657129778,-0.149172198062104,-0.193118181124589
1580422673.25624,-1.00611886778058,-0.132570382238498,-0.172610055695429
1580422673.28845,-0.99293507286183,-0.166262302586404,-0.131593804837109
1580422673.32066,-1.01344319829099,-0.187258716716258,-0.0969253070878153
1580422673.35287,-1.02418554970626,-0.185793850614175,-0.0935072861829553
1580422673.38508,-0.923109788662547,-0.171145189593346,-0.128175783932249
1580422673.41729,-0.929945830472267,-0.122316319523918,-0.144289311055161
1580422673.44955,-1.01197833218891,-0.131593804837109,-0.0715342946517126
1580422673.48177,-0.976821545738918,-0.239505607690546,-0.00561532005798426
1580422673.51398,-0.915785458152133,-0.234622720683603,-0.00903334096284425
1580422673.54619,-1.00514229037919,-0.140383001449607,-0.0539559014267184
1580422673.5784,-1.03883421072709,-0.131105516136415,-0.0388189517051956
1580422673.61061,-1.01734950789654,-0.168215457389181,0.0100099183642328
1580422673.64282,-0.98951705195697,-0.157473105973907,0.00219729915312428
1580422673.67503,-0.963149462119478,-0.158449683375295,-0.031006332494087
1580422673.70724,-0.977798123140307,-0.206301976043335,-0.0598153658350498
1580422673.73946,-0.981216144045167,-0.237064164187075,-0.00317387655451284
1580422673.77167,-0.990005340657664,-0.279545281147479,0.0104982070649271
1580422673.80388,-1.00318913557641,-0.246341649500266,0.00268558785381856
1580422673.83609,-0.956313420309758,-0.195071335927366,-0.0803234912642097
1580422673.8683,-0.983169298847944,-0.125734340428778,-0.00512703135728998
1580422673.90051,-1.00807202258335,-0.122804608224612,0.0134279392690928
1580422673.93272,-1.04615854123751,-0.169192034790569,0.0427252613107498
1580422673.96493,-0.966079194323644,-0.182864118410009,0.0163576714732585
1580422673.99715,-0.964126039520867,-0.155031662470435,-0.00805676356145568
1580422674.02936,-1.00025940337224,-0.143312733653772,-0.00854505226214997
1580422674.06157,-1.00123598077363,-0.117433432516975,-0.0407721065079727
1580422674.09378,-0.988540474555581,-0.143801022354467,-0.0373540856031127
1580422674.12599,-1.03199816891737,-0.183352407110704,-0.0109864957656214
1580422674.1582,-1.21315327687495,-0.145754177157244,0.0573739223315783
1580422674.19041,-1.20680552376593,-0.117433432516975,0.0925307087815668
1580422674.22263,-1.21217669947356,0.0832532234683754,0.0314946211947813
1580422674.25484,-1.32594796673533,0.128175783932249,0.0578622110322726
1580422674.28705,-1.23805600061036,-0.10083161669337,0.178957808804455
1580422674.31926,-1.27028305485618,-0.323491264209965,0.40064087891966
1580422674.35147,-0.795666437781339,-0.328862439917602,0.0495613031204698
1580422674.38368,-0.847425040054933,-0.0114747844663157,0.112062256809338
1580422674.41589,-0.760509651331351,-0.0749523155565726,0.146242465857938
1580422674.4481,-0.69800869764248,-0.10083161669337,0.200442511635003
1580422674.48032,-0.585214007782101,-0.0935072861829553,0.392828259708551
1580422674.51253,-0.611093308918898,-0.372808422980087,0.488532845044631
1580422674.54474,-0.572030212863355,-0.611093308918898,0.686778057526514
1580422674.57695,-0.672617685206378,-0.599862668802929,0.662363622491799
1580422674.60916,-0.848401617456322,-0.365484092469673,0.555916685740446
1580422674.64137,-0.865491721980622,-0.272220950637065,0.490974288548102
1580422674.67358,-0.710704203860532,-0.270756084534982,0.567635614557108
1580422674.70579,-0.644296940566109,-0.34692912184329,0.45874723430228
1580422674.73804,-0.648203250171663,-0.444586861982147,0.36646066987106
1580422674.77025,-0.973403524834058,-0.275150682841231,0.489021133745325
1580422674.80246,-1.43239490348669,-0.108155947203784,0.458258945601585
1580422674.83467,-1.02467383840696,-0.0168459601739528,0.500251773861297
1580422674.86688,-0.650156404974441,0.115480277714198,0.544197756923783
1580422674.89909,-0.683848325322346,0.321049820706492,0.419195849546043
1580422674.9313,-1.07154955367361,0.179446097505149,0.296635385671777
1580422674.96352,-0.995864805065995,-0.260990310521096,0.494880598153657
1580422674.99573,-0.600839246204318,-0.608163576714732,0.614023041123065
1580422675.02794,-0.368902113374533,-0.232669565880826,-0.289311055161365
1580422675.06015,-1.56179140917067,0.666758220798048,0.223880369268329
1580422675.09236,-2.38992904554818,0.141359578850995,1.58229953459983
1580422675.12457,-0.272220950637065,0.145754177157244,-0.00659189745937283
1580422675.15678,-0.431891355764096,-0.00512703135728998,0.0886243991760125
1580422675.18899,-1.58181124589914,0.749767299916076,-0.0959487296864268
1580422675.22121,-0.857190814068819,-0.024170290684367,0.150637064164187
1580422675.25342,-0.773693446250096,-0.330327306019685,0.166750591287098
1580422675.28563,-1.00318913557641,0.0236820019836728,0.156496528572518
1580422675.31784,-0.824963759822996,0.337651636530097,0.031006332494087
1580422675.35005,-1.0300450141146,-0.00317387655451284,-0.0925307087815668
1580422675.38226,-0.913832303349356,0.0642099641412983,0.187747005416952
1580422675.41447,-0.88355840390631,0.144777599755855,0.44165712977798
1580422675.44668,-1.19752803845273,0.466071564812694,0.342046234836346
1580422675.4789,-1.51784542610819,-0.0769054703593497,0.520759899290457
1580422675.51111,-1.5764400701915,0.00854505226214997,0.569100480659191
1580422675.54332,-1.508567940795,0.12475776302739,0.575448233768217
1580422675.57553,-1.35133897917144,0.40405889982452,0.0915541313801782
1580422675.60774,-1.61306172274357,0.115968566414892,-0.625253681239032
1580422675.63995,-1.92117189288167,0.412848096437017,0.344975967040511
1580422675.67216,-1.73318074311437,-0.0803234912642097,0.0354009308003356
1580422675.70438,-1.16920729381247,-0.0720225833524069,-0.0539559014267184
1580422675.73659,-0.91090257114519,0.156496528572518,-0.299076829175251
1580422675.7688,-0.470466163118944,0.266361486228732,-0.283451590753033
1580422675.80101,0.132082093537804,-0.0749523155565726,-0.292729076066225
1580422675.83322,0.251224536507209,-0.0187991149767299,-1.94851606012055
1580422675.86543,-0.520271610589761,-0.719493400473029,1.43434805828946
1580422675.89764,-1.24538033112077,-1.09156939040207,0.670664530403602
1580422675.92985,-1.07985046158541,-0.196536202029449,1.10231174181735
1580422675.96207,-0.501716639963378,0.3117723353933,0.459235523002974
1580422675.99428,-1.17262531471733,0.0974135957885096,0.572518501564051
1580422676.02646,-1.92703135729,0.319096665903714,0.813733119707027
1580422676.05867,-0.896742198825056,0.0319829098954756,0.0476081483176927
1580422676.09088,-0.537361715114061,-0.164797436484321,-0.0393072404058898
1580422676.12309,-1.39479667353323,0.708262760357062,-0.151125352864881
1580422676.1553,-1.1150072480354,0.561287861448083,0.0402838178072784
1580422676.18752,-0.843518730449379,0.0876478217746239,0.0515144579232469
1580422676.21973,-0.963637750820173,-0.137941557946135,0.0813000686655982
1580422676.25194,-0.82545204852369,-0.0417486839093613,0.196536202029449
1580422676.28415,-0.707774471656366,0.199465934233615,0.0793469138628211
1580422676.31636,-0.77076371404593,0.454352635996031,0.0690928511482412
1580422676.34857,-0.91090257114519,0.402105745021743,0.01196307316701
1580422676.38078,-1.13600366216525,0.180422674906538,0.311284046692606
1580422676.41299,-1.30543984130617,-0.226810101472495,0.239017318989852
1580422676.4452,-1.3884489204242,-0.0588387884336612,0.171633478294041
1580422676.47742,-1.41725795376516,0.30493629358358,0.259525444419012
1580422676.50963,-1.56667429617761,0.357183184557869,0.450446326390477
1580422676.54184,-1.18629739833677,0.212161440451666,0.266849774929426
1580422676.57405,-1.62136263065537,0.159426260776684,-0.647714961470969
1580422676.60626,-1.47341115434501,0.152101930266269,-0.508064393072404
1580422676.63847,-1.67946898603799,0.136964980544747,0.044678416113527
1580422676.67068,-1.34889753566796,-0.313237201495385,0.0383306630045013
1580422676.7029,-1.15504692149233,0.0954604409857325,-0.190188448920424
1580422676.73511,-0.803967345693142,0.254642557412069,-0.214114595254443
1580422676.76732,-0.371343556878005,0.194583047226672,-0.114991989013504
1580422676.79953,-0.155519951171129,0.144777599755855,-0.423590447852293
1580422676.83174,-0.0915541313801782,0.275150682841229,-0.630624856946669
1580422676.86395,-0.491950865949493,-0.185305561913481,0.732188906691082
1580422676.89616,-1.07985046158541,-0.908949416342413,1.6706797894255
1580422676.92838,-1.0896162355993,-0.154055085069047,1.45241474021515
1580422676.96059,-0.911879148546578,-0.223880369268329,0.231204699778743
1580422676.9928,-1.07692072938125,0.186770428015564,0.821057450217442
1580422677.02501,-1.42116426337072,0.0842298008697639,0.918226901655604
1580422677.05722,-1.38503089951934,0.548104066529337,-0.0271000228885327
1580422677.08943,-0.635507743953612,-0.131105516136415,-0.254154268711376
1580422677.12164,-1.23414969100481,0.668711375600825,-0.0949721522850382
1580422677.15385,-1.24489204242008,0.328374151216906,0.113527122911421
1580422677.18606,-0.752208743419548,0.119874876020447,0.10083161669337
1580422677.21828,-0.891859311818113,-0.0417486839093613,0.0725108720531011
1580422677.25049,-1.34743266956588,1.12623788815137,0.247318226901655
1580422677.2827,-0.791760128175785,0.136964980544747,0.155519951171129
1580422677.31491,-0.765880827038988,0.261966887922483,-0.00317387655451284
1580422677.34712,-0.855725947966736,0.204348821240558,-0.0979018844892039
1580422677.37933,-0.930922407873656,0.188235294117646,0.0632333867399097
1580422677.41154,-1.27174792095827,0.136964980544747,0.241458762493323
1580422677.44376,-1.42507057297627,0.0686045624475469,0.237064164187075
1580422677.47597,-1.39235523002976,0.139894712748912,0.0598153658350498
1580422677.50818,-1.4309300373846,0.580819409475854,0.286381322957197
1580422677.54039,-1.27174792095827,0.340581368734263,0.3972228580148
1580422677.5726,-1.29860379949645,-0.0212405584802013,-0.00610360875867855
1580422677.60481,-1.57106889448386,-0.231204699778743,-0.546150911726558
1580422677.63702,-1.72878614480812,0.584725719081408,-0.306889448386359
1580422677.66923,-1.60671396963455,-0.00952162966353853,0.0334477759975584
1580422677.70145,-1.30202182040131,-0.12475776302739,-0.0910658426794839
1580422677.73366,-1.04225223163195,0.138429846646829,-0.205813687342641
1580422677.76587,-0.610116731517509,0.23999389639124,-0.156984817273212
1580422677.79808,-0.281498435950256,0.114991989013504,-0.226321812771801
1580422677.83029,-0.0539559014267184,0.163820859082932,-0.564705882352941
1580422677.8625,-0.109620813305867,0.206301976043335,-1.09547570000763
1580422677.89471,-0.512458991378653,-0.557381551842527,1.24489204242008
1580422677.92692,-1.43923094529641,-1.13795681696803,1.23024338139925
1580422677.95914,-1.14235141527428,-0.178957808804455,0.731700617990388
1580422677.99135,-0.67750057221332,-0.199465934233615,0.287357900358586
1580422678.02356,-0.992446784161135,0.0280766002899213,0.58374914168002
1580422678.05577,-1.79372854200046,1.0471351186389,0.764904249637599
1580422678.08798,-0.906996261539636,0.273197528038452,-0.124269474326695
1580422678.12019,-0.413824673838407,-0.411383230334936,-0.373785000381476
1580422678.1524,-1.50661478599222,0.478767071030745,0.00805676356145568
1580422678.18462,-1.17116044861524,0.127687495231555,0.0925307087815668
1580422678.21683,-0.763439383535516,0.0485847257190812,0.0285648889906156
1580422678.24904,-0.960708018616007,0.155519951171129,-0.0207522697795071
1580422678.28125,-0.798596169985505,0.456794079499502,0.0900892652780954
1580422678.31346,-0.73218890669108,0.301029983978026,0.0656748302433812
1580422678.34567,-0.814709697108416,0.307866025787746,-0.0886243991760125
1580422678.37788,-0.965102616922255,0.0471198596169984,0.0305180437933927
1580422678.41009,-1.1403982604715,-0.181887541008621,0.279545281147477
1580422678.44231,-1.33913176165408,0.109620813305867,0.331303883421072
1580422678.47452,-1.34059662775616,0.344975967040511,0.0700694285496297
1580422678.50673,-1.4138399328603,0.462653543907834,0.126710917830167
1580422678.53894,-1.55886167696651,0.307866025787746,0.310795757991912
1580422678.57115,-1.29518577859159,0.00610360875867855,0.464606698710611
1580422678.60336,-1.30983443961242,-0.024170290684367,-0.694102388036926
1580422678.63557,-1.49538414587625,0.40405889982452,-0.458258945601587
1580422678.66778,-1.82497901884489,0.210696574349583,0.077393759060044
1580422678.7,-1.53737697413596,-0.234622720683603,0.0271000228885327
1580422678.73221,-1.28200198367285,0.0500495918211641,-0.170168612191958
1580422678.76442,-0.758556496528573,0.169680323491264,-0.199954222934309
1580422678.79663,-0.416754406042573,0.111573968108644,-0.183352407110704
1580422678.82884,-0.128664072632944,0.077393759060044,-0.50074006256199
1580422678.86105,0.027588311589227,0.322514686808574,-0.473884184023804
1580422678.89326,-0.637949187457084,-0.01196307316701,0.469977874418248
1580422678.92548,-1.21852445258259,-1.09010452429999,2.04275577935454
1580422678.95769,-1.07350270847639,-0.0109864957656214,1.60524910353246
1580422678.9899,-0.582284275577935,-0.0295414663920042,0.00415045395590141
1580422679.02211,-1.08229190508888,-0.202395666437781,0.846448462653544
1580422679.05432,-1.65651941710536,-0.178957808804455,1.15407034409094
1580422679.08653,-0.854749370565347,0.578866254673077,-0.309819180590525
1580422679.11874,-0.517341878385595,0.230228122377355,0.133546959639887
1580422679.15095,-1.38600747692073,0.676035706111239,-0.147219043259327
1580422679.18317,-1.16774242771038,0.398687724116883,0.126222629129472
1580422679.21538,-0.756603341725796,-0.0744640268558783,-0.00708018616006711
1580422679.24759,-1.01002517738613,-0.258060578316931,0.034424353398947
1580422679.2798,-0.857190814068819,0.0993667505912867,0.166262302586404
1580422679.31201,-0.704356450751506,0.213626306553749,0.0578622110322726
1580422679.34422,-0.837659266041047,0.395757991912717,-0.0905775539787896
1580422679.37643,-0.940199893186847,0.288334477759975,-0.0451667048142212
1580422679.40864,-1.12672617685206,0.0178225375753414,0.342046234836346
1580422679.44086,-1.26686503395132,0.0187991149767299,0.198001068131532
1580422679.47307,-1.42800030518044,0.181887541008621,0.0173342488746471
1580422679.50528,-1.41823453116655,0.226321812771801,0.163820859082932
1580422679.53749,-1.62038605325399,0.285893034256503,0.346929121843289
1580422679.5697,-1.23805600061036,0.253177691309986,0.376226443884946
1580422679.60191,-1.3630579079881,0.161379415579461,-0.503181506065461
1580422679.63412,-1.57497520408942,-0.0778820477607383,-0.571053635461967
1580422679.66634,-1.62624551766232,0.361089494163423,0.0983901731898982
1580422679.69855,-1.38503089951934,-0.221927214465552,0.0402838178072784
1580422679.73076,-1.11549553673609,0.0109864957656214,-0.177004654001678
1580422679.76297,-0.797131303883422,0.245853360799572,-0.178957808804455
1580422679.79518,-0.44946974898909,0.126222629129472,-0.108644235904478
1580422679.82739,-0.317143511100939,0.0593270771343555,-0.307377737087053
1580422679.8596,-0.199954222934309,0.00903334096284425,-0.507087815671015
1580422679.89184,-0.288334477759976,0.0261234454871442,0.0529793240253298
1580422679.92406,-0.830334935530633,-0.852307927061876,2.06472877088579
1580422679.95627,-1.4138399328603,-0.356694895857176,1.96511787594415
1580422679.98848,-0.773205157549402,0.110109102006561,-0.194094758525978
1580422680.02069,-0.89039444571603,0.483161669336994,0.770275425345236
1580422680.0529,-1.27858396276799,-0.34009308003357,0.551522087434197
1580422680.08512,-1.64675364309148,0.227786678873883,-0.077393759060044
1580422680.11733,-0.653086137178606,0.240970473792629,-0.178469520103761
1580422680.14954,-0.96217288471809,0.538826581216146,-0.280521858548868
1580422680.18175,-1.26686503395132,0.366948958571754,-0.0583504997329669
1580422680.21396,-0.824963759822996,-0.0397955291065841,0.0617685206378269
1580422680.24617,-0.916273746852827,-0.159914549477378,0.0178225375753414
1580422680.27839,-0.878187228198673,0.0271000228885327,0.235599298084992
1580422680.3106,-0.617929350728618,0.162844281681544,0.127687495231555
1580422680.34281,-0.672129396505683,0.439215686274508,-0.177492942702372
1580422680.37502,-1.03688105592432,0.293217364766917,-0.00854505226214997
1580422680.40723,-1.17164873731594,0.203860532539863,0.399664301518271
1580422680.43945,-1.27565423056382,-0.0549324788281069,0.218997482261386
1580422680.47166,-1.38796063172351,0.132570382238498,0.01196307316701
1580422680.50387,-1.40798046845197,0.42114900434882,0.193118181124589
1580422680.53608,-1.58815899900816,0.372808422980086,0.304448004882886
1580422680.56829,-1.23707942320897,0.0407721065079727,0.244388494697489
1580422680.6005,-1.40065613794156,0.0144045166704814,-0.270756084534982
1580422680.63272,-1.64235904478523,0.10083161669337,-0.86305027847715
1580422680.66493,-1.62185091935607,0.319584954604409,0.11792172121767
1580422680.69714,-1.58767071030747,0.0915541313801782,0.118410009918364
1580422680.72935,-1.25075150682841,0.152590218966964,-0.0842298008697639
1580422680.76156,-0.872327763790341,0.0339360646982527,-0.11792172121767
1580422680.79377,-0.45972381170367,-0.0422369726100555,-0.0744640268558783
1580422680.82599,-0.244388494697489,-0.067139696345464,-0.170168612191958
1580422680.8582,-0.0285648889906156,0.0490730144197755,-0.577401388570992
1580422680.89041,-0.116456855115587,0.192629892423895,-0.672129396505683
1580422680.92262,-0.812268253604945,-0.610116731517509,1.95584039063096
1580422680.95483,-1.77468528267338,-0.282963302052339,1.95486381322957
1580422680.98705,-0.806408789196613,-0.393316548409247,0.506599526970323
1580422681.01926,-0.834241245136187,0.302983138780803,0.196536202029449
1580422681.05147,-1.70730144197757,0.244388494697489,1.2600289921416
1580422681.08368,-1.56130312046998,0.889417868314641,0.147219043259327
1580422681.11589,-0.364507515068285,-0.124269474326695,-0.451422903791867
1580422681.1481,-1.39870298313878,0.567147325856414,-0.161379415579461
1580422681.18027,-1.27663080796521,0.337163347829403,0.0373540856031127
1580422681.21248,-0.661875333791103,0.176028076600289,0.0266117341878385
1580422681.24469,-0.851331349660487,-0.157961394674601,-0.140871290150301
1580422681.2769,-0.888441290913253,0.114015411612115,0.137941557946135
1580422681.30911,-0.821545738918136,0.285893034256503,0.0764171816586554
1580422681.34133,-0.77418173495079,0.262943465323872,-0.0944838635843439
1580422681.37354,-1.01490806439307,-0.000732433051041426,0.136476691844052
1580422681.40575,-1.23317311360342,-0.0983901731898982,0.397711146715494
1580422681.43796,-1.2517280842298,0.0695811398489354,0.127687495231555
1580422681.47017,-1.2346379797055,0.347905699244677,0.129152361333638
1580422681.50238,-1.3542687113756,0.272709239337757,0.203372243839169
1580422681.5346,-1.46657511253529,0.358648050659951,0.399176012817577
1580422681.56681,-1.23414969100481,0.141847867551689,0.180910963607232
1580422681.59902,-1.5339589532311,-0.0983901731898982,-0.530525673304341
1580422681.63123,-1.42458228427558,0.262455176623178,-0.305912870984971
1580422681.66344,-1.83718623636225,0.128664072632944,0.127199206530861
1580422681.69565,-1.4397192339971,-0.0881361104753182,0.0104982070649271
1580422681.72787,-1.15602349889372,0.101319905394064,-0.190676737621118
1580422681.76008,-0.69800869764248,0.278080415045395,-0.140383001449607
1580422681.79229,-0.395269703212024,0.186282139314869,-0.144777599755855
1580422681.8245,-0.113038834210727,-0.034424353398947,-0.306401159685665
1580422681.85671,0.151125352864881,0.394293125810634,-0.573006790264744
1580422681.88893,-0.564217593652247,0.0520027466239412,0.233646143282215
1580422681.92114,-1.10377660791943,-0.872816052491036,2.17312886243992
1580422681.95335,-1.53444724193179,-0.637460898756389,2.31033798733501
1580422681.98556,-0.936781872281987,-0.0793469138628211,0.378179598687723
1580422682.01777,-1.1574883649958,0.177981231403066,0.229739833676661
1580422682.04998,-1.22487220569161,0.00415045395590141,0.491462577248797
1580422682.0822,-1.50026703288319,0.613534752422371,-0.133546959639887
1580422682.11441,-0.635019455252918,0.300541695277332,-0.175051499198901
1580422682.14662,-1.12867933165484,0.254642557412069,-0.0759288929579611
1580422682.17883,-1.29811551079576,0.159914549477378,0.0441901274128327
1580422682.21104,-0.705333028152895,-0.0500495918211641,0.0949721522850382
1580422682.24326,-0.829846646829939,-0.00317387655451284,-0.0549324788281069
1580422682.27547,-0.862073701075762,0.335210193026626,-0.00415045395590141
1580422682.30768,-0.775158312352179,0.206301976043335,0.0354009308003356
1580422682.33989,-0.77076371404593,0.251224536507209,-0.0729991607537954
1580422682.3721,-0.946547646295873,0.0822766460669868,-0.142336156252384
1580422682.40431,-1.17018387121385,-0.0148928053711757,0.205325398641946
1580422682.43653,-1.34206149385824,0.00952162966353853,0.459235523002974
1580422682.46875,-1.29274433508812,0.152590218966964,0.141847867551689
1580422682.50096,-1.3630579079881,0.418219272144654,0.162355992980849
1580422682.53317,-1.55739681086442,0.395269703212023,0.294682230869
1580422682.56538,-1.30251010910201,0.262455176623178,0.419684138246737
1580422682.5976,-1.21022354467079,-0.0402838178072784,-0.542244602121004
1580422682.62981,-1.65993743801022,0.0476081483176927,-0.279056992446785
1580422682.66202,-1.65163653009842,0.0529793240253298,0.0734874494544897
1580422682.69423,-1.5681391622797,0.0178225375753414,0.0881361104753182
1580422682.72644,-1.17701991302357,0.167238879987792,-0.186282139314869
1580422682.75866,-0.850843060959793,0.200930800335698,-0.202883955138475
1580422682.79087,-0.498298619058518,0.173098344396124,-0.115968566414892
1580422682.82308,-0.266361486228734,0.0490730144197755,-0.184817273212786
1580422682.85529,-0.146730754558632,-0.00415045395590141,-0.441657129777981
1580422682.8875,-0.186770428015564,0.219485770962081,-0.443610284580759
1580422682.91971,-0.735118638895246,-0.614023041123064,1.17750820172427
1580422682.95193,-1.4226291294728,-0.813733119707027,1.57009231708248
1580422682.98414,-0.970962081330587,0.0734874494544897,0.493904020752268
1580422683.01635,-0.876234073395896,-0.164797436484321,0.409430075532157
1580422683.04856,-0.92799267566949,0.155519951171129,0.78443579766537
1580422683.08077,-1.27809567406729,0.135988403143358,0.753673609521631
1580422683.11298,-1.10084687571527,0.171633478294041,0.048096437018387
1580422683.1452,-0.606210421911955,0.297611963073166,-0.0734874494544897
1580422683.17741,-1.2688181887541,0.691172655832762,-0.00854505226214997
1580422683.20962,-1.05836575875486,0.307866025787746,0.113527122911421
1580422683.24183,-0.801037613488976,0.0354009308003356,-0.0256351567864499
1580422683.27404,-0.899671931029221,-0.182864118410009,0.0046387426565957
1580422683.30626,-0.815686274509805,0.152590218966964,0.145265888456549
1580422683.33847,-0.70826276035706,0.248294804303043,0.11450370031281
1580422683.37068,-0.757579919127185,0.347905699244677,-0.341069657434959
1580422683.40289,-1.11403067063401,0.0666514076447697,0.105714503700312
1580422683.4351,-1.20143434805829,-0.183840695811398,0.565194171053637
1580422683.46731,-1.2522163729305,0.152590218966964,-0.0246585793850613
1580422683.49953,-1.3796597238117,0.39038681620508,0.131105516136415
1580422683.53174,-1.40309758144503,0.341557946135651,0.199954222934309
1580422683.56395,-1.56520943007553,0.287357900358586,0.338628213931486
1580422683.59616,-1.19411001754787,0.0852063782711525,0.457770656900891
1580422683.62837,-1.4572976272221,0.0280766002899213,-0.259525444419014
1580422683.66059,-1.57399862668803,0.177492942702372,-0.673594262607766
1580422683.6928,-1.5935301747158,0.491462577248797,-0.0207522697795071
1580422683.72501,-1.34987411306935,-0.182864118410009,0.149660486762798
1580422683.7572,-1.13600366216525,0.10424963759823,-0.116456855115587
1580422683.78941,-0.930922407873656,0.166750591287098,-0.0622568093385212
1580422683.82162,-0.605233844510566,0.0852063782711525,-0.107179369802395
1580422683.85384,-0.360112916762036,0.0642099641412983,-0.201907377737086
1580422683.88605,-0.211673151750972,-0.0607919432364383,-0.397711146715496
1580422683.91826,-0.109620813305867,0.182864118410009,-0.550057221332112
1580422683.95047,-0.686289768825818,-0.294193942168308,1.20094605935759
1580422683.98268,-1.56374456397345,-0.82887006942855,1.41823453116655
1580422684.0149,-0.793224994277868,0.0861829556725411,0.850843060959793
1580422684.04711,-0.86305027847715,0.134523537041275,-0.103273060196841
1580422684.07932,-0.927504386968796,0.188235294117646,0.663340199893188
1580422684.11153,-1.46266880292973,-0.0173342488746471,0.727794308384833
1580422684.14374,-0.918226901655604,0.325932707713434,-0.216067750057221
1580422684.17595,-0.666269932097352,0.232181277180132,-0.0993667505912867
1580422684.20817,-1.32790112153811,0.576424811169606,-0.0251468680857556
1580422684.24038,-0.98268101014725,0.170656900892652,0.178957808804455
1580422684.27259,-0.831799801632716,0.0266117341878385,0.0187991149767299
1580422684.3048,-0.909437705043107,-0.272709239337759,-0.189211871519035
1580422684.33701,-0.778576333257039,0.12475776302739,0.141847867551689
1580422684.36923,-0.744396124208437,0.235599298084992,-0.0368657969024184
1580422684.40144,-0.913832303349356,0.236087586785686,-0.248783093003738
1580422684.43365,-1.00318913557641,-0.0319829098954756,0.133058670939192
1580422684.46586,-1.19996948195621,0.145754177157244,0.403570611123826
1580422684.49807,-1.32350652323186,0.196536202029449,0.10083161669337
1580422684.53028,-1.33376058594644,0.171145189593346,0.134035248340581
1580422684.5625,-1.40016784924086,0.399176012817577,0.231692988479438
1580422684.59471,-1.38698405432212,0.424078736552985,0.417242694743265
1580422684.62692,-1.24977492942702,0.00805676356145568,-0.113527122911421
1580422684.65913,-1.47194628824292,-0.197512779430838,-0.77759975585565
1580422684.69134,-1.52956435492485,0.419195849546043,-0.537850003814755
1580422684.72355,-1.65847257190814,0.155519951171129,0.179934386205844
1580422684.75577,-1.39089036392767,0.027588311589227,-0.0427252613107498
1580422684.78798,-1.19899290455482,0.0319829098954756,-0.146242465857938
1580422684.82019,-0.724864576180666,0.0666514076447697,-0.0505378805218584
1580422684.8524,-0.354741741054399,-0.000732433051041426,-0.073975738155184
1580422684.88461,-0.179934386205844,-0.0075684748607614,-0.322026398107882
1580422684.91683,-0.122804608224612,0.0681162737468526,-0.593026626993209
1580422684.94904,-0.292240787365531,0.272709239337757,-0.292729076066225
1580422684.98125,-1.03883421072709,-0.911390859845884,2.04080262455177
1580422685.01346,-1.62087434195468,-0.32300297550927,2.10525673304341
1580422685.04571,-0.581795986877241,0.395757991912717,-0.419684138246739
1580422685.07793,-0.611581597619592,0.0227054245822842,0.809826810101473
1580422685.11014,-1.61110856794079,0.0271000228885327,0.24682993820096
1580422685.14235,-1.65944914930953,0.105226214999618,0.276127260242617
1580422685.17456,-0.484626535439078,0.0271000228885327,-0.486579690241856
1580422685.20678,-0.778576333257039,0.33569848172732,-0.165285725185015
1580422685.23899,-1.49587243457694,0.616464484626537,-0.0690928511482412
1580422685.2712,-0.736583504997329,0.0334477759975584,0.184817273212786
1580422685.30341,-0.865980010681316,-0.180910963607232,0.0764171816586554
1580422685.33562,-1.16090638590066,1.31471732661936,0.345464255741206
1580422685.36784,-0.7219348439765,0.225345235370412,0.0905775539787896
1580422685.40005,-0.831311512932022,0.262455176623178,-0.0778820477607383
1580422685.43226,-0.899671931029221,0.139894712748912,-0.130617227435721
1580422685.46447,-0.999282825970855,0.187258716716258,0.152590218966964
1580422685.49669,-1.19313344014649,0.0627450980392155,0.39380483710994
1580422685.5289,-1.35280384527352,0.0983901731898982,0.0725108720531011
1580422685.56111,-1.39137865262837,0.204348821240558,0.144289311055161
1580422685.59332,-1.56276798657206,0.480231937132828,0.276127260242617
1580422685.62554,-1.38747234302281,0.192629892423895,0.396734569314106
1580422685.65775,-1.26198214694438,0.125246051728084,-0.183840695811398
1580422685.68996,-1.6277103837644,-0.295170519569696,-0.791760128175785
1580422685.72217,-1.56130312046998,0.733653772793165,-0.253665980010682
1580422685.75438,-1.47341115434501,-0.0373540856031127,0.156008239871824
1580422685.7866,-1.13942168307011,0.0417486839093613,-0.110109102006561
1580422685.81881,-0.970473792629893,0.133058670939192,-0.173098344396124
1580422685.85102,-0.592538338292515,0.080811779964904,-0.0607919432364383
1580422685.88323,-0.328862439917602,-0.00561532005798426,-0.132082093537804
1580422685.91545,-0.244388494697489,0.0197756923781185,-0.390875104905776
1580422685.94766,-0.145754177157244,-0.0305180437933927,-0.242435339894712
1580422685.97987,-0.42554360265507,-0.108155947203784,0.568612191958497
1580422686.01208,-1.38161287861448,-0.865491721980622,1.70778973067826
1580422686.04429,-1.31471732661936,-0.0690928511482412,1.83718623636225
1580422686.07651,-0.808850232700085,-0.106691081101701,0.0710460059510183
1580422686.10872,-0.578866254673075,0.396246280613411,1.21217669947356
1580422686.14093,-1.38796063172351,0.295658808270389,0.416266117341877
1580422686.17314,-1.77077897306783,0.560799572747388,0.136964980544747
1580422686.20536,-0.658457312886243,0.0510261692225527,-0.0954604409857325
1580422686.23757,-1.04615854123751,0.238040741588463,-0.0944838635843439
1580422686.26978,-1.19655146105135,0.31860837720302,0.0280766002899213
1580422686.30199,-0.764415960936905,0.200930800335698,0.0710460059510183
1580422686.33432,-0.916762035553521,0.0627450980392155,0.0617685206378269
1580422686.36653,-0.80152590218967,0.153078507667658,0.0661631189440754
1580422686.39874,-0.767833981841765,0.211673151750972,0.0666514076447697
1580422686.43096,-0.759533073929962,0.294193942168306,-0.138429846646829
1580422686.46317,-1.02858014801251,0.00219729915312428,0.0349126420996413
1580422686.49538,-1.13600366216525,-0.0485847257190812,0.362066071564811
1580422686.52759,-1.29958037689784,0.208743419546806,0.216556038757915
1580422686.5598,-1.23659113450828,0.378179598687723,0.0827649347676811
1580422686.59202,-1.31422903791867,0.303471427481497,0.131593804837109
1580422686.62423,-1.52224002441443,0.291752498664835,0.286869611657892
1580422686.65644,-1.30446326390478,0.278568703746089,0.379156176089111
1580422686.68865,-1.32545967803464,-0.106691081101701,-0.522713054093233
1580422686.72087,-1.50270847638666,0.0173342488746471,-0.311284046692608
1580422686.75308,-1.71413748378729,0.436285954070343,-0.150637064164187
1580422686.78529,-1.44118410009918,-0.0896009765774011,-0.0197756923781185
1580422686.8175,-1.14381628137636,0.167238879987792,-0.198489356832226
1580422686.84972,-0.88697642481117,0.251224536507209,-0.221927214465552
1580422686.88193,-0.575936522468909,0.162355992980849,-0.149660486762798
1580422686.91414,-0.334233615625239,0.0725108720531011,-0.374761577782865
1580422686.94635,-0.109132524605172,0.0632333867399097,-0.307866025787748
1580422686.97856,-0.393316548409247,-0.0505378805218584,-0.285893034256505
1580422687.01078,-0.754161898222325,-0.73560692759594,1.3713588158999
1580422687.04299,-1.16334782940413,-0.512458991378653,1.38796063172351
1580422687.0752,-1.00856031128405,-0.0388189517051956,0.308842603189134
1580422687.10741,-0.977798123140307,0.142336156252384,0.624277103837645
1580422687.13963,-1.38210116731518,-0.220462348363469,1.22731364919509
1580422687.17184,-1.23952086671244,0.270267795834286,-0.262455176623179
1580422687.20405,-0.710704203860532,-0.0373540856031127,-0.370366979476616
1580422687.23626,-0.629159990844586,0.184328984512092,-0.12133974212253
1580422687.26847,-1.40114442664225,0.491950865949491,0.184817273212786
1580422687.30069,-1.08033875028611,0.225345235370412,0.212161440451666
1580422687.3329,-0.753185320820936,0.00805676356145568,0.129640650034332
1580422687.36511,-0.920180056458381,0.0500495918211641,0.113038834210727
1580422687.39732,-0.928969253070878,0.161379415579461,0.0788586251621268
1580422687.42954,-0.858167391470207,0.138918135347524,0.0695811398489354
1580422687.46175,-0.842053864347296,0.11108567940795,0.0236820019836728
1580422687.49396,-0.881116960402839,0.232669565880826,-0.10083161669337
1580422687.52617,-0.913344014648661,0.227786678873883,0.034424353398947
1580422687.55838,-1.2263370717937,0.151125352864881,0.374273289082169
1580422687.5906,-1.27370107576104,-0.221438925764858,0.486579690241854
1580422687.6228,-1.30495155260548,-0.0651865415426869,0.163820859082932
1580422687.65501,-1.41237506675822,0.24682993820096,0.343999389639123
1580422687.68723,-1.27321278706035,0.322514686808574,0.339604791332874
1580422687.71944,-1.43288319218738,0.25024795910582,-0.493415732051576
1580422687.75165,-1.65505455100328,0.398687724116883,-0.448981460288396
1580422687.78386,-1.76736095216297,0.10424963759823,0.133546959639887
1580422687.81608,-1.62380407415885,-0.282963302052339,0.0505378805218584
1580422687.84829,-1.30397497520409,0.0363775082017241,-0.109132524605172
1580422687.8805,-0.853772793163959,0.190188448920424,-0.209231708247501
1580422687.91271,-0.515388723582818,0.162355992980849,-0.121828030823224
1580422687.94492,-0.299076829175251,0.132082093537804,-0.190676737621118
1580422687.97714,-0.147707331960021,0.0476081483176927,-0.425055313954376
1580422688.00935,-0.211184863050278,0.224368657969023,-0.378667887388419
1580422688.04156,-0.475349050125887,-0.585702296482795,1.27956054016937
1580422688.07377,-1.30885786221103,-0.983657587548638,1.32448310063325
1580422688.10599,-1.16139467460136,0.415777828641183,0.658945601586939
1580422688.1382,-0.78443579766537,0.222903791866941,0.279056992446783
1580422688.17041,-0.86305027847715,-0.041260395208667,1.52858777752346
1580422688.20262,-1.8161898222324,0.500740062561992,0.027588311589227
1580422688.23483,-0.838635843442436,0.027588311589227,0.0617685206378269
1580422688.26705,-0.52808422980087,-0.177981231403066,-0.251712825207905
1580422688.29926,-1.27077134355688,0.564705882352943,-0.146730754558632
1580422688.33147,-1.16432440680552,0.372808422980086,0.0617685206378269
1580422688.36368,-0.760509651331351,0.00170901045242999,0.0788586251621268
1580422688.3959,-0.934340428778516,-0.00122072175173571,0.0158693827725642
1580422688.42811,-0.879163805600061,-0.501716639963378,-0.159914549477378
1580422688.46032,-0.723399710078583,0.152590218966964,0.115968566414892
1580422688.49253,-0.736095216296635,0.367437247272449,-0.165285725185015
1580422688.52475,-1.02467383840696,0.244388494697489,-0.0891126878767068
1580422688.55696,-1.28688487067979,0.0222171358815899,0.307866025787746
1580422688.58917,-1.32448310063325,-0.154543373769741,0.488532845044631
1580422688.62138,-1.30104524299992,0.0114747844663157,0.0046387426565957
1580422688.65359,-1.38991378652628,0.406500343327991,0.240970473792629
1580422688.68581,-1.46950484473945,0.457282368200197,0.264896620126649
1580422688.71802,-1.23610284580758,0.231692988479438,0.376226443884946
1580422688.75023,-1.34010833905547,-0.0813000686655982,-0.293217364766919
1580422688.78244,-1.61794460975051,0.0959487296864268,-0.587655451285572
1580422688.81466,-1.70144197756924,0.267826352330815,0.0656748302433812
1580422688.84687,-1.48024719615473,-0.0583504997329669,0.0837415121690697
1580422688.87908,-1.22975509269856,0.102784771496147,-0.141847867551689
1580422688.91132,-0.925062943465324,0.140383001449607,-0.176516365300984
1580422688.94353,-0.552986953536278,0.156496528572518,-0.0764171816586554
1580422688.97574,-0.237552452887769,0.0109864957656214,-0.129152361333638
1580422689.00795,-0.0896009765774011,-0.0441901274128327,-0.383062485694667
1580422689.04016,-0.150637064164187,0.442145418478674,-0.612069886320286
1580422689.07238,-0.707774471656366,-0.23999389639124,0.95875486381323
1580422689.10459,-1.35378042267491,-1.22047760738537,2.21805142290379
1580422689.1368,-1.02418554970626,0.102296482795452,0.962661173418784
1580422689.16901,-0.799084458686199,-0.0749523155565726,0.260013733119706
1580422689.20123,-0.762462806134128,0.199465934233615,1.32936598764019
1580422689.23344,-1.41921110856794,0.373785000381474,0.289311055161363
1580422689.26565,-1.21071183337148,0.459235523002974,-0.339116502632182
1580422689.29786,-0.482673380636301,-0.0988784618905925,0.0368657969024184
1580422689.33008,-1.34938582436866,0.627695124742505,-0.137941557946135
1580422689.36229,-1.18385595483329,0.269291218432897,0.141359578850995
1580422689.3945,-0.733165484092469,0.0505378805218584,0.0529793240253298
1580422689.42671,-0.901136797131304,0.0246585793850613,0.0451667048142212
1580422689.45892,-0.772228580148013,-0.0139162279697871,0.202395666437781
1580422689.49114,-0.755626764324408,0.172121766994735,0.163820859082932
1580422689.52335,-0.905043106736859,0.368902113374531,-0.128664072632944
1580422689.55556,-0.964614328221561,0.186282139314869,-0.119874876020447
1580422689.58777,-1.20192263675898,0.00366216525520713,0.531502250705731
1580422689.61998,-1.2946974898909,-0.0690928511482412,0.247806515602349
1580422689.6522,-1.33327229724575,0.0832532234683754,0.0192874036774242
1580422689.68441,-1.29372091248951,0.217532616159303,0.296635385671777
1580422689.71662,-1.41579308766308,0.323979552910657,0.343511100938429
1580422689.74883,-1.11207751583123,0.128664072632944,0.146242465857938
1580422689.78105,-1.59597161821927,0.114991989013504,-0.734630350194552
1580422689.81326,-1.52565804531929,0.404547188525214,-0.503669794766155
1580422689.84547,-1.56667429617761,-0.0495613031204698,0.0197756923781185
1580422689.87768,-1.45192645151446,-0.200442511635003,0.106691081101701
1580422689.9099,-1.21217669947356,0.133058670939192,-0.105714503700312
1580422689.94211,-0.877698939497979,0.218997482261386,-0.101319905394064
1580422689.97432,-0.527595941100175,0.161379415579461,-0.0617685206378269
1580422690.00653,-0.263431754024568,-0.0393072404058898,-0.166750591287098
1580422690.03874,-0.210696574349583,-0.0905775539787896,-0.206790264744029
1580422690.07096,-0.251712825207905,-0.183352407110704,0.0124513618677042
1580422690.10317,-0.40845349813077,-0.269291218432899,0.745860990310522
1580422690.13538,-1.44997329671168,-0.655039291981383,1.46803997863737
1580422690.16759,-1.03297474631876,0.366948958571754,1.31325246051728
1580422690.19986,-0.725841153582055,0.0192874036774242,0.0847180895704582
1580422690.23207,-1.04127565423056,0.206790264744029,1.28639658197909
1580422690.26428,-1.39919127183948,-0.103761348897535,0.493904020752268
1580422690.2965,-1.16774242771038,0.318120088502326,0.170656900892652
1580422690.32871,-0.653574425879301,0.107179369802395,-0.0930189974822611
1580422690.36092,-1.24879835202563,0.561776150148777,-0.0148928053711757
1580422690.39313,-1.07887388418402,0.269779507133592,0.101808194094758
1580422690.42534,-0.760021362630656,0.0285648889906156,-0.0134279392690928
1580422690.45756,-1.00953688868544,0.0217288471808956,0.0393072404058898
1580422690.48977,-0.847913328755627,0.182375829709315,0.146242465857938
1580422690.52198,-0.730724040588997,0.146242465857938,0.0920424200808725
1580422690.55419,-0.78443579766537,0.256107423514152,-0.159914549477378
1580422690.58641,-0.968520637827115,0.159426260776684,-0.00219729915312428
1580422690.61862,-1.12526131074998,0.170168612191958,0.35962462806134
1580422690.65083,-1.26393530174716,0.191653315022506,0.303959716182192
1580422690.68304,-1.35573357747768,0.280033569848172,-0.0319829098954756
1580422690.71526,-1.39626153963531,0.262943465323872,0.183840695811398
1580422690.74747,-1.52272831311513,0.159426260776684,0.396734569314106
1580422690.77968,-1.27077134355688,-0.0798352025635154,0.457770656900891
1580422690.81189,-1.35866330968185,0.0285648889906156,-0.214602883955138
1580422690.8441,-1.78005645838102,0.469977874418248,-0.848401617456322
1580422690.87632,-1.6448004882887,0.536873426413369,-0.152101930266269
1580422690.90853,-1.48903639276722,-0.118410009918364,0.157961394674601
1580422690.94074,-1.20582894636454,-0.0285648889906156,-0.0749523155565726
1580422690.97295,-0.899671931029221,0.0783703364614325,-0.147219043259327
1580422691.00517,-0.533943694209201,0.0539559014267184,-0.0852063782711525
1580422691.03738,-0.310795757991913,0.0676279850461583,-0.334233615625239
1580422691.06959,-0.164797436484321,0.0329594872968642,-0.557869840543221
1580422691.1018,-0.162844281681544,0.067139696345464,-0.92457465476463
1580422691.13401,-0.803967345693142,-0.73560692759594,1.93630884260319
1580422691.16623,-1.4480201419089,-0.274174105439842,0.984634164950027
1580422691.19844,-0.743907835507743,0.0944838635843439,0.620370794232091
1580422691.23065,-0.860608834973679,-0.0891126878767068,0.568123903257803
1580422691.26286,-1.01149004348821,-0.048096437018387,-0.0373540856031127
1580422691.29508,-1.61599145494774,-0.258548867017625,0.556893263141834
1580422691.32729,-0.792248416876479,0.293705653467612,-0.187747005416952
1580422691.3595,-0.656504158083466,0.160891126878766,-0.01196307316701
1580422691.39171,-1.30202182040131,0.530037384603649,-0.0524910353246355
1580422691.42392,-0.951430533302815,0.240970473792629,0.0266117341878385
1580422691.45614,-0.795178149080645,-0.125246051728084,-0.0427252613107498
1580422691.4884,-0.948989089799344,0.166262302586404,0.0598153658350498
1580422691.52061,-0.78101777676051,0.165285725185015,0.0715342946517126
1580422691.55283,-0.812268253604945,0.281498435950255,-0.00317387655451284
1580422691.58504,-0.762951094834822,0.0607919432364383,-0.0520027466239412
1580422691.61725,-0.961684596017395,0.127687495231555,0.0441901274128327
1580422691.64946,-1.1833676661326,0.419195849546043,0.155031662470435
1580422691.68168,-1.32399481193256,0.255130846112763,0.310307469291217
1580422691.71389,-1.38161287861448,0.0866712443732354,0.214114595254443
1580422691.7461,-1.54470130464637,0.239505607690546,0.209719996948195
1580422691.77831,-1.42214084077211,0.192629892423895,0.489021133745325
1580422691.81053,-1.18971541924163,0.0686045624475469,0.0339360646982527
1580422691.84274,-1.51247425040055,0.00366216525520713,-0.796154726482033
1580422691.87495,-1.44167238879988,0.408941786831463,-0.362554360265507
1580422691.90716,-1.55593194476234,0.150637064164187,0.077393759060044
1580422691.93937,-1.27809567406729,0.0593270771343555,-0.0075684748607614
1580422691.97159,-1.11744869153887,0.146242465857938,-0.230228122377355
1580422692.0038,-0.734630350194552,0.0461432822156098,-0.0876478217746239
1580422692.03601,-0.441168841077287,0.0104982070649271,-0.214602883955138
1580422692.06822,-0.353276874952316,0.0974135957885096,-0.440680552376593
1580422692.10044,-0.175539787899595,-0.222415503166246,-0.233646143282215
1580422692.13265,-0.0373540856031127,-0.237552452887769,0.54956893263142
1580422692.16486,-1.14576943617914,-0.434821087968261,1.23805600061036
1580422692.19707,-1.36745250629435,0.101808194094758,1.8928511482414
1580422692.22929,-0.820080872816053,0.271732661936369,-0.198489356832226
1580422692.2615,-1.06520180056458,0.00610360875867855,0.295658808270389
1580422692.29371,-1.70339513237201,-0.577401388570992,0.519295033188374
1580422692.32592,-0.686289768825818,0.362554360265506,-0.728282597085526
1580422692.35813,-0.755138475623713,0.719981689173725,-0.0266117341878385
1580422692.39035,-1.40651560234989,0.39038681620508,0.0715342946517126
1580422692.42256,-0.882581826504921,0.177492942702372,0.100343327992675
1580422692.45477,-0.795178149080645,-0.285893034256505,-0.044678416113527
1580422692.48698,-0.912855725947967,-0.120363164721141,0.0598153658350498
1580422692.51919,-0.786388952468148,0.344487678339817,0.193118181124589
1580422692.55141,-0.834729533836882,0.578377965972383,-0.0183108262760356
1580422692.58362,-0.814709697108416,0.348393987945371,0.0397955291065841
1580422692.61583,-0.961196307316701,0.00708018616006711,0.25366598001068
1580422692.64804,-1.34450293736172,-0.170168612191958,0.669687953002214
1580422692.68026,-1.37721828030823,-0.0368657969024184,0.123292896925307
1580422692.71247,-1.4992904554818,0.323979552910657,0.29126420996414
1580422692.74468,-1.52614633401999,0.507087815671017,0.448981460288394
1580422692.77695,-1.16774242771038,0.219485770962081,0.177981231403066
1580422692.80916,-1.57692835889219,0.244876783398183,-0.688242923628595
1580422692.84137,-1.50905622949569,-0.0222171358815899,-0.506111238269627
1580422692.87358,-1.7644312199588,0.162844281681544,-0.0661631189440754
1580422692.9058,-1.36842908369574,-0.0622568093385212,0.101319905394064
1580422692.93801,-1.18532082093538,0.160402838178072,-0.223880369268329
1580422692.97022,-0.832776379034105,0.161379415579461,-0.161867704280155
1580422693.00244,-0.429449912260624,0.0500495918211641,-0.140383001449607
1580422693.03465,-0.162355992980849,-0.0163576714732585,-0.269291218432899
1580422693.06686,0.00512703135728998,-0.0280766002899213,-0.339116502632182
1580422693.09907,-0.317143511100939,0.12475776302739,-0.393316548409247
1580422693.13129,-0.836194399938964,-0.613046463721675,1.8157015335317
1580422693.1635,-1.62136263065537,-0.356694895857176,1.98709086747539
1580422693.19571,-0.898207064927139,-0.0593270771343555,-0.000244144350347142
1580422693.22792,-0.693614099336232,-0.105226214999618,0.403082322423131
1580422693.26014,-1.21217669947356,-0.120851453421835,0.129152361333638
1580422693.29235,-1.54763103685054,0.0573739223315783,-0.0651865415426869
1580422693.32456,-0.756603341725796,0.261478599221789,-0.434821087968261
1580422693.35678,-0.799084458686199,0.452887769893948,-0.147219043259327
1580422693.38899,-1.29811551079576,0.343022812237734,0.0422369726100555
1580422693.4212,-0.879652094300756,0.150148775463492,0.156984817273212
1580422693.45341,-0.84596017395285,0.0192874036774242,0.0251468680857556
1580422693.48563,-0.901136797131304,0.0202639810788128,0.0856946669718468
1580422693.51784,-0.748302433813992,0.190676737621118,0.177492942702372
1580422693.55005,-0.7390249485008,0.263431754024566,0.0197756923781185
1580422693.58226,-0.914808880750744,0.178469520103761,0.01196307316701
1580422693.61448,-1.06764324406805,0.106691081101701,0.200442511635003
1580422693.64669,-1.2688181887541,0.0827649347676811,0.3117723353933
1580422693.6789,-1.26149385824369,0.125246051728084,0.0896009765774011
1580422693.71112,-1.23854428931105,0.178957808804455,0.0612802319371326
1580422693.74333,-1.47634088654917,0.407965209430074,0.329350728618294
1580422693.77554,-1.35182726787213,0.444098573281451,0.454840924696725
1580422693.80775,-1.11744869153887,0.183352407110704,0.0178225375753414
1580422693.83997,-1.5163805600061,-0.106202792401007,-0.709239337758449
1580422693.87218,-1.63210498207065,0.248294804303043,-0.125734340428778
1580422693.90439,-1.70193026626993,-0.0793469138628211,0.0520027466239412
1580422693.9366,-1.27663080796521,-0.027588311589227,0.0134279392690928
1580422693.96882,-1.06276035706111,0.0720225833524069,-0.163332570382238
1580422694.00103,-0.737560082398717,0.198489356832226,-0.105226214999618
1580422694.03324,-0.320073243305105,0.0427252613107498,-0.0944838635843439
1580422694.06549,-0.0842298008697639,0.0471198596169984,-0.364507515068285
1580422694.0977,-0.213138017853055,0.279056992446783,-0.685801480125123
1580422694.12992,-0.56226443884947,-0.199465934233615,0.785900663767453
1580422694.16213,-1.17213702601663,-1.16823071641108,1.99636835278859
1580422694.19434,-1.11256580453193,0.0539559014267184,1.61501487754635
1580422694.22655,-0.593514915693904,0.130617227435721,0.342046234836346
1580422694.25877,-1.17653162432288,0.238529030289158,0.559822995346
1580422694.29098,-1.53298237582971,-0.290287632562753,1.07789730678263
1580422694.32319,-1.16823071641108,0.635996032654308,-0.134035248340581
1580422694.3554,-0.656504158083466,-0.0871595330739297,-0.367925535973145
1580422694.38762,-1.32106507972839,0.576424811169606,-0.0300297550926985
1580422694.41983,-1.37917143511101,0.33911650263218,0.0515144579232469
1580422694.45204,-0.767833981841765,0.00415045395590141,0.099855039291981
1580422694.48426,-0.795666437781339,-0.0354009308003356,-0.0539559014267184
1580422694.51647,-0.936781872281987,0.113527122911421,0.0935072861829553
1580422694.54868,-0.706797894254978,0.0793469138628211,0.141359578850995
1580422694.58089,-0.681895170519569,0.424078736552985,-0.157473105973907
1580422694.61311,-0.776134889753568,0.468024719615471,-0.155519951171129
1580422694.64532,-1.02516212710765,0.374761577782863,0.194583047226672
1580422694.67753,-1.28297856107424,-0.0563973449301898,0.449958037689782
1580422694.70974,-1.35719844357977,-0.246341649500266,0.140871290150301
1580422694.74196,-1.3972381170367,0.36646066987106,-0.0402838178072784
1580422694.77417,-1.60085450522621,0.612069886320288,0.327885862516212
1580422694.80638,-1.41237506675822,0.361577782864117,0.432379644464788
1580422694.8386,-1.24098573281453,-0.00268558785381856,-0.187258716716258
1580422694.87081,-1.61452658884565,-0.536385137712672,-0.783947508964676
1580422694.90302,-1.58034637979705,0.605233844510568,-0.218997482261386
1580422694.93523,-1.52370489051652,0.102784771496147,0.0104982070649271
1580422694.96745,-1.17213702601663,0.0485847257190812,-0.153566796368352
1580422694.99966,-0.991958495460441,0.259037155718318,-0.208743419546806
1580422695.03187,-0.616464484626535,0.120851453421835,-0.0715342946517126
1580422695.06409,-0.325932707713436,-0.0422369726100555,-0.136964980544747
1580422695.0963,-0.241458762493323,0.024170290684367,-0.506111238269627
1580422695.12851,-0.169680323491264,-0.0251468680857556,-0.495857175555047
1580422695.16072,-0.40845349813077,-0.421637293049516,1.18190280003052
1580422695.19294,-1.50368505378805,-0.775158312352179,1.01393148699168
1580422695.22515,-0.908949416342413,0.132082093537804,0.952895399404898
1580422695.25736,-0.501716639963378,-0.0134279392690928,-0.222415503166246
1580422695.28957,-1.2517280842298,0.317143511100937,0.024170290684367
1580422695.32179,-1.74929427023728,-0.211184863050278,0.802502479591059
1580422695.35419,-0.82545204852369,0.100343327992675,-0.410894941634242
1580422695.3864,-0.662363622491798,0.12475776302739,0.0427252613107498
1580422695.41861,-1.43923094529641,0.736095216296636,-0.126222629129472
1580422695.45083,-1.00758373388266,0.402105745021743,0.0593270771343555
1580422695.48304,-0.844007019150073,-0.147707331960021,0.000244144350347142
1580422695.51525,-0.914808880750744,-0.105226214999618,0.110109102006561
1580422695.54747,-0.827893492027162,0.170168612191958,0.185305561913481
1580422695.57968,-0.77759975585565,0.221438925764858,0.0388189517051956
1580422695.61189,-0.757579919127185,0.352300297550926,-0.0568856336308841
1580422695.64411,-0.977309834439613,0.184328984512092,0.158937972075989
1580422695.67632,-1.18483253223468,0.220950637064163,0.317631799801632
1580422695.70853,-1.3117875944152,0.0271000228885327,0.235111009384298
1580422695.74074,-1.34206149385824,0.159914549477378,0.146730754558632
1580422695.77296,-1.40846875715267,0.27417410543984,0.289311055161363
1580422695.80517,-1.3625696192874,0.298588540474555,0.419684138246737
1580422695.83738,-1.12233157854581,0.0788586251621268,-0.0129396505683985
1580422695.8696,-1.55251392385748,0.309819180590523,-0.421149004348822
1580422695.90181,-1.53249408712901,0.0383306630045013,-0.366460669871062
1580422695.93402,-1.69900053406577,-0.132082093537804,0.121828030823224
1580422695.96624,-1.36452277409018,-0.0407721065079727,0.00854505226214997
1580422695.99845,-1.11647211413748,0.117433432516975,-0.183840695811398
1580422696.03066,-0.738536659800106,0.224856946669718,-0.113038834210727
1580422696.06288,-0.395757991912719,0.118898298619058,-0.126710917830167
1580422696.09509,-0.136964980544747,0.077393759060044,-0.374761577782865
1580422696.1273,-0.151613641565575,0.113038834210727,-0.341557946135653
1580422696.15952,-0.516365300984207,0.101808194094758,-0.067139696345464
1580422696.19173,-0.91773861295491,-0.79127183947509,1.73171587701228
1580422696.22394,-1.53688868543526,-0.390875104905776,2.0466620889601
1580422696.25616,-0.809338521400779,-0.0329594872968642,0.280521858548866
1580422696.28837,-0.996841382467384,-0.0666514076447697,0.101319905394064
1580422696.32058,-1.01930266269932,0.0114747844663157,0.755138475623713
1580422696.3528,-1.54763103685054,0.260013733119706,0.196047913328755
1580422696.38501,-0.694102388036926,0.406500343327991,-0.530525673304341
1580422696.41722,-0.841077286945907,0.127199206530861,-0.196536202029449
1580422696.44944,-1.43825436789502,0.362066071564811,0.00610360875867855
1580422696.48165,-0.853772793163959,0.0358892195010299,0.205813687342641
1580422696.51386,-0.821545738918136,-0.0793469138628211,0.00708018616006711
1580422696.54607,-0.859143968871596,-0.0451667048142212,0.0490730144197755
1580422696.57829,-0.804455634393836,0.174074921797512,0.159426260776684
1580422696.6105,-0.752208743419548,0.283451590753032,-0.00268558785381856
1580422696.64279,-0.80152590218967,0.165774013885709,-0.277592126344702
1580422696.675,-1.13990997177081,0.286381322957197,0.145265888456549
1580422696.70722,-1.16334782940413,0.112550545510032,0.541268024719617
1580422696.73943,-1.27858396276799,0.0197756923781185,0.257572289616235
1580422696.77164,-1.35231555657282,0.167727168688486,0.156008239871824
1580422696.80386,-1.45534447241932,0.416754406042571,0.267826352330815
1580422696.83607,-1.51540398260471,0.267826352330815,0.452887769893948
1580422696.86828,-1.31081101701381,0.328374151216906,0.136964980544747
1580422696.9005,-1.62282749675746,-0.299565117875945,-1.08180361638819
1580422696.93271,-1.62136263065537,0.282963302052337,-0.0295414663920042
1580422696.96492,-1.6364995803769,0.027588311589227,-0.0354009308003356
1580422696.99714,-1.35231555657282,-0.0251468680857556,-0.0178225375753414
1580422697.02935,-1.07057297627222,0.232669565880826,-0.292240787365531
1580422697.06156,-0.666269932097352,0.216556038757915,-0.144777599755855
1580422697.09378,-0.379156176089113,0.0539559014267184,-0.135500114442664
1580422697.12599,-0.109620813305867,-0.102296482795452,-0.364995803768979
1580422697.1582,0.135988403143358,0.757091630426491,-0.526619363698787
1580422697.19042,-0.752697032120242,0.0363775082017241,0.550545510032808
1580422697.22263,-1.27467765316243,-1.15211718928817,2.46414892805371
1580422697.25484,-1.00563057907988,-0.413824673838407,1.81130693522545
1580422697.28706,-0.765880827038988,0.0476081483176927,0.224856946669718
1580422697.31927,-0.890882734416724,0.387945372701608,0.942153047989624
1580422697.35148,-1.48708323796445,-0.0461432822156098,0.802990768291753
1580422697.38369,-1.74294651712825,0.715587090867476,-0.129640650034332
1580422697.41591,-0.653574425879301,-0.117433432516975,-0.550057221332112
1580422697.44812,-1.0212558175021,0.191653315022506,-0.185305561913481
1580422697.48033,-1.40016784924086,0.3117723353933,0.116456855115587
1580422697.51255,-0.724376287479972,-0.153566796368352,0.247806515602349
1580422697.54476,-0.710215915159838,-0.175539787899595,0.0402838178072784
1580422697.57697,-0.858167391470207,0.414801251239794,0.0920424200808725
1580422697.60919,-0.834241245136187,0.459723811703668,-0.00512703135728998
1580422697.6414,-0.954360265506981,0.415777828641183,-0.000732433051041426
1580422697.67361,-0.813244831006333,0.0520027466239412,-0.0114747844663157
1580422697.70583,-1.40651560234989,0.144777599755855,0.686778057526514
1580422697.73804,-1.37917143511101,-0.0988784618905925,0.602792401007097
1580422697.77025,-1.43239490348669,0.024170290684367,0.321538109407186
1580422697.80247,-1.34254978255894,0.310307469291217,0.221927214465552
1580422697.83468,-1.28151369497215,0.408453498130768,0.559822995346
1580422697.86689,-0.915297169451438,0.267826352330815,0.0568856336308841
1580422697.89911,-1.55690852216373,0.128175783932249,-0.328374151216908
1580422697.93137,-1.70827801937896,0.037842374303807,-0.158937972075989
1580422697.96358,-1.80593575951782,-0.241947051194018,0.232181277180132
1580422697.99579,-1.38747234302281,-0.0642099641412983,0.000244144350347142
1580422698.028,-1.03102159151598,0.195071335927366,-0.248783093003738
1580422698.06022,-0.603280689707789,0.181887541008621,-0.239505607690546
1580422698.09243,-0.234622720683603,-0.0905775539787896,-0.228274967574578
1580422698.12464,0.231204699778743,-0.122316319523918,-0.256107423514154
1580422698.15686,-0.397222858014802,0.264408331425955,-2.07449454489967
1580422698.18907,-0.960708018616007,-0.601327534905012,1.81765468833448
1580422698.22128,-1.3801480125124,-1.31422903791867,1.9265430685893
1580422698.2535,-1.00318913557641,-0.310795757991913,0.205813687342641
1580422698.28571,-0.69117265583276,0.182375829709315,0.223880369268329
1580422698.31792,-1.26784161135271,0.0969253070878153,1.27467765316243
1580422698.35014,-1.24733348592355,0.27075608453498,-0.270756084534982
1580422698.38235,-0.661875333791103,0.337651636530097,-1.17750820172427
1580422698.41456,-0.834729533836882,0.465583276112,-0.067139696345464
1580422698.44678,-1.32106507972839,0.713633936064699,0.0173342488746471
1580422698.47899,-1.04615854123751,-0.119386587319752,0.408453498130768
1580422698.5112,-0.779552910658428,-0.187747005416952,0.131593804837109
1580422698.54342,-0.85963225757229,0.0622568093385212,0.0505378805218584
1580422698.57563,-1.05934233615625,1.05934233615625,0.213138017853055
1580422698.60784,-0.748302433813992,0.0632333867399097,0.130128938735027
1580422698.64006,-0.642832074464026,0.339604791332874,-0.171633478294041
1580422698.67227,-0.897718776226444,0.342046234836346,-0.266849774929428
1580422698.70448,-1.16725413900969,0.0656748302433812,0.578866254673077
1580422698.7367,-1.38991378652628,-0.142336156252384,0.495368886854351
1580422698.76891,-1.33864347295338,0.00854505226214997,0.137453269245441
1580422698.80112,-1.3972381170367,0.28784618905928,0.343022812237734
1580422698.83334,-1.48024719615473,0.441168841077285,0.377691309987028
1580422698.86555,-1.24831006332494,0.239505607690546,0.0681162737468526
1580422698.89776,-1.71706721599145,-0.457770656900893,-0.812756542305639
1580422698.92998,-1.66091401541161,0.521736476691846,-0.344487678339819
1580422698.96219,-1.79812314030671,0.146242465857938,0.135500114442664
1580422698.9944,-1.36452277409018,0.0305180437933927,-0.0500495918211641
1580422699.02661,-1.17116044861524,0.230228122377355,-0.241947051194018
1580422699.05883,-0.736583504997329,0.212649729152361,-0.0905775539787896
1580422699.09104,-0.383550774395362,0.000732433051041426,-0.148683909361409
1580422699.12325,-0.154055085069047,-0.137941557946135,-0.413336385137713
1580422699.15547,0.0271000228885327,0.403570611123826,-0.300053406576639
1580422699.18768,-0.665781643396658,-0.270756084534982,0.457282368200197
1580422699.21994,-0.901136797131304,-0.937270160982681,2.64042114900435
1580422699.25215,-1.4485084306096,-0.320561532005799,1.2688181887541
1580422699.28437,-0.660410467689021,0.243900205996795,0.188235294117646
1580422699.31658,-0.988052185854887,0.930922407873656,1.20778210116731
1580422699.34879,-1.31618219272145,-0.10424963759823,0.829358358129245
1580422699.38101,-1.39967956054017,0.157473105973907,-0.0422369726100555
1580422699.41322,-0.368413824673839,-0.160402838178072,0.0476081483176927
1580422699.44543,-1.48610666056306,0.943617914091707,-0.210696574349583
1580422699.47764,-1.17164873731594,0.507576104371712,0.195071335927366
1580422699.50986,-0.719981689173723,-0.0441901274128327,-0.00708018616006711
1580422699.54207,-0.868421454184787,-0.140871290150301,0.0754406042572668
1580422699.57429,-0.936781872281987,0.437262531471731,0.235111009384298
1580422699.6065,-0.856702525368124,0.241458762493323,0.0720225833524069
1580422699.63871,-1.05738918135348,0.38696879530022,0.175051499198901
1580422699.67092,-0.961196307316701,0.027588311589227,0.257572289616235
1580422699.70314,-1.12819104295415,-0.0358892195010299,0.257572289616235
1580422699.73535,-1.3459678034638,0.109132524605172,0.302494850080109
1580422699.76756,-1.29323262378882,0.128664072632944,0.124269474326695
1580422699.79978,-1.26100556954299,0.0993667505912867,0.300053406576637
1580422699.83199,-1.22877851529717,0.209719996948195,0.420172426947431
1580422699.8642,-1.37917143511101,0.241458762493323,-0.0393072404058898
1580422699.89642,-1.64235904478523,0.0910658426794839,-0.933363851377127
1580422699.92863,-1.45925078202487,0.165774013885709,-0.40503547722591
1580422699.96084,-1.74196993972686,-0.0642099641412983,0.317631799801632
1580422699.99306,-1.39137865262837,0.0363775082017241,0.0314946211947813
1580422700.02527,-1.14235141527428,-0.00561532005798426,-0.154543373769741
1580422700.05748,-0.694102388036926,0.0280766002899213,-0.106202792401007
1580422700.0897,-0.297123674372473,-0.0295414663920042,-0.128664072632944
1580422700.12191,-0.164797436484321,0.00317387655451284,-0.393316548409247
1580422700.15412,-0.229739833676661,-0.0974135957885096,-0.275638971541925
1580422700.18634,-0.470954451819638,0.0573739223315783,0.220462348363469
1580422700.21855,-1.08278019378958,-0.587167162584878,1.71511406118868
1580422700.25076,-1.12819104295415,-0.223880369268329,1.63161669336996
1580422700.28298,-0.300053406576639,-0.0144045166704814,-0.309819180590525
1580422700.31519,-1.02272068360418,0.296635385671777,0.818127718013276
1580422700.3474,-1.82790875104906,-0.444586861982147,1.5339589532311
1580422700.37961,-0.86646829938201,0.354741741054397,-0.426520180056459
1580422700.41183,-0.602792401007095,0.161867704280155,0.143801022354467
1580422700.44404,-1.31569390402075,0.6452735179675,-0.157473105973907
1580422700.47625,-1.18141451132982,0.407965209430074,0.0749523155565726
1580422700.50848,-0.864515144579233,-0.184817273212786,0.0700694285496297
1580422700.5407,-0.828381780727856,-0.193118181124589,0.127199206530861
1580422700.57291,-0.876234073395896,0.0598153658350498,0.151125352864881
1580422700.60512,-0.826916914625773,0.198977645532921,0.0510261692225527
1580422700.63734,-0.700450141145952,0.302983138780803,-0.0954604409857325
1580422700.66955,-0.854261081864653,0.206301976043335,0.0686045624475469
1580422700.70176,-0.996841382467384,0.216556038757915,0.258060578316929
1580422700.73398,-1.35231555657282,0.151125352864881,0.131105516136415
1580422700.76619,-1.35231555657282,0.148683909361409,0.175539787899595
1580422700.7984,-1.50661478599222,0.207278553444723,0.26733806363012
1580422700.83062,-1.58083466849775,0.240482185091935,0.457770656900891
1580422700.86283,-1.23268482490272,0.0139162279697871,0.0847180895704582
1580422700.89504,-1.54958419165331,-0.00415045395590141,-0.587655451285572
1580422700.92725,-1.53102922102693,0.523689631494623,-0.53150225070573
1580422700.95947,-1.57888151369497,0.216556038757915,0.226810101472495
1580422700.99168,-1.29909208819715,-0.11108567940795,-0.0173342488746471
1580422701.0239,-1.1408865491722,0.0559090562294955,-0.144289311055161
1580422701.05611,-0.791760128175785,0.173586633096818,-0.100343327992675
1580422701.08832,-0.499275196459907,0.148195620660715,-0.185305561913481
1580422701.12053,-0.266849774929428,0.12133974212253,-0.390875104905776
1580422701.15275,-0.215579461356526,-0.108155947203784,-0.369390402075227
1580422701.18496,-0.321538109407188,0.0661631189440754,0.180910963607232
1580422701.21717,-1.06324864576181,-0.976333257038224,1.56472114137484
1580422701.24939,-1.25368123903258,-0.196536202029449,2.13699549858854
1580422701.2816,-0.447028305485619,0.215579461356526,-0.171633478294041
1580422701.31381,-0.786877241168842,0.534431982909897,0.775646601052873
1580422701.34603,-2.18191805905241,0.216067750057221,1.53981841763943
1580422701.37824,-0.833264667734799,0.146730754558632,0.175051499198901
1580422701.41045,-0.489997711146716,-0.265384908827345,0.0690928511482412
1580422701.44267,-1.4485084306096,0.830823224231327,-0.440680552376593
1580422701.47488,-1.25514610513466,0.478767071030745,0.0187991149767299
1580422701.50709,-0.855237659266042,-0.0280766002899213,0.0573739223315783
1580422701.53931,-0.881116960402839,-0.0832532234683754,0.070557717250324
1580422701.57152,-0.87330434119173,0.140871290150301,0.184328984512092
1580422701.60373,-0.77759975585565,0.208255130846112,0.0686045624475469
1580422701.63595,-0.775158312352179,0.286869611657892,-0.0334477759975584
1580422701.66816,-0.89381246662089,0.0720225833524069,-0.123292896925307
1580422701.70037,-1.17018387121385,0.284916456855115,0.315678644998854
1580422701.73259,-1.18873884184024,0.210208285648889,0.31860837720302
1580422701.7648,-1.32350652323186,0.0500495918211641,0.0583504997329669
1580422701.79706,-1.3801480125124,0.0886243991760125,0.183352407110704
1580422701.82927,-1.40651560234989,0.312260624093994,0.302983138780803
1580422701.86149,-1.25319295033188,0.210208285648889,0.530037384603649
1580422701.8937,-1.10865949492637,0.145265888456549,-0.0187991149767299
1580422701.92591,-1.72780956740673,0.119874876020447,-0.831799801632716
1580422701.95813,-1.78884565499352,0.244388494697489,0.177492942702372
1580422701.99034,-1.62917524986648,-0.0388189517051956,0.031006332494087
1580422702.02255,-1.32448310063325,0.12133974212253,-0.031006332494087
1580422702.05477,-1.00270084687572,0.190188448920424,-0.197024490730143
1580422702.08698,-0.600350957503624,0.144289311055161,-0.0700694285496297
1580422702.11919,-0.177004654001678,-0.0559090562294955,-0.164797436484321
1580422702.15141,0.00708018616006711,-0.100343327992675,-0.487556267643244
1580422702.18362,0.0236820019836728,-0.0529793240253298,-1.5422598611429
1580422702.21584,-0.719493400473029,-0.620370794232089,1.88552681773098
1580422702.24805,-1.54177157244221,-0.663340199893186,1.15260547798886
1580422702.28026,-0.846448462653544,0.0549324788281069,0.33911650263218
1580422702.31248,-0.71168078126192,0.198977645532921,-0.0393072404058898
1580422702.34469,-0.901625085831999,0.286381322957197,0.305912870984969
1580422702.3769,-1.57790493629358,-0.260013733119708,0.606210421911957
1580422702.40912,-0.835217822537576,0.127687495231555,-0.34692912184329
1580422702.44133,-0.604257267109178,0.0578622110322726,0.0549324788281069
1580422702.47354,-1.30788128480964,0.64869153887236,-0.144777599755855
1580422702.50576,-1.01734950789654,0.251712825207903,0.149172198062104
1580422702.53797,-0.778088044556345,-0.0261234454871442,0.0153810940718699
1580422702.57019,-0.859143968871596,-0.0573739223315783,0.107179369802395
1580422702.6024,-0.80836194399939,0.199954222934309,0.0842298008697639
1580422702.63461,-0.788342107270925,0.23999389639124,0.0617685206378269
1580422702.66683,-0.796643015182728,0.343511100938429,-0.136964980544747
1580422702.69904,-1.01881437399863,0.210208285648889,-0.0749523155565726
1580422702.73125,-1.21364156557565,0.0202639810788128,0.614023041123065
1580422702.76347,-1.34157320515755,-0.034424353398947,0.211184863050278
1580422702.79568,-1.3884489204242,0.259037155718318,0.123292896925307
1580422702.8279,-1.39919127183948,0.206790264744029,0.368413824673837
1580422702.86011,-1.4138399328603,0.285404745555809,0.487556267643242
1580422702.89232,-1.0808270389868,0.0290531776913099,-0.144289311055161
1580422702.92454,-1.69265278095674,0.137453269245441,-0.928480964370184
1580422702.95675,-1.54665445944915,0.281986724650949,-0.359136339360647
1580422702.98896,-1.7898222323949,0.0695811398489354,0.251224536507209
1580422703.02118,-1.42458228427558,0.150637064164187,-0.0427252613107498
1580422703.05339,-1.08180361638819,0.0710460059510183,-0.148195620660715
1580422703.08566,-0.668223086900129,0.0368657969024184,-0.116456855115587
1580422703.11788,-0.391851682307164,-0.0192874036774242,-0.127687495231555
1580422703.15009,-0.135988403143358,-0.144289311055161,-0.358648050659953
1580422703.1823,0.341069657434957,-0.0163576714732585,-1.56130312046998
1580422703.21452,-0.525642786297398,-0.122316319523918,1.11647211413748
1580422703.24673,-1.43483634699016,-1.11989013504234,1.52077515831235
1580422703.27894,-0.91090257114519,-0.169192034790569,1.26735332265202
1580422703.31116,-0.614023041123064,-0.0222171358815899,0.444098573281451
1580422703.34337,-0.681406881818875,0.0686045624475469,0.225345235370412
1580422703.37559,-1.98025482566567,0.51880674448768,1.57155718318456
1580422703.4078,-1.06471351186389,0.463630121309222,0.3459525444419
1580422703.44001,-0.478767071030747,-0.338139925230793,-0.0598153658350498
1580422703.47223,-1.27956054016938,0.643320363164722,-0.0520027466239412
1580422703.50444,-1.18532082093538,0.367925535973143,0.048096437018387
1580422703.53665,-0.804455634393836,0.0612802319371326,0.0910658426794839
1580422703.56887,-0.92457465476463,-0.163820859082932,-0.031006332494087
1580422703.60108,-1.28249027237354,1.65065995269703,0.201419089036392
1580422703.63329,-0.779552910658428,0.174074921797512,0.0632333867399097
1580422703.66551,-0.818127718013276,0.319584954604409,0.0329594872968642
1580422703.69772,-0.819592584115359,0.183840695811398,-0.0920424200808725
1580422703.72994,-1.15602349889372,0.096437018387121,-0.044678416113527
1580422703.76215,-1.19752803845273,0.165774013885709,0.548104066529337
1580422703.79436,-1.32252994583047,0.198977645532921,0.135988403143358
1580422703.82658,-1.33473716334783,0.223880369268329,0.156496528572518
1580422703.85879,-1.30788128480964,0.210696574349583,0.29126420996414
1580422703.89101,-1.36794079499504,0.244876783398183,0.428473334859234
1580422703.92322,-1.14576943617914,-0.024170290684367,-0.0500495918211641
1580422703.95543,-1.71120775158312,0.0285648889906156,-0.495857175555047
1580422703.98765,-1.64431219958801,0.307866025787746,-0.551033798733501
1580422704.01986,-1.67995727473869,0.0900892652780954,0.108644235904478
1580422704.05207,-1.28004882887007,-0.0720225833524069,-0.0441901274128327
1580422704.08429,-1.13649195086595,0.158937972075989,-0.174563210498206
1580422704.1165,-0.743907835507743,0.130617227435721,-0.151125352864881
1580422704.14871,-0.320073243305105,0.0905775539787896,-0.23999389639124
1580422704.18093,-0.0676279850461583,0.0427252613107498,-0.404547188525216
1580422704.21314,0.0598153658350498,0.302006561379415,-0.478278782330053
1580422704.24535,-0.471442740520333,-0.0583504997329669,0.406500343327991
1580422704.27757,-1.19069199664301,-1.04127565423056,1.85622949568933
1580422704.30978,-1.396749828336,-0.359624628061342,2.04129091325246
1580422704.342,-0.843030441748684,0.114991989013504,0.168703746089875
1580422704.37424,-1.00563057907988,-0.0710460059510183,0.528572518501566
1580422704.40645,-1.00465400167849,-0.140383001449607,0.860120546272984
1580422704.43866,-1.11989013504234,0.126710917830167,0.144777599755855
1580422704.47088,-0.742931258106355,0.107179369802395,-0.218997482261386
1580422704.50309,-0.973891813534753,0.609628442816817,-0.251712825207905
1580422704.53531,-1.3625696192874,0.498298619058517,0.0290531776913099
1580422704.56752,-0.85963225757229,0.0837415121690697,0.115968566414892
1580422704.59973,-0.853772793163959,-0.099855039291981,0.00610360875867855
1580422704.63195,-0.644296940566109,-0.679453727016098,0.0622568093385212
1580422704.66416,-0.77418173495079,0.170168612191958,0.155519951171129
1580422704.69637,-0.689707789730678,0.283939879453726,-0.024170290684367
1580422704.72859,-0.855725947966736,0.323979552910657,-0.159426260776684
1580422704.7608,-1.10963607232776,0.134523537041275,0.176028076600289
1580422704.79302,-1.19996948195621,0.0661631189440754,0.536873426413369
1580422704.82523,-1.34987411306935,0.0593270771343555,0.187258716716258
1580422704.85744,-1.37331197070268,0.280033569848172,0.0271000228885327
1580422704.88966,-1.39919127183948,0.442145418478674,0.296147096971083
1580422704.92187,-1.38258945601587,0.257572289616235,0.427496757457845
1580422704.95408,-1.12623788815137,0.00903334096284425,-0.0559090562294955
1580422704.9863,-1.63259327077134,0.0349126420996413,-0.854261081864653
1580422705.01851,-1.46852826733806,0.364019226367589,-0.111573968108644
1580422705.05072,-1.78005645838102,0.223392080567635,0.0427252613107498
1580422705.08294,-1.28346684977493,-0.0197756923781185,-0.034424353398947
1580422705.11515,-1.12916762035553,0.0588387884336612,-0.191653315022506
1580422705.14736,-0.679453727016098,0.0886243991760125,-0.063721675440604
1580422705.17958,-0.319096665903716,-0.0227054245822842,-0.116945143816281
1580422705.21179,-0.158937972075989,0.000244144350347142,-0.52466620889601
1580422705.24401,-0.0246585793850613,0.26733806363012,-0.888441290913253
1580422705.27622,-0.622812237735561,-0.217044327458609,1.36549935149157
1580422705.30843,-1.34206149385824,-1.00172426947433,1.19313344014649
1580422705.34065,-0.961196307316701,0.449958037689782,1.45729762722209
1580422705.37286,-0.643808651865415,0.322514686808574,0.0393072404058898
1580422705.40507,-1.05397116044862,-0.0944838635843439,0.224856946669718
1580422705.43729,-1.64870679789425,-0.560799572747387,1.01441977569238
1580422705.4695,-0.858655680170902,-0.0329594872968642,-0.187747005416952
1580422705.50172,-0.82545204852369,0.641367208361945,-0.0417486839093613
1580422705.53393,-1.27174792095827,0.915297169451438,-0.112062256809338
1580422705.56614,-0.95875486381323,0.39038681620508,0.137453269245441
1580422705.59836,-0.823987182421607,-0.173098344396124,0.0554207675288012
1580422705.63057,-0.893324177920196,-0.244876783398183,0.185305561913481
1580422705.66275,-0.78785381857023,-0.0046387426565957,0.103761348897535
1580422705.69496,-0.78785381857023,0.176028076600289,-0.00805676356145568
1580422705.72718,-0.824963759822996,0.367437247272449,-0.0744640268558783
1580422705.75939,-1.03395132372015,0.31860837720302,-0.0153810940718699
1580422705.7916,-1.1662775616083,0.167727168688486,0.609628442816817
1580422705.82382,-1.2605172808423,0.00610360875867855,0.0100099183642328
1580422705.85603,-1.37038223849851,0.231204699778743,0.106202792401007
1580422705.88825,-1.41823453116655,0.286381322957197,0.312748912794689
1580422705.92046,-1.49733730067903,0.280033569848172,0.402594033722437
1580422705.95267,-1.25758754863813,0.0588387884336612,-0.115968566414892
1580422705.98489,-1.60915541313802,-0.0466315709163041,-0.981704432745861
1580422706.0171,-1.43337148088808,0.439215686274508,-0.386968795300222
1580422706.04931,-1.73073929961089,0.0837415121690697,0.122804608224612
1580422706.08153,-1.32204165712978,0.0402838178072784,0.0217288471808956
1580422706.11374,-1.11842526894026,0.0134279392690928,-0.199465934233615
1580422706.14595,-0.71509880216678,0.0466315709163041,-0.140871290150301
1580422706.17817,-0.379156176089113,-0.00854505226214997,-0.12133974212253
1580422706.21038,-0.160402838178072,-0.027588311589227,-0.341069657434959
1580422706.2426,-0.0129396505683985,0.108155947203784,-0.546150911726558
1580422706.27481,-0.448493171587701,0.214602883955138,-0.149172198062104
1580422706.30702,-1.15944151979858,-0.647714961470969,1.9695124742504
1580422706.33924,-1.63942931258106,-0.39478141451133,2.25857938506142
1580422706.37145,-0.610605020218204,0.041260395208667,0.0539559014267184
1580422706.40366,-1.05690089265278,0.156496528572518,0.241947051194018
1580422706.43588,-1.10182345311665,-0.0632333867399097,0.289799343862057
1580422706.46809,-1.46706340123598,-0.0734874494544897,0.0192874036774242
1580422706.50031,-0.74927901121538,0.343999389639123,-0.511482413977264
1580422706.53252,-0.847425040054933,0.252201113908598,-0.169192034790569
1580422706.56473,-1.3283894102388,0.364507515068283,-0.00805676356145568
1580422706.59695,-0.845471885252156,-0.0476081483176927,0.196536202029449
1580422706.62916,-0.812268253604945,-0.161867704280155,0.00854505226214997
1580422706.66137,-0.927016098268101,0.509040970473794,0.266361486228732
1580422706.69359,-0.777111467154956,0.31860837720302,0.105226214999618
1580422706.7258,-0.731700617990386,0.360601205462729,-0.0207522697795071
1580422706.75801,-0.875257495994507,0.204348821240558,-0.00708018616006711
1580422706.79023,-1.06520180056458,-0.077393759060044,0.205325398641946
1580422706.82244,-1.31471732661936,0.204837109941252,0.247318226901655
1580422706.85466,-1.32350652323186,0.261478599221789,0.227786678873883
1580422706.88687,-1.34889753566796,0.328374151216906,0.0207522697795071
1580422706.91908,-1.46901655603876,0.337163347829403,0.256107423514152
1580422706.95135,-1.3029983978027,0.193606469825284,0.47583733882658
1580422706.98357,-1.20680552376593,-0.10424963759823,-0.380621042191196
1580422707.01578,-1.52224002441443,0.33228046082246,-0.253665980010682
1580422707.048,-1.32106507972839,0.385015640497443,-0.612069886320286
1580422707.08021,-1.70241855497063,-0.0529793240253298,0.0324711985961699
1580422707.11242,-1.14528114747845,0.0334477759975584,-0.0822766460669868
1580422707.14464,-0.946059357595178,-0.0046387426565957,-0.0676279850461583
1580422707.17685,-0.745372701609826,0.0915541313801782,-0.117433432516975
1580422707.20906,-0.534431982909895,0.113038834210727,-0.311772335393302
1580422707.24128,-0.289311055161365,0.0290531776913099,-0.331792172121768
1580422707.27349,-0.340581368734265,-0.198001068131532,-0.0695811398489354
1580422707.3057,-0.261478599221791,-0.0129396505683985,0.446051728084228
1580422707.33792,-0.936781872281987,-0.780529488059816,1.51052109559777
1580422707.37013,-1.33522545204852,0.481696803234911,1.72292668039979
1580422707.40235,-0.598886091401541,0.180422674906538,-0.00952162966353853
1580422707.43456,-1.09596398870832,-0.0910658426794839,1.38893720912489
1580422707.46677,-1.61843289845121,-0.36401922636759,0.823498893720913
1580422707.49899,-0.943129625391013,0.572030212863357,-0.0100099183642328
1580422707.5312,-0.68433661402304,0.4314030670634,-0.304448004882888
1580422707.56341,-1.49489585717556,0.618417639429314,-0.0534676127260241
1580422707.59563,-1.10914778362707,0.159426260776684,0.106691081101701
1580422707.62784,-0.799084458686199,-0.0944838635843439,-0.0104982070649271
1580422707.66006,-0.877210650797284,0.0886243991760125,0.0793469138628211
1580422707.69227,-0.81861600671397,0.202883955138475,0.207278553444723
1580422707.72448,-0.800549324788282,0.416754406042571,0.0822766460669868
1580422707.7567,-0.823498893720913,0.229251544975966,-0.114015411612115
1580422707.78891,-1.03248645761807,-0.0334477759975584,0.135500114442664
1580422707.82112,-1.14772259098192,-0.172121766994735,0.561287861448083
1580422707.85334,-1.21608300907912,0.135011825741969,-0.0178225375753414
1580422707.88555,-1.26442359044785,0.526619363698789,0.130128938735027
1580422707.91776,-1.26393530174716,0.262943465323872,0.240482185091935
1580422707.94998,-1.3547570000763,0.237552452887769,0.36646066987106
1580422707.98219,-1.1067063401236,0.12133974212253,-0.000732433051041426
1580422708.01441,-1.58132295719844,-0.0534676127260241,-0.36060120546273
1580422708.04662,-1.52077515831235,0.194583047226672,-0.459235523002976
1580422708.07883,-1.74782940413519,0.0886243991760125,-0.169680323491264
1580422708.11105,-1.5422598611429,-0.0700694285496297,0.225345235370412
1580422708.14326,-1.24245059891661,0.0744640268558783,-0.0700694285496297
1580422708.17547,-0.89039444571603,0.114015411612115,-0.0651865415426869
1580422708.20769,-0.539314869916838,0.152590218966964,-0.146730754558632
1580422708.23999,-0.239017318989852,0.0573739223315783,-0.259525444419014
1580422708.2722,-0.108644235904478,-0.0534676127260241,-0.410406652933547
1580422708.30442,-0.0979018844892039,0.377691309987028,-1.02906843671321
1580422708.33663,-0.795178149080645,-0.42554360265507,1.25270466163119
1580422708.36884,-1.55642023346303,-1.10475318532082,1.8845502403296
1580422708.40106,-0.70142671854734,-0.000244144350347142,0.473395895323108
1580422708.43327,-0.94166475928893,0.220950637064163,0.321538109407186
1580422708.46549,-0.926039520866713,0.30835431448844,0.0417486839093613
1580422708.4977,-1.63796444647898,0.0153810940718699,-0.00317387655451284
1580422708.52991,-0.799572747386893,0.0817883573662925,-0.471442740520333
1580422708.56213,-0.786388952468148,0.167727168688486,-0.156008239871824
1580422708.59434,-1.42165255207141,0.702891584649425,-0.0910658426794839
1580422708.62655,-0.865980010681316,0.185305561913481,0.195071335927366
1580422708.65877,-0.852307927061876,-0.221927214465552,0.0314946211947813
1580422708.69098,-0.863538567177844,-0.0456549935149155,0.0710460059510183
1580422708.72319,-0.771252002746625,0.202883955138475,0.0764171816586554
1580422708.75541,-0.758556496528573,0.387945372701608,0.0456549935149155
1580422708.78762,-0.857190814068819,0.316166933699549,-0.0690928511482412
1580422708.81984,-0.956313420309758,0.0476081483176927,-0.0251468680857556
1580422708.85205,-1.27174792095827,0.0402838178072784,0.415777828641183
1580422708.88426,-1.29860379949645,0.0290531776913099,0.238529030289158
1580422708.91648,-1.32155336842908,0.24682993820096,0.067139696345464
1580422708.94869,-1.30641641870756,0.279545281147477,0.214114595254443
1580422708.9809,-1.43337148088808,0.331792172121766,0.25024795910582
1580422709.01312,-1.22340733958953,0.220950637064163,0.368902113374531
1580422709.04533,-1.41579308766308,0.0324711985961699,-0.46655985351339
1580422709.07755,-1.51735713740749,0.0939955748836496,-0.218509193560692
1580422709.10976,-1.87820248722057,0.0192874036774242,0.232669565880826
1580422709.14197,-1.49050125886931,-0.0769054703593497,-0.0876478217746239
1580422709.17419,-1.1574883649958,0.27075608453498,-0.167238879987792
1580422709.2064,-0.80836194399939,0.343999389639123,-0.232181277180132
1580422709.23861,-0.512947280079347,0.216556038757915,-0.113527122911421
1580422709.27083,-0.167238879987792,-0.0476081483176927,-0.168215457389181
1580422709.30304,0.024170290684367,-0.0803234912642097,-0.45288776989395
1580422709.33525,-0.156496528572518,-0.0915541313801782,-1.2522163729305
1580422709.36747,-0.944106202792401,-1.08424505989166,2.38113984893568
1580422709.39968,-1.68972304875257,-0.414801251239796,1.19801632715343
1580422709.4319,-0.699961852445258,0.353765163653009,-0.0676279850461583
1580422709.46411,-0.414312962539102,0.615976195925843,0.741954680704968
1580422709.49632,-1.30397497520409,-0.0437018387121384,-0.210208285648889
1580422709.5285,-2.2087739375906,-0.258060578316931,0.197512779430838
1580422709.56072,-0.581307698176547,-0.231204699778743,-0.510505836575875
1580422709.59293,-0.615976195925841,-0.0842298008697639,-0.0417486839093613
1580422709.62514,-1.35231555657282,0.919203479056993,-0.270756084534982
1580422709.65736,-0.798596169985505,0.496833752956434,0.132570382238498
1580422709.68957,-0.860608834973679,0.0520027466239412,-0.0124513618677042
1580422709.72178,-0.984145876249332,-0.0046387426565957,0.103761348897535
1580422709.754,-0.823010605020219,0.0432135500114441,0.0563973449301898
1580422709.78621,-0.905043106736859,0.25708400091554,-0.00219729915312428
1580422709.81842,-0.834729533836882,0.182864118410009,0.096437018387121
1580422709.85063,-1.01051346608682,0.0129396505683985,0.224368657969023
1580422709.88285,-1.26393530174716,0.0871595330739297,0.247318226901655
1580422709.91506,-1.243427176318,0.208255130846112,0.175051499198901
1580422709.94727,-1.18678568703746,0.184328984512092,0.141847867551689
1580422709.97949,-1.51931029221027,0.220950637064163,0.335210193026626
1580422710.0117,-1.40651560234989,0.225833524071106,0.477790493629357
1580422710.04391,-1.34157320515755,0.149660486762798,-0.266849774929428
1580422710.07613,-1.81277180132754,0.0632333867399097,-0.741466392004272
1580422710.10834,-1.53005264362554,0.154543373769741,-0.0944838635843439
1580422710.14055,-1.6018310826276,-0.01196307316701,0.176028076600289
1580422710.17277,-1.27174792095827,0.0954604409857325,-0.00805676356145568
1580422710.20498,-0.935317006179904,0.0856946669718468,-0.166750591287098
1580422710.23719,-0.615487907225146,0.0939955748836496,-0.114015411612115
1580422710.26941,-0.320561532005799,-0.0124513618677042,-0.162844281681544
1580422710.30162,-0.110597390707255,-0.0710460059510183,-0.337163347829405
1580422710.33383,0.0813000686655982,0.2434119172961,-0.526131074998093
1580422710.36605,-0.511482413977264,-0.00854505226214997,0.240482185091935
1580422710.39826,-1.16969558251316,-0.74927901121538,1.6706797894255
1580422710.43047,-1.85134660868238,-0.515877012283513,2.35965514610513
1580422710.46269,-0.684824902723735,0.0358892195010299,0.368413824673837
1580422710.4949,-1.33180743114366,-0.0202639810788128,0.136964980544747
1580422710.52711,-1.15260547798886,0.146242465857938,1.6877698939498
1580422710.55933,-0.925062943465324,-0.0524910353246355,-0.0397955291065841
1580422710.59154,-0.707774471656366,0.237064164187075,-0.581795986877241
1580422710.62375,-1.07985046158541,0.389410238803691,0.080811779964904
1580422710.65596,-1.24391546501869,0.34253452353704,0.0827649347676811
1580422710.68818,-0.748790722514686,0.102296482795452,0.12475776302739
1580422710.72039,-0.82203402761883,0.11108567940795,-0.0251468680857556
1580422710.7526,-0.516853589684901,-2.43680476081483,-0.291264209964142
1580422710.78482,-0.830823224231327,0.115480277714198,0.199465934233615
1580422710.81714,-0.736095216296635,0.189700160219729,-0.0710460059510183
1580422710.84935,-0.874280918593119,0.217044327458609,-0.481696803234913
1580422710.88157,-1.10182345311665,0.364019226367589,0.327397573815517
1580422710.91378,-1.22877851529717,0.133546959639887,0.42456702525368
1580422710.94599,-1.43044174868391,-0.187258716716258,0.11792172121767
1580422710.97821,-1.38258945601587,0.302006561379415,0.125734340428778
1580422711.01042,-1.49587243457694,0.467536430914777,0.231692988479438
1580422711.04263,-1.33815518425269,0.144289311055161,0.47583733882658
1580422711.07485,-1.24489204242008,-0.129640650034332,-0.188235294117646
1580422711.10706,-1.850370031281,-0.0583504997329669,-0.786388952468148
1580422711.13927,-1.61794460975051,0.687754634927902,-0.378179598687725
1580422711.17149,-1.57204547188525,0.135988403143358,0.244876783398183
1580422711.2037,-1.18678568703746,0.0666514076447697,-0.101319905394064
1580422711.23592,-0.965102616922255,0.104737926298924,-0.190676737621118
1580422711.26813,-0.518806744487678,0.0627450980392155,-0.0891126878767068
1580422711.30034,-0.220950637064163,0.00854505226214997,-0.220462348363469
1580422711.33256,-0.115968566414892,0.0617685206378269,-0.583260852979324
1580422711.36477,-0.107179369802395,0.250736247806515,-0.649668116273746
1580422711.39698,-0.667246509498741,-0.0988784618905925,1.23121995880064
1580422711.4292,-1.58278782330053,-1.44411383230335,1.32985427634089
1580422711.46141,-0.940688181887541,0.263431754024566,2.07937743190661
1580422711.49363,-0.782970931563288,0.181399252307926,-0.130617227435721
1580422711.52584,-0.738536659800106,0.152101930266269,1.44899671931029
1580422711.55805,-1.585229266804,0.108155947203784,0.328374151216906
1580422711.59027,-1.1916685740444,0.307377737087052,0.166262302586404
1580422711.62248,-0.682383459220263,0.402594033722437,-0.0827649347676811
1580422711.65469,-1.16383611810483,0.552010376134891,-0.0871595330739297
1580422711.68691,-1.16774242771038,0.258548867017623,0.0754406042572668
1580422711.71912,-0.759044785229268,-0.0720225833524069,0.0217288471808956
1580422711.75133,-0.950453955901427,-0.0617685206378269,0.0207522697795071
1580422711.78355,-0.849866483558404,0.116945143816281,0.077393759060044
1580422711.81576,-0.770275425345236,0.199465934233615,-0.00170901045242999
1580422711.84798,-0.677012283512626,0.30151827267872,-0.216067750057221
1580422711.88019,-1.00465400167849,0.149172198062104,0.0202639810788128
1580422711.9124,-1.19459830624857,0.0695811398489354,0.489021133745325
1580422711.94462,-1.28297856107424,0.180422674906538,0.219485770962081
1580422711.97683,-1.28444342717632,0.240970473792629,0.173098344396124
1580422712.00904,-1.36696421759365,0.27075608453498,0.0842298008697639
1580422712.04126,-1.52321660181582,0.285404745555809,0.352300297550926
1580422712.07347,-1.1916685740444,0.0520027466239412,0.299565117875943
1580422712.10577,-1.45583276112001,0.125246051728084,-0.324956130312048
1580422712.13799,-1.38503089951934,0.2434119172961,-0.576913099870298
1580422712.1702,-1.92556649118792,0.307866025787746,0.239505607690546
1580422712.20241,-1.41091020065614,-0.0187991149767299,-0.105714503700312
1580422712.23463,-1.25905241474022,0.0207522697795071,-0.0349126420996413
1580422712.26684,-0.902601663233387,0.151613641565575,-0.12133974212253
1580422712.29906,-0.543221179522392,0.176516365300984,-0.138918135347524
1580422712.33127,-0.200930800335698,0.0822766460669868,-0.315190356298162
1580422712.36348,-0.0954604409857325,0.0441901274128327,-0.55201037613489
1580422712.3957,-0.199465934233615,0.229251544975966,-0.771252002746625
1580422712.42791,-0.686289768825818,-0.727794308384832,1.71120775158312
1580422712.46012,-1.77859159227894,-0.679453727016098,1.64577706569009
1580422712.49234,-0.714610513466086,0.00708018616006711,-0.0466315709163041
1580422712.52455,-0.94508278019379,0.233646143282215,0.687266346227208
1580422712.55676,-1.40016784924086,-0.0661631189440754,0.211673151750972
1580422712.58898,-1.62624551766232,0.596932936598765,-0.034424353398947
1580422712.62119,-0.613534752422369,-0.0334477759975584,-0.203372243839169
1580422712.65341,-1.07447928587777,0.317143511100937,-0.38110933089189
1580422712.68562,-1.38747234302281,0.45191119249256,0.0695811398489354
1580422712.71783,-0.791760128175785,0.160891126878766,0.106691081101701
1580422712.75005,-0.848401617456322,0.0256351567864499,0.0441901274128327
1580422712.78226,-0.85963225757229,0.409430075532157,0.291752498664835
1580422712.81447,-0.758556496528573,0.239505607690546,0.149172198062104
1580422712.84669,-0.769787136644542,0.305912870984969,-0.151613641565575
1580422712.8789,-0.918226901655604,0.0559090562294955,0.0485847257190812
1580422712.91112,-1.0720378423743,-0.153078507667658,0.352300297550926
1580422712.94333,-1.18385595483329,0.0422369726100555,0.0944838635843439
1580422712.97554,-1.31081101701381,0.266849774929426,0.0583504997329669
1580422713.00776,-1.30543984130617,0.268802929732203,0.229251544975966
1580422713.03997,-1.49294270237278,0.365972381170366,0.283939879453726
1580422713.07218,-1.38747234302281,0.429449912260623,0.487067978942548
1580422713.1044,-1.25075150682841,0.118410009918364,-0.415777828641184
1580422713.13661,-1.45778591592279,-0.0944838635843439,-0.70142671854734
1580422713.16882,-1.8332799267567,0.158937972075989,0.142824444953078
1580422713.20104,-1.55300221255817,-0.106691081101701,-0.0158693827725642
1580422713.23325,-1.30055695429923,0.0881361104753182,-0.0847180895704582
1580422713.26547,-1.02858014801251,0.30493629358358,-0.238529030289158
1580422713.29768,-0.597421225299458,0.286381322957197,-0.158937972075989
1580422713.32989,-0.295170519569696,0.136476691844052,-0.358159761959259
1580422713.36211,-0.165285725185015,0.0524910353246355,-0.474860761425193
1580422713.39438,-0.176516365300984,0.202395666437781,-0.55201037613489
1580422713.42659,-0.562752727550164,-0.445075150682841,1.22975509269856
1580422713.45881,-1.3205767910277,-0.954360265506981,1.4226291294728
1580422713.49102,-0.898695353627833,0.216556038757915,1.00904859998474
1580422713.52323,-0.738536659800106,0.101319905394064,0.103273060196841
1580422713.55545,-0.894300755321584,-0.161379415579461,1.01393148699168
1580422713.58766,-1.7820096131838,0.0373540856031127,1.09352254520485
1580422713.61987,-1.1320973525597,0.652597848477914,0.180422674906538
1580422713.65209,-0.554940108339055,-0.207278553444723,-0.132570382238498
1580422713.6843,-1.3713588158999,0.582284275577937,-0.135988403143358
1580422713.71651,-1.27907225146868,0.303471427481497,0.0871595330739297
1580422713.74873,-0.761486228732739,0.0124513618677042,0.0700694285496297
1580422713.78094,-0.909437705043107,0.0354009308003356,0.0949721522850382
1580422713.81316,-0.815686274509805,-0.204348821240558,0.136964980544747
1580422713.84537,-0.688242923628595,0.201907377737086,0.145265888456549
1580422713.87758,-0.823010605020219,0.337651636530097,-0.0554207675288012
1580422713.9098,-0.844495307850767,0.290775921263446,-0.124269474326695
1580422713.94201,-1.04859998474098,0.249271381704432,0.228763256275272
1580422713.97423,-1.29860379949645,-0.0397955291065841,0.460700389105057
1580422714.00644,-1.2946974898909,-0.173586633096818,-0.00219729915312428
1580422714.03865,-1.3283894102388,0.304448004882886,0.0427252613107498
1580422714.07087,-1.53933012893873,0.582284275577937,0.235599298084992
1580422714.10308,-1.26295872434577,0.169680323491264,0.395757991912717
1580422714.13529,-1.29176775768673,0.0651865415426869,-0.0578622110322726
1580422714.16751,-1.65261310749981,-0.0246585793850613,-0.631601434348058
1580422714.19972,-1.62868696116579,0.539803158617534,-0.371343556878005
1580422714.23193,-1.57692835889219,-0.027588311589227,0.134523537041275
1580422714.26415,-1.2346379797055,-0.0554207675288012,-0.041260395208667
1580422714.29636,-0.96217288471809,0.113527122911421,-0.157961394674601
1580422714.32857,-0.595468070496681,0.185305561913481,-0.070557717250324
1580422714.36079,-0.311772335393302,0.114015411612115,-0.181399252307926
1580422714.393,-0.198977645532921,0.01196307316701,-0.451911192492561
1580422714.42522,-0.203372243839169,-0.120851453421835,-0.39478141451133
1580422714.45743,-0.575448233768215,-0.146730754558632,0.83228809033341
1580422714.48964,-1.39284351873045,-0.99635309376669,1.10182345311665
1580422714.52186,-0.875257495994507,-0.0144045166704814,2.17752346074617
1580422714.55407,-0.56910048065919,0.073975738155184,0.135011825741969
1580422714.58628,-1.02174410620279,0.603280689707791,0.640390630960557
1580422714.6185,-1.89333943694209,0.0935072861829553,1.20289921416037
1580422714.65071,-0.983657587548638,0.267826352330815,0.110109102006561
1580422714.68301,-0.579842832074464,-0.174074921797512,-0.0490730144197755
1580422714.71523,-1.33864347295338,0.621835660334174,-0.10083161669337
1580422714.74744,-1.12965590905623,0.334721904325932,0.0959487296864268
1580422714.77966,-0.794201571679256,-0.0471198596169984,0.0363775082017241
1580422714.81187,-0.84254215304799,-0.247318226901655,0.0578622110322726
1580422714.84408,-0.845471885252156,0.115480277714198,0.102784771496147
1580422714.8763,-0.783947508964676,0.226810101472495,0.0256351567864499
1580422714.90851,-0.775646601052873,0.241458762493323,-0.0617685206378269
1580422714.94073,-0.956313420309758,0.105714503700312,0.109620813305867
1580422714.97294,-1.11793698023957,0.120851453421835,0.281986724650949
1580422715.00515,-1.36452277409018,0.266361486228732,0.221927214465552
1580422715.03737,-1.35866330968185,0.241458762493323,0.199954222934309
1580422715.06958,-1.46315709163043,0.138429846646829,0.288822766460669
1580422715.1018,-1.46266880292973,0.229739833676661,0.516853589684903
1580422715.13401,-1.1150072480354,0.177492942702372,0.141359578850995
1580422715.16623,-1.62526894026093,-0.0334477759975584,-0.745372701609826
1580422715.19844,-1.52614633401999,0.553475242236974,-0.404058899824522
1580422715.23065,-1.65993743801022,0.0715342946517126,0.123292896925307
1580422715.26287,-1.28688487067979,-0.067139696345464,-0.0114747844663157
1580422715.29508,-1.03150988021668,0.141847867551689,-0.174074921797512
1580422715.3273,-0.7048447394522,0.129640650034332,-0.0329594872968642
1580422715.35951,-0.420172426947433,0.105714503700312,-0.142824444953078
1580422715.39172,-0.207278553444723,0.0363775082017241,-0.399664301518273
1580422715.42394,-0.0930189974822611,-0.0939955748836496,-0.358159761959259
1580422715.45615,-0.34009308003357,-0.00317387655451284,0.241458762493323
1580422715.48837,-1.12086671244373,-0.939223315785458,1.83035019455253
1580422715.52058,-1.50759136339361,-0.0822766460669868,2.13064774547951
1580422715.5528,-0.637949187457084,0.185793850614175,0.0749523155565726
1580422715.58501,-0.991958495460441,-0.0422369726100555,0.690684367132068
1580422715.61722,-1.30104524299992,-0.0568856336308841,0.144777599755855
1580422715.64944,-1.4231174181735,0.0837415121690697,0.00122072175173571
1580422715.68165,-0.719981689173723,0.167727168688486,-0.450934615091173
1580422715.71387,-0.954360265506981,0.28784618905928,-0.099855039291981
1580422715.74608,-1.33376058594644,0.422613870450903,0.0192874036774242
1580422715.7783,-0.747325856412603,0.0598153658350498,0.204348821240558
1580422715.81051,-0.806408789196613,0.0900892652780954,0.0261234454871442
1580422715.84272,-0.882093537804227,-0.558358129243915,-0.116456855115587
1580422715.87494,-0.808850232700085,0.077393759060044,0.125246051728084
1580422715.90715,-0.80152590218967,0.160402838178072,0.0993667505912867
1580422715.93937,-0.752697032120242,0.11108567940795,-0.207766842145418
1580422715.97162,-1.05104142824445,0.252201113908598,0.0397955291065841
1580422716.00383,-1.28102540627146,0.23657587548638,0.513923857480737
1580422716.03605,-1.27956054016938,0.0925307087815668,0.133546959639887
1580422716.06826,-1.33180743114366,0.177004654001678,0.116456855115587
1580422716.10048,-1.47780575265126,0.340581368734263,0.203860532539863
1580422716.13269,-1.43337148088808,0.184817273212786,0.393316548409246
1580422716.16491,-1.21803616388189,0.0915541313801782,0.0168459601739528
1580422716.19712,-1.59694819562066,-0.266849774929428,-0.756115053025102
1580422716.22933,-1.60866712443732,0.33228046082246,-0.283451590753033
1580422716.26155,-1.54128328374151,0.125734340428778,-0.0168459601739528
1580422716.29376,-1.1745784695201,0.117433432516975,-0.0598153658350498
1580422716.32598,-0.949477378500038,0.251712825207903,-0.209719996948195
1580422716.35819,-0.663340199893186,0.204348821240558,-0.0954604409857325
1580422716.39041,-0.447028305485619,0.0437018387121384,-0.112550545510032
1580422716.42262,-0.259037155718319,0.00317387655451284,-0.251224536507211
1580422716.45484,-0.202883955138475,-0.0896009765774011,-0.311284046692608
1580422716.48705,-0.34351110093843,0.0783703364614325,-0.224368657969023
1580422716.51927,-0.896253910124361,-0.712657358663309,1.4563210498207
1580422716.55148,-1.90505836575876,-0.334233615625239,1.94168001831083
1580422716.5837,-0.732677195391775,-0.037842374303807,0.4143129625391
1580422716.61591,-0.959243152513924,-0.00610360875867855,0.113038834210727
1580422716.64813,-0.810315098802167,0.264408331425955,1.03395132372015
1580422716.68034,-1.26832990005341,0.0695811398489354,0.231204699778743
1580422716.71255,-0.790783550774396,0.209231708247501,-0.214114595254443
1580422716.74477,-0.666269932097352,0.137453269245441,-0.0778820477607383
1580422716.77698,-1.25954070344091,0.555916685740446,0.0368657969024184
1580422716.8092,-0.935805294880598,0.287357900358586,0.150148775463492
1580422716.84141,-0.839612420843824,0.0700694285496297,0.0192874036774242
1580422716.87363,-0.912855725947967,0.12133974212253,0.0363775082017241
1580422716.90584,-0.785412375066759,0.0983901731898982,0.041260395208667
1580422716.93806,-0.756603341725796,0.158937972075989,-0.0358892195010299
1580422716.97027,-0.84937819485771,0.201907377737086,-0.133058670939192
1580422717.00249,-0.96559090562295,0.0388189517051956,-0.126222629129472
1580422717.0347,-1.26979476615549,0.169192034790569,0.687754634927902
1580422717.06692,-1.25123979552911,0.0227054245822842,0.261478599221789
1580422717.09913,-1.3371786068513,0.216067750057221,0.0456549935149155
1580422717.13135,-1.39382009613184,0.354253452353703,0.330327306019683
1580422717.16356,-1.51393911650263,0.247806515602349,0.327885862516212
1580422717.19578,-1.27077134355688,0.23999389639124,0.103273060196841
1580422717.22799,-1.59499504081788,-0.238529030289158,-1.1833676661326
1580422717.26025,-1.57106889448386,0.326909285114823,-0.222415503166246
1580422717.29247,-1.63210498207065,0.150148775463492,0.111573968108644
1580422717.32468,-1.31569390402075,0.0202639810788128,-0.00268558785381856
1580422717.3569,-1.06959639887083,0.234134431982909,-0.198489356832226
1580422717.38911,-0.712169069962615,0.226810101472495,-0.129640650034332
1580422717.42133,-0.379644464789807,0.0720225833524069,-0.12133974212253
1580422717.45354,-0.191165026321812,0.0104982070649271,-0.348393987945373
1580422717.48576,-0.0656748302433812,-0.0295414663920042,-0.490974288548104
1580422717.51797,-0.369878690775922,0.226321812771801,-0.547615777828641
1580422717.55018,-1.00660715648127,-0.71168078126192,1.3972381170367
1580422717.5824,-1.98074311436637,-0.530037384603647,2.07888914320592
1580422717.61461,-0.724864576180666,-0.0607919432364383,0.248783093003738
1580422717.64683,-0.983169298847944,0.158449683375295,-0.0393072404058898
1580422717.67904,-0.96559090562295,0.365972381170366,1.5422598611429
1580422717.71126,-1.25563439383536,0.292729076066223,0.0607919432364383
1580422717.74347,-0.926527809567407,0.308842603189134,-0.547615777828641
1580422717.77569,-0.6877546349279,-0.0959487296864268,-0.120363164721141
1580422717.8079,-1.31471732661936,0.4314030670634,0.113527122911421
1580422717.84012,-0.991470206759747,0.12133974212253,0.232181277180132
1580422717.87233,-0.722423132677195,0.0222171358815899,0.0832532234683754
1580422717.90455,-0.841077286945907,0.233646143282215,0.0354009308003356
1580422717.93676,-0.805920500495919,0.296147096971083,0.0534676127260241
1580422717.96898,-0.841565575646602,0.104737926298924,0.140383001449607
1580422718.00119,-0.820080872816053,0.2434119172961,-0.0236820019836728
1580422718.0334,-0.887953002212559,0.231204699778743,-0.12133974212253
1580422718.06562,-1.22975509269856,0.107179369802395,0.470954451819637
1580422718.09783,-1.30543984130617,0.0529793240253298,0.247806515602349
1580422718.13005,-1.33083085374228,0.166750591287098,0.080811779964904
1580422718.16226,-1.37282368200198,0.469977874418248,0.123292896925307
1580422718.19448,-1.57399862668803,0.312748912794689,0.331792172121766
1580422718.22669,-1.25514610513466,-0.113038834210727,0.179446097505149
1580422718.25891,-1.43288319218738,-0.135011825741969,-0.526131074998093
1580422718.29112,-1.61355001144427,0.47583733882658,-0.714610513466086
1580422718.32334,-1.58962386511025,0.30835431448844,0.140383001449607
1580422718.35555,-1.41530479896239,0.0598153658350498,0.0236820019836728
1580422718.38777,-1.10475318532082,0.129152361333638,-0.133546959639887
1580422718.41998,-0.758556496528573,-0.00805676356145568,-0.0891126878767068
1580422718.45219,-0.451422903791867,-0.0612802319371326,-0.110109102006561
1580422718.48441,-0.268802929732205,-0.00512703135728998,-0.268802929732205
1580422718.51662,-0.112550545510032,-0.0178225375753414,-0.521736476691844
1580422718.54886,-0.136964980544747,0.073975738155184,-0.577401388570992
1580422718.58107,-0.765880827038988,-0.482673380636301,1.72243839169909
1580422718.61329,-1.98757915617609,-0.197024490730143,1.52077515831235
1580422718.6455,-0.681895170519569,0.184328984512092,0.283939879453726
1580422718.67772,-0.96559090562295,-0.204837109941252,0.0515144579232469
1580422718.70993,-0.842053864347296,0.0124513618677042,0.0700694285496297
1580422718.74215,-1.57106889448386,-0.197024490730143,0.986587319752804
1580422718.77436,-0.787365529869536,0.591073472190434,-0.36743724727245
1580422718.80657,-0.720469977874417,0.2775921263447,0.0319829098954756
1580422718.83879,-1.25758754863813,0.599374380102237,-0.0925307087815668
1580422718.871,-0.980727855344472,0.213626306553749,0.188723582818341
1580422718.90322,-0.759044785229268,0.0437018387121384,-0.0217288471808956
1580422718.93543,-0.90748455024033,-0.0441901274128327,0.102784771496147
1580422718.96765,-0.762951094834822,0.0583504997329669,0.129152361333638
1580422718.99986,-0.828381780727856,0.232181277180132,-0.0158693827725642
1580422719.03208,-0.797619592584116,0.291752498664835,-0.162844281681544
1580422719.06429,-0.990005340657664,0.134035248340581,0.124269474326695
1580422719.09651,-1.15944151979858,0.0510261692225527,0.495857175555045
1580422719.12872,-1.37477683680476,0.0734874494544897,-0.034424353398947
1580422719.16094,-1.31081101701381,0.177004654001678,0.247318226901655
1580422719.19315,-1.48659494926375,0.362554360265506,0.201419089036392
1580422719.22537,-1.5764400701915,0.303959716182192,0.535408560311286
1580422719.25758,-1.27174792095827,0.00561532005798426,-0.230228122377355
1580422719.28979,-1.53884184023804,-0.0285648889906156,-0.760509651331351
1580422719.32201,-1.46608682383459,0.343999389639123,-0.164797436484321
1580422719.35422,-1.74636453803311,0.0451667048142212,0.0856946669718468
1580422719.38644,-1.34450293736172,0.139894712748912,-0.0485847257190812
1580422719.41865,-1.00563057907988,-0.0129396505683985,-0.168215457389181
1580422719.45087,-0.594979781795987,-0.0661631189440754,-0.108155947203784
1580422719.48308,-0.372320134279393,-0.0354009308003356,-0.169192034790569
1580422719.5153,-0.138429846646829,-0.0593270771343555,-0.390386816205082
1580422719.54751,-0.00512703135728998,0.0749523155565726,-0.523689631494621
1580422719.57973,-0.427008468757153,-0.0124513618677042,0.848889906157016
1580422719.61194,-1.11305409323262,-0.706797894254978,1.40602731364919
1580422719.64416,-1.01197833218891,0.223880369268329,1.55788509956512
1580422719.67637,-1.00025940337224,0.0222171358815899,-0.0544441901274126
1580422719.70859,-1.02711528191043,-0.225345235370412,0.229739833676661
1580422719.7408,-1.55349050125887,-0.866956588082704,1.11256580453193
1580422719.77302,-0.728282597085526,0.625741969939728,-0.840588998245213
1580422719.80523,-0.567635614557107,0.507087815671017,0.0627450980392155
1580422719.83752,-1.41872281986725,0.670176241702908,-0.0422369726100555
1580422719.86974,-1.03932249942779,0.169680323491264,0.26392004272526
1580422719.90195,-0.755138475623713,-0.124269474326695,0.0681162737468526
1580422719.93417,-0.933852140077821,-0.0222171358815899,0.127199206530861
1580422719.96638,-0.877698939497979,0.109620813305867,0.0578622110322726
1580422719.9986,-0.835217822537576,0.198977645532921,0.096437018387121
1580422720.03081,-0.776623178454262,0.231204699778743,-0.0710460059510183
1580422720.06303,-0.795666437781339,0.130128938735027,-0.180910963607232
1580422720.09524,-1.05592431525139,0.125734340428778,0.231692988479438
1580422720.12746,-1.2522163729305,0.140871290150301,0.475349050125885
1580422720.15967,-1.31227588311589,0.0451667048142212,0.202395666437781
1580422720.19188,-1.38258945601587,0.222903791866941,0.252201113908598
1580422720.2241,-1.60036621652552,0.40747692072938,0.295658808270389
1580422720.25631,-1.33571374074922,0.287357900358586,0.225345235370412
1580422720.28853,-1.46657511253529,-0.188235294117646,-0.689219501029983
1580422720.32074,-1.70681315327687,0.379644464789806,-0.510017547875181
1580422720.35296,-1.7302510109102,0.359136339360646,0.0847180895704582
1580422720.38517,-1.37087052719921,-0.126710917830167,-0.0197756923781185
1580422720.41739,-1.12819104295415,0.123781185626001,-0.201419089036392
1580422720.4496,-0.790783550774396,0.184817273212786,-0.168703746089875
1580422720.48182,-0.444586861982147,0.0676279850461583,-0.113527122911421
1580422720.51403,-0.179934386205844,-0.0622568093385212,-0.196047913328755
1580422720.54625,-0.0393072404058898,-0.0334477759975584,-0.455817502098116
1580422720.57846,-0.177981231403066,0.357671473258563,-0.632578011749446
1580422720.61067,-0.778576333257039,-0.11450370031281,0.994399938963912
1580422720.64289,-1.567650873579,-0.789806973373008,2.0637521934844
1580422720.6751,-0.885999847409781,-0.00708018616006711,1.04957656214237
1580422720.70732,-1.15065232318608,0.0744640268558783,0.229739833676661
1580422720.73953,-1.20485236896315,-0.367925535973145,1.07447928587777
1580422720.77175,-0.879652094300756,-0.575936522468909,0.297611963073166
1580422720.80396,-1.38551918822004,0.382574196993971,0.388433661402303
1580422720.83618,-0.831799801632716,0.575448233768217,-0.181887541008621
1580422720.86839,-1.03981078812848,0.403082322423131,-0.0700694285496297
1580422720.90061,-1.31667048142214,0.214602883955138,0.152101930266269
1580422720.93282,-0.759044785229268,-0.0407721065079727,0.155031662470435
1580422720.96504,-0.861585412375067,0.041260395208667,0.0642099641412983
1580422720.99725,-0.807385366598002,0.192141603723201,0.0676279850461583
1580422721.02947,-0.757579919127185,0.158449683375295,0.112550545510032
1580422721.06168,-0.751720454718853,0.201907377737086,-0.0578622110322726
1580422721.09389,-0.886488136110476,0.12133974212253,-0.332280460822462
1580422721.12619,-1.17994964522774,0.294682230869,0.287357900358586
1580422721.1584,-1.26832990005341,0.0930189974822611,0.655039291981385
1580422721.19062,-1.28297856107424,-0.096437018387121,0.146730754558632
1580422721.22283,-1.40016784924086,0.161379415579461,0.23999389639124
1580422721.25505,-1.59401846341649,0.315678644998854,0.323979552910657
1580422721.28726,-1.28151369497215,0.0695811398489354,0.244876783398183
1580422721.31948,-1.28004882887007,0.0471198596169984,-0.489021133745327
1580422721.3517,-1.81081864652476,0.340093080033569,-0.617441062027924
1580422721.38391,-1.73415732051575,0.385992217898831,0.162844281681544
1580422721.41613,-1.4651102464332,-0.153566796368352,0.0549324788281069
1580422721.44834,-1.14283970397497,0.0690928511482412,-0.128175783932249
1580422721.48056,-0.768322270542459,0.224856946669718,-0.142336156252384
1580422721.51277,-0.427496757457847,0.155519951171129,-0.115480277714198
1580422721.54499,-0.212161440451666,0.027588311589227,-0.199465934233615
1580422721.5772,-0.169680323491264,-0.0231937132829785,-0.35718318455787
1580422721.60942,-0.133058670939192,0.160891126878766,-0.301518272678722
1580422721.64163,-0.620859082932784,-0.0329594872968642,0.504158083466852
1580422721.67385,-1.38649576562142,-0.937758449683376,2.32352178225376
1580422721.70606,-0.990493629358358,-0.0319829098954756,1.08717479209583
1580422721.73828,-1.06764324406805,-0.233646143282215,0.731212329289693
1580422721.77049,-0.966079194323644,-0.356206607156482,0.795666437781339
1580422721.80271,-1.03102159151598,0.0861829556725411,-0.159914549477378
1580422721.83492,-1.68435187304494,0.573983367666134,0.298588540474555
1580422721.86714,-0.797619592584116,0.0256351567864499,-0.384039063096056
1580422721.89935,-0.892347600518807,0.224856946669718,-0.161867704280155
1580422721.93157,-1.3283894102388,0.216067750057221,0.0666514076447697
1580422721.96378,-0.77759975585565,0.0388189517051956,0.193118181124589
1580422721.996,-0.909925993743801,0.096437018387121,0.041260395208667
1580422722.02821,-0.817639429312582,0.00952162966353853,0.0559090562294955
1580422722.06043,-0.782970931563288,0.129640650034332,0.141847867551689
1580422722.09264,-0.803967345693142,0.224856946669718,0.0769054703593497
1580422722.12486,-0.879652094300756,0.167727168688486,-0.135011825741969
1580422722.15707,-1.11305409323262,0.176516365300984,-0.133058670939192
1580422722.18929,-1.10377660791943,0.0280766002899213,0.579842832074466
1580422722.2215,-1.23219653620203,0.129640650034332,0.251712825207903
1580422722.25372,-1.43678950179294,0.229739833676661,0.104737926298924
1580422722.28593,-1.42507057297627,0.190676737621118,0.377203021286334
1580422722.31815,-1.48317692835889,0.070557717250324,0.474372472724497
1580422722.35036,-1.20338750286107,0.160891126878766,0.113038834210727
1580422722.38258,-1.82790875104906,0.000244144350347142,-1.04615854123751
1580422722.41489,-1.60915541313802,0.502204928664074,-0.369878690775922
1580422722.4471,-1.6706797894255,-0.0427252613107498,0.144289311055161
1580422722.47932,-1.37477683680476,-0.0754406042572668,-0.0046387426565957
1580422722.51153,-1.01588464179446,0.152101930266269,-0.204348821240558
1580422722.54375,-0.614023041123064,0.216067750057221,-0.145754177157244
1580422722.57596,-0.264896620126651,0.0715342946517126,-0.192629892423895
1580422722.60817,-0.118898298619058,0.0124513618677042,-0.469001297016861
1580422722.64039,-0.110597390707255,0.00366216525520713,-0.448004882887007
1580422722.6726,-0.595468070496681,0.203372243839169,-0.132082093537804
1580422722.70482,-1.09254596780346,-0.744884412909132,1.58571755550469
1580422722.73703,-1.68337529564355,-0.633066300450141,2.36600289921416
1580422722.76925,-0.793224994277868,-0.0295414663920042,0.159426260776684
1580422722.80146,-0.715587090867475,0.281986724650949,0.207766842145418
1580422722.83368,-0.948012512397955,0.313237201495383,0.373785000381474
1580422722.86589,-1.52565804531929,-0.322514686808576,0.260990310521095
1580422722.89811,-0.805920500495919,0.210208285648889,-0.568123903257801
1580422722.93032,-0.56910048065919,-0.388433661402305,0.0544441901274126
1580422722.96253,-1.43288319218738,0.627695124742505,-0.0896009765774011
1580422722.99475,-0.954360265506981,0.263431754024566,0.156496528572518
1580422723.02696,-0.792248416876479,0.137453269245441,0.0324711985961699
1580422723.05918,-0.894789044022279,0.173098344396124,0.0520027466239412
1580422723.09139,-0.849866483558404,0.152101930266269,0.115968566414892
1580422723.12361,-0.870374608987564,0.116456855115587,0.131105516136415
1580422723.15582,-0.76734569314107,0.0910658426794839,-0.073975738155184
1580422723.18804,-0.961196307316701,0.147219043259327,-0.138429846646829
1580422723.22025,-1.13405050736248,0.296147096971083,0.491462577248797
1580422723.25247,-1.18776226443885,0.155031662470435,0.320561532005797
1580422723.28468,-1.37526512550546,0.232181277180132,0.073975738155184
1580422723.3169,-1.39137865262837,0.193118181124589,0.283939879453726
1580422723.34911,-1.52028686961166,0.277103837644006,0.488044556343937
1580422723.38133,-1.25612268253605,0.131593804837109,0.106691081101701
1580422723.41354,-1.58327611200122,-0.0461432822156098,-0.844983596551462
1580422723.44576,-1.62917524986648,0.518318455786986,-0.438239108873121
1580422723.47797,-1.66872663462272,0.298588540474555,0.139894712748912
1580422723.51018,-1.38551918822004,0.153078507667658,-0.0100099183642328
1580422723.5424,-1.10328831921874,0.0358892195010299,-0.196536202029449
1580422723.57461,-0.70826276035706,-0.0363775082017241,-0.120363164721141
1580422723.60683,-0.342046234836348,-0.0686045624475469,-0.0695811398489354
1580422723.63904,-0.239505607690546,-0.106202792401007,-0.263920042725262
1580422723.67126,-0.0769054703593497,0.00805676356145568,-0.510505836575875
1580422723.70355,-0.395757991912719,0.356694895857174,-0.795178149080645
1580422723.73577,-0.957289997711147,-0.509040970473793,1.70290684367132
1580422723.76798,-1.73952849622339,-0.801037613488976,2.10916304264897
1580422723.8002,-0.959243152513924,-0.262943465323874,0.276127260242617
1580422723.83241,-1.30446326390478,0.0319829098954756,-0.210696574349583
1580422723.86462,-0.543221179522392,0.156984817273212,1.20094605935759
1580422723.89684,-1.05690089265278,0.181887541008621,0.125734340428778
1580422723.92905,-1.13990997177081,0.796154726482033,-0.661387045090409
1580422723.96127,-0.938735027084764,0.364019226367589,0.259525444419012
1580422723.99348,-1.12135500114443,0.227298390173189,0.145265888456549
1580422724.0257,-0.922621499961853,0.0202639810788128,0.222415503166246
1580422724.05791,-0.780041199359122,0.144777599755855,-0.037842374303807
1580422724.09013,-0.889417868314641,-0.281986724650951,-0.0803234912642097
1580422724.12234,-0.865491721980622,0.0720225833524069,0.11108567940795
1580422724.15456,-0.771740291447319,0.00268558785381856,0.135011825741969
1580422724.18677,-0.7390249485008,0.0778820477607383,-0.294682230869002
1580422724.21899,-0.929945830472267,0.115480277714198,-0.0856946669718468
1580422724.2512,-1.24684519722286,0.319096665903714,0.51538872358282
1580422724.28341,-1.26979476615549,0.0456549935149155,0.177981231403066
1580422724.31563,-1.31520561532006,0.0988784618905925,0.0944838635843439
1580422724.34784,-1.50124361028458,0.362066071564811,0.232669565880826
1580422724.38006,-1.57888151369497,0.354741741054397,0.403570611123826
1580422724.41227,-1.30983443961242,0.0925307087815668,-0.0886243991760125
1580422724.44449,-1.52468146791791,-0.135011825741969,-0.776134889753568
1580422724.4767,-1.6789806973373,0.408941786831463,-0.257572289616236
1580422724.50892,-1.63796444647898,0.254642557412069,0.0910658426794839
1580422724.54113,-1.25905241474022,0.193118181124589,-0.00708018616006711
1580422724.57335,-0.918715190356298,0.0759288929579611,-0.281010147249562
1580422724.60556,-0.601815823605707,0.0197756923781185,-0.151125352864881
1580422724.63778,-0.340581368734265,-0.0222171358815899,-0.132570382238498
1580422724.66999,-0.245365072098878,-0.0397955291065841,-0.259525444419014
1580422724.70221,-0.103273060196841,0.0554207675288012,-0.635507743953612
1580422724.73442,-0.421637293049516,0.200930800335698,-0.585702296482795
1580422724.76663,-1.19069199664301,-0.95191882200351,2.09451438162814
1580422724.79885,-1.76980239566644,-0.328862439917602,1.99929808499275
1580422724.83106,-0.650156404974441,0.0227054245822842,0.234622720683603
1580422724.86328,-0.878187228198673,0.00122072175173571,-0.0441901274128327
1580422724.89549,-0.714610513466086,0.154543373769741,0.47925535973144
1580422724.92771,-1.55300221255817,0.328374151216906,0.919691767757687
1580422724.95992,-1.14967574578469,0.229251544975966,0.251712825207903
1580422724.99216,-0.589120317387655,-0.041260395208667,-0.118410009918364
1580422725.02437,-1.21901274128328,0.509040970473794,0.0422369726100555
1580422725.05659,-1.01441977569238,0.367437247272449,0.0256351567864499
1580422725.0888,-0.82203402761883,0.0432135500114441,0.0407721065079727
1580422725.12101,-0.85621423666743,-0.147707331960021,0.0485847257190812
1580422725.15323,-0.796643015182728,0.00122072175173571,0.127199206530861
1580422725.18544,-0.840588998245213,0.164797436484321,0.173098344396124
1580422725.21766,-0.71168078126192,0.277103837644006,-0.0319829098954756
1580422725.24987,-0.933363851377127,0.251224536507209,-0.206301976043335
1580422725.28209,-1.15114061188678,0.152101930266269,0.552498664835586
1580422725.3143,-1.32936598764019,0.0861829556725411,0.11792172121767
1580422725.34652,-1.34645609216449,0.182375829709315,0.148683909361409
1580422725.37873,-1.41042191195544,0.526131074998094,0.201907377737086
1580422725.41095,-1.49538414587625,0.435309376668954,0.354741741054397
1580422725.44316,-1.32936598764019,0.0920424200808725,0.114015411612115
1580422725.47538,-1.37087052719921,-0.193606469825284,-0.871351186388953
1580422725.50759,-1.55983825436789,0.487067978942548,-0.368902113374533
1580422725.53981,-1.756130312047,0.213138017853055,0.154055085069047
1580422725.57202,-1.41872281986725,0.235111009384298,-0.0158693827725642
1580422725.60423,-1.11549553673609,0.0505378805218584,-0.174563210498206
