Timestamp_seconds,Gyro_X_s,Gyro_Y_s,Gyro_Z_s
1580422672.25328,-2.28885328450451,7.59899290455473,-1.73952849622333
1580422672.25727,-2.28885328450451,7.7821011673152,-1.8616006713969
1580422672.26127,-2.28885328450451,7.96520943007545,-1.8616006713969
1580422672.26526,-2.53299763485165,8.14831769283592,-1.80056458381023
1580422672.26925,-2.7161058976119,8.08728160524902,-1.9226367589838
1580422672.27325,-2.96025024795904,8.14831769283592,-1.8616006713969
1580422672.27724,-3.08232242313261,8.14831769283592,-1.8616006713969
1580422672.28123,-3.14335851071951,8.14831769283592,-1.9226367589838
1580422672.28523,-3.50957503624022,7.7821011673152,-2.04470893415737
1580422672.28922,-3.87579156176093,7.53795681696806,-2.10574502174404
1580422672.29321,-4.24200808728165,7.04966811627378,-2.04470893415737
1580422672.29721,-4.54718852521546,6.62241550316617,-1.98367284657047
1580422672.3012,-4.66926070038903,6.19516289005878,-2.04470893415737
1580422672.30519,-4.7913328755626,5.88998245212474,-1.98367284657047
1580422672.30919,-4.8523689631495,5.7068741893645,-1.9226367589838
1580422672.31318,-4.97444113832307,5.46272983901736,-1.9226367589838
1580422672.31717,-5.15754940108332,5.34065766384379,-1.9226367589838
1580422672.32116,-5.27962157625689,5.34065766384379,-1.80056458381023
1580422672.32516,-5.58480201419093,5.27962157625689,-1.61745632104976
1580422672.32915,-5.88998245212474,5.27962157625689,-1.49538414587619
1580422672.33314,-6.19516289005878,5.52376592660403,-1.43434805828952
1580422672.33714,-6.37827115281902,5.76791027695117,-1.25123979552905
1580422672.34113,-6.37827115281902,6.07309071488521,-1.19020370794237
1580422672.34512,-6.13412680247188,6.43930724040592,-1.0681315327688
1580422672.34912,-6.01205462729831,6.80552376592664,-0.946059357595232
1580422672.35311,-5.95101853971164,7.17174029144735,-0.762951094834762
1580422672.3571,-6.01205462729831,7.53795681696806,-0.579842832074519
1580422672.3611,-6.5003433279926,7.84313725490188,-0.396734569314049
1580422672.36509,-6.92759594110021,8.20935378042259,-0.213626306553806
1580422672.36908,-7.17174029144735,8.5755703059433,-0.091554131380235
1580422672.37308,-7.29381246662092,9.00282291905091,-0.0305180437933359
1580422672.37707,-7.41588464179449,9.36903944457163,-0.152590218966907
1580422672.38106,-7.47692072938116,9.4911116197452,-0.213626306553806
1580422672.38506,-7.59899290455473,9.73525597009234,-0.274662394140478
1580422672.38905,-7.47692072938116,9.61318379491877,-0.51880674448762
1580422672.39305,-7.23277637903402,9.61318379491877,-0.762951094834762
1580422672.39706,-6.98863202868688,9.30800335698473,-0.946059357595232
1580422672.40106,-6.68345159075307,9.18593118181116,-1.12916762035547
1580422672.40505,-6.37827115281902,9.06385900663759,-1.0070954451819
1580422672.40904,-5.95101853971164,8.81971465629044,-1.25123979552905
1580422672.41304,-5.58480201419093,8.6366063935302,-1.25123979552905
1580422672.41703,-5.15754940108332,8.39246204318306,-1.25123979552905
1580422672.42103,-4.54718852521546,8.27038986800949,-1.0681315327688
1580422672.42502,-4.05889982452118,8.08728160524902,-0.946059357595232
1580422672.42901,-3.75371938658736,8.08728160524902,-0.885023270008332
1580422672.433,-3.50957503624022,8.14831769283592,-0.823987182421661
1580422672.437,-3.14335851071951,8.20935378042259,-0.70191500724809
1580422672.44099,-2.83817807278547,8.27038986800949,-0.457770656900948
1580422672.44499,-2.34988937209118,8.5755703059433,-0.396734569314049
1580422672.44898,-1.8616006713969,8.81971465629044,-0.152590218966907
1580422672.45297,-1.43434805828952,9.12489509422448,0.091554131380235
1580422672.45697,-1.0070954451819,9.4300755321583,0.335698481727377
1580422672.46096,-0.762951094834762,9.85732814526591,0.579842832074519
1580422672.46495,-0.579842832074519,10.1014724956131,0.762951094834762
1580422672.46895,-0.396734569314049,10.4676890211338,1.0681315327688
1580422672.47294,-0.274662394140478,10.8339055466545,1.25123979552905
1580422672.47693,-0.091554131380235,11.3221942473488,1.55642023346309
1580422672.48092,0.0305180437933359,11.6273746852826,1.8616006713969
1580422672.48492,0.274662394140478,11.9325551232166,2.04470893415737
1580422672.48891,0.396734569314049,12.1156633859769,2.22781719691761
1580422672.4929,0.70191500724809,12.2987716487373,2.41092545967808
1580422672.4969,0.946059357595232,12.359807736324,2.53299763485165
1580422672.50089,1.19020370794237,12.2377355611504,2.53299763485165
1580422672.50488,1.61745632104976,12.1766994735638,2.41092545967808
1580422672.50888,1.9226367589838,11.9935912108033,2.41092545967808
1580422672.51287,2.41092545967808,11.810482948043,2.34988937209118
1580422672.51686,2.83817807278547,11.5663385976959,2.16678110933094
1580422672.52086,3.14335851071951,11.2001220721752,2.04470893415737
1580422672.52485,3.26543068589308,10.8339055466545,1.67849240863666
1580422672.52884,3.38750286106665,10.4676890211338,1.49538414587619
1580422672.53284,3.38750286106665,10.1625085831997,1.19020370794237
1580422672.53683,3.32646677347975,9.79629205767901,0.946059357595232
1580422672.54082,3.26543068589308,9.55214770733187,0.762951094834762
1580422672.54482,3.20439459830618,9.36903944457163,0.457770656900948
1580422672.54881,2.96025024795904,9.18593118181116,0.335698481727377
1580422672.5528,2.65506981002522,9.06385900663759,0.274662394140478
1580422672.55679,2.53299763485165,9.12489509422448,0.396734569314049
1580422672.56079,2.28885328450451,9.12489509422448,0.457770656900948
1580422672.56478,1.73952849622333,9.00282291905091,0.579842832074519
1580422672.56877,1.49538414587619,9.06385900663759,0.70191500724809
1580422672.57277,1.19020370794237,9.18593118181116,0.946059357595232
1580422672.57676,0.762951094834762,9.24696726939806,1.19020370794237
1580422672.58075,0.274662394140478,9.4300755321583,1.37331197070262
1580422672.58475,0.152590218966907,9.67421988250544,1.67849240863666
1580422672.58874,-0.091554131380235,9.79629205767901,1.80056458381023
1580422672.59273,-0.0305180437933359,9.91836423285258,2.10574502174404
1580422672.59673,0.091554131380235,10.1014724956131,2.22781719691761
1580422672.60072,0.213626306553806,10.1014724956131,2.16678110933094
1580422672.60471,0.335698481727377,10.0404364080262,2.16678110933094
1580422672.60871,0.457770656900948,9.97940032043948,2.10574502174404
1580422672.6127,0.579842832074519,9.79629205767901,2.04470893415737
1580422672.6167,0.70191500724809,9.67421988250544,1.9226367589838
1580422672.62069,0.70191500724809,9.61318379491877,1.55642023346309
1580422672.62468,0.823987182421661,9.4911116197452,1.37331197070262
1580422672.62868,0.762951094834762,9.30800335698473,1.12916762035547
1580422672.63267,0.579842832074519,9.18593118181116,0.946059357595232
1580422672.63669,0.335698481727377,9.18593118181116,0.762951094834762
1580422672.64068,0.0305180437933359,9.06385900663759,0.579842832074519
1580422672.64468,-0.457770656900948,9.00282291905091,0.396734569314049
1580422672.64867,-0.885023270008332,8.94178683146401,0.213626306553806
1580422672.65266,-1.31227588311594,9.00282291905091,0.0305180437933359
1580422672.65665,-1.80056458381023,8.88075074387734,-0.274662394140478
1580422672.66065,-2.34988937209118,9.00282291905091,-0.274662394140478
1580422672.66464,-2.65506981002522,9.12489509422448,-0.274662394140478
1580422672.66864,-3.08232242313261,9.36903944457163,-0.274662394140478
1580422672.67263,-3.38750286106665,9.4300755321583,-0.274662394140478
1580422672.67662,-3.57061112382689,9.4911116197452,-0.213626306553806
1580422672.68062,-3.81475547417404,9.61318379491877,-0.152590218966907
1580422672.68461,-3.93682764934761,9.85732814526591,-0.152590218966907
1580422672.6886,-4.30304417486832,10.0404364080262,-0.0305180437933359
1580422672.6926,-4.73029678797593,10.1625085831997,-0.0305180437933359
1580422672.69659,-5.34065766384379,10.2845807583733,0.091554131380235
1580422672.70058,-5.7068741893645,10.2235446707866,0.152590218966907
1580422672.70458,-6.01205462729831,10.4676890211338,0.213626306553806
1580422672.70857,-6.43930724040592,10.5897611963073,0.213626306553806
1580422672.71256,-6.80552376592664,10.650797283894,0.274662394140478
1580422672.71655,-7.17174029144735,10.650797283894,0.51880674448762
1580422672.72055,-7.47692072938116,10.650797283894,0.51880674448762
1580422672.72454,-7.41588464179449,10.4066529335469,0.762951094834762
1580422672.72853,-7.29381246662092,10.3456168459602,1.0070954451819
1580422672.73253,-7.29381246662092,10.2845807583733,1.25123979552905
1580422672.73652,-7.17174029144735,9.85732814526591,1.49538414587619
1580422672.74051,-7.23277637903402,9.61318379491877,1.80056458381023
1580422672.74451,-7.41588464179449,9.06385900663759,2.04470893415737
1580422672.7485,-7.47692072938116,8.81971465629044,2.22781719691761
1580422672.75249,-7.59899290455473,8.5755703059433,2.41092545967808
1580422672.75649,-7.53795681696806,8.20935378042259,2.41092545967808
1580422672.76048,-7.59899290455473,7.90417334248878,2.34988937209118
1580422672.76447,-7.41588464179449,7.59899290455473,2.47196154726475
1580422672.76847,-7.29381246662092,7.35484855420759,2.22781719691761
1580422672.77246,-7.23277637903402,6.92759594110021,2.10574502174404
1580422672.77645,-6.92759594110021,6.56137941557949,1.80056458381023
1580422672.78045,-6.43930724040592,6.37827115281902,1.49538414587619
1580422672.78444,-6.01205462729831,6.19516289005878,1.12916762035547
1580422672.78844,-5.52376592660403,6.07309071488521,0.885023270008332
1580422672.79243,-5.09651331349664,6.01205462729831,0.885023270008332
1580422672.79645,-4.8523689631495,6.01205462729831,0.823987182421661
1580422672.80044,-4.54718852521546,5.95101853971164,0.823987182421661
1580422672.80443,-4.24200808728165,6.01205462729831,1.0070954451819
1580422672.80843,-3.93682764934761,6.01205462729831,1.0070954451819
1580422672.81242,-3.81475547417404,5.88998245212474,1.19020370794237
1580422672.81641,-3.93682764934761,5.95101853971164,1.12916762035547
1580422672.82041,-4.11993591210808,5.76791027695117,1.25123979552905
1580422672.8244,-4.18097199969475,5.82894636453807,1.31227588311594
1580422672.82839,-4.05889982452118,5.95101853971164,1.25123979552905
1580422672.83239,-3.93682764934761,5.95101853971164,1.19020370794237
1580422672.83638,-3.81475547417404,5.95101853971164,1.12916762035547
1580422672.84038,-3.50957503624022,5.88998245212474,1.12916762035547
1580422672.84437,-3.08232242313261,5.7068741893645,1.0681315327688
1580422672.84836,-2.7771419851988,5.82894636453807,1.12916762035547
1580422672.85236,-2.53299763485165,5.82894636453807,1.0681315327688
1580422672.85635,-2.34988937209118,5.76791027695117,1.12916762035547
1580422672.86034,-2.04470893415737,5.7068741893645,1.0681315327688
1580422672.86434,-1.9226367589838,5.46272983901736,1.0070954451819
1580422672.86833,-1.80056458381023,5.21858548867021,1.0070954451819
1580422672.87232,-1.8616006713969,4.97444113832307,0.946059357595232
1580422672.87631,-1.8616006713969,4.60822461280236,1.0681315327688
1580422672.8803,-2.04470893415737,4.42511635004189,1.12916762035547
1580422672.8843,-1.98367284657047,4.36408026245522,1.25123979552905
1580422672.88829,-1.98367284657047,4.18097199969475,1.37331197070262
1580422672.89229,-1.98367284657047,4.18097199969475,1.31227588311594
1580422672.89628,-2.10574502174404,4.18097199969475,1.37331197070262
1580422672.90027,-1.9226367589838,4.18097199969475,1.37331197070262
1580422672.90427,-1.55642023346309,4.18097199969475,1.55642023346309
1580422672.90826,-1.0070954451819,4.11993591210808,1.73952849622333
1580422672.91225,-0.457770656900948,4.18097199969475,1.9226367589838
1580422672.91625,-0.0305180437933359,4.11993591210808,2.04470893415737
1580422672.92024,0.335698481727377,4.05889982452118,2.16678110933094
1580422672.92423,0.51880674448762,3.99786373693451,2.34988937209118
1580422672.92823,0.640878919661191,3.93682764934761,2.47196154726475
1580422672.93222,0.396734569314049,3.87579156176093,2.53299763485165
1580422672.93621,0.274662394140478,3.69268329900046,2.47196154726475
1580422672.94021,0.152590218966907,3.50957503624022,2.59403372243833
1580422672.9442,0.091554131380235,3.08232242313261,2.53299763485165
1580422672.94819,0.274662394140478,2.89921416037237,2.65506981002522
1580422672.95219,0.579842832074519,2.28885328450451,2.53299763485165
1580422672.95618,1.0681315327688,1.8616006713969,2.47196154726475
1580422672.96017,1.43434805828952,1.25123979552905,2.41092545967808
1580422672.96416,1.43434805828952,1.0070954451819,2.10574502174404
1580422672.96816,1.19020370794237,0.70191500724809,2.04470893415737
1580422672.97215,1.0070954451819,0.396734569314049,1.98367284657047
1580422672.97614,0.640878919661191,0.0305180437933359,1.8616006713969
1580422672.98014,0.51880674448762,-0.091554131380235,1.98367284657047
1580422672.98413,0.762951094834762,-0.213626306553806,2.28885328450451
1580422672.98812,1.12916762035547,-0.457770656900948,2.34988937209118
1580422672.99212,1.31227588311594,-0.579842832074519,2.47196154726475
1580422672.99611,1.61745632104976,-0.70191500724809,2.59403372243833
1580422673.0001,1.73952849622333,-0.885023270008332,2.7771419851988
1580422673.0041,1.67849240863666,-1.12916762035547,2.7771419851988
1580422673.00809,1.55642023346309,-1.19020370794237,2.7161058976119
1580422673.01209,1.49538414587619,-1.12916762035547,2.7161058976119
1580422673.01608,1.55642023346309,-1.12916762035547,2.7161058976119
1580422673.02007,1.80056458381023,-1.12916762035547,2.7161058976119
1580422673.02407,2.28885328450451,-1.0070954451819,2.65506981002522
1580422673.02806,2.53299763485165,-1.0070954451819,2.47196154726475
1580422673.03205,2.7771419851988,-1.12916762035547,2.47196154726475
1580422673.03607,3.20439459830618,-1.25123979552905,2.28885328450451
1580422673.04006,3.63164721141379,-1.37331197070262,1.98367284657047
1580422673.04406,3.99786373693451,-1.73952849622333,1.80056458381023
1580422673.04805,4.42511635004189,-2.22781719691761,1.61745632104976
1580422673.05204,4.7913328755626,-2.7771419851988,1.49538414587619
1580422673.05604,5.21858548867021,-3.02128633554594,1.31227588311594
1580422673.06003,5.40169375143046,-3.38750286106665,1.0681315327688
1580422673.06403,5.52376592660403,-3.87579156176093,0.885023270008332
1580422673.06802,5.34065766384379,-4.24200808728165,0.946059357595232
1580422673.07201,5.46272983901736,-4.73029678797593,0.885023270008332
1580422673.07601,5.52376592660403,-5.15754940108332,0.823987182421661
1580422673.08,5.6458381017776,-5.40169375143046,0.946059357595232
1580422673.08399,5.46272983901736,-5.7068741893645,0.885023270008332
1580422673.08799,5.21858548867021,-6.13412680247188,1.0681315327688
1580422673.09198,4.66926070038903,-6.25619897764545,1.0070954451819
1580422673.09597,3.99786373693451,-6.37827115281902,1.0070954451819
1580422673.09997,3.08232242313261,-6.37827115281902,1.0070954451819
1580422673.10396,2.47196154726475,-6.43930724040592,1.0681315327688
1580422673.10795,1.8616006713969,-6.37827115281902,1.0681315327688
1580422673.11195,1.55642023346309,-6.62241550316617,1.31227588311594
1580422673.11594,1.19020370794237,-6.86655985351331,1.43434805828952
1580422673.11993,1.12916762035547,-7.17174029144735,1.55642023346309
1580422673.12392,1.12916762035547,-7.41588464179449,1.49538414587619
1580422673.12792,1.37331197070262,-7.72106507972831,1.61745632104976
1580422673.13191,1.61745632104976,-7.96520943007545,1.55642023346309
1580422673.1359,2.16678110933094,-8.08728160524902,1.49538414587619
1580422673.1399,2.7161058976119,-8.20935378042259,1.37331197070262
1580422673.14389,2.83817807278547,-8.20935378042259,1.31227588311594
1580422673.14788,2.83817807278547,-8.27038986800949,1.25123979552905
1580422673.15188,2.59403372243833,-8.39246204318306,1.0070954451819
1580422673.15587,2.22781719691761,-8.33142595559616,0.762951094834762
1580422673.15986,1.80056458381023,-8.39246204318306,0.640878919661191
1580422673.16386,1.55642023346309,-8.20935378042259,0.335698481727377
1580422673.16785,1.43434805828952,-7.84313725490188,0.335698481727377
1580422673.17184,1.43434805828952,-7.41588464179449,0.213626306553806
1580422673.17584,1.43434805828952,-6.98863202868688,0.213626306553806
1580422673.17983,1.49538414587619,-6.5003433279926,0.091554131380235
1580422673.18383,1.43434805828952,-6.19516289005878,0.152590218966907
1580422673.18782,1.49538414587619,-6.01205462729831,0.152590218966907
1580422673.19181,1.67849240863666,-5.82894636453807,0.213626306553806
1580422673.19583,1.9226367589838,-5.82894636453807,0.213626306553806
1580422673.19982,2.53299763485165,-6.01205462729831,0.457770656900948
1580422673.20382,3.32646677347975,-6.13412680247188,0.762951094834762
1580422673.20781,4.11993591210808,-6.31723506523235,0.946059357595232
1580422673.2118,4.8523689631495,-6.80552376592664,1.25123979552905
1580422673.2158,5.46272983901736,-7.35484855420759,1.37331197070262
1580422673.21979,6.01205462729831,-8.02624551766235,1.55642023346309
1580422673.22379,6.43930724040592,-8.5755703059433,1.8616006713969
1580422673.22778,6.56137941557949,-9.12489509422448,1.9226367589838
1580422673.23177,6.80552376592664,-9.79629205767901,2.04470893415737
1580422673.23577,6.98863202868688,-10.2235446707866,2.16678110933094
1580422673.23976,6.92759594110021,-10.4066529335469,2.22781719691761
1580422673.24375,6.74448767833974,-10.4676890211338,2.34988937209118
1580422673.24775,6.68345159075307,-10.4676890211338,2.16678110933094
1580422673.25174,6.5003433279926,-10.4066529335469,2.10574502174404
1580422673.25573,6.25619897764545,-10.3456168459602,2.04470893415737
1580422673.25973,6.13412680247188,-10.1014724956131,1.9226367589838
1580422673.26372,6.07309071488521,-9.85732814526591,1.73952849622333
1580422673.26771,6.07309071488521,-9.61318379491877,1.80056458381023
1580422673.27171,6.25619897764545,-9.30800335698473,1.67849240863666
1580422673.27569,6.37827115281902,-9.18593118181116,1.55642023346309
1580422673.27969,6.43930724040592,-8.94178683146401,1.49538414587619
1580422673.28368,6.43930724040592,-9.00282291905091,1.31227588311594
1580422673.28768,6.43930724040592,-9.00282291905091,1.0681315327688
1580422673.29167,6.5003433279926,-9.24696726939806,1.0070954451819
1580422673.29566,6.62241550316617,-9.55214770733187,0.823987182421661
1580422673.29966,7.11070420386045,-9.79629205767901,0.823987182421661
1580422673.30365,7.53795681696806,-10.1625085831997,0.823987182421661
1580422673.30764,7.90417334248878,-10.3456168459602,0.70191500724809
1580422673.31164,8.14831769283592,-10.5897611963073,0.762951094834762
1580422673.31563,8.20935378042259,-10.7118333714809,0.823987182421661
1580422673.31962,8.27038986800949,-11.0780498970016,0.762951094834762
1580422673.32362,8.02624551766235,-11.3832303349354,0.70191500724809
1580422673.32761,7.90417334248878,-11.6884107728695,0.823987182421661
1580422673.3316,7.7821011673152,-11.9935912108033,0.70191500724809
1580422673.3356,7.66002899214163,-12.1766994735638,0.640878919661191
1580422673.33959,7.84313725490188,-12.5429159990845,0.640878919661191
1580422673.34359,7.84313725490188,-12.664988174258,0.51880674448762
1580422673.34758,7.84313725490188,-12.9091325246052,0.457770656900948
1580422673.35157,7.96520943007545,-12.7870603494316,0.335698481727377
1580422673.35559,7.7821011673152,-12.7870603494316,0.274662394140478
1580422673.35958,7.53795681696806,-12.8480964370183,0.152590218966907
1580422673.36358,6.92759594110021,-12.8480964370183,-0.0305180437933359
1580422673.36757,6.31723506523235,-12.9091325246052,-0.274662394140478
1580422673.37156,5.6458381017776,-12.7870603494316,-0.51880674448762
1580422673.37556,4.97444113832307,-12.7870603494316,-0.70191500724809
1580422673.37955,4.30304417486832,-12.7260242618447,-0.946059357595232
1580422673.38354,3.87579156176093,-12.8480964370183,-1.12916762035547
1580422673.38754,3.44853894865332,-13.1532768749523,-1.12916762035547
1580422673.39153,3.38750286106665,-13.519493400473,-1.19020370794237
1580422673.39553,3.38750286106665,-13.8857099259938,-1.12916762035547
1580422673.39952,3.38750286106665,-14.5571068894483,-1.19020370794237
1580422673.40351,3.57061112382689,-15.1064316777295,-1.12916762035547
1580422673.40751,3.75371938658736,-15.7167925535973,-1.0681315327688
1580422673.4115,4.05889982452118,-16.4492256046387,-1.0070954451819
1580422673.41549,4.60822461280236,-17.2426947432668,-0.946059357595232
1580422673.41949,5.03547722590974,-17.9751277943083,-0.823987182421661
1580422673.42348,5.40169375143046,-18.7075608453497,-0.762951094834762
1580422673.42747,5.58480201419093,-19.3789578088044,-0.823987182421661
1580422673.43147,5.6458381017776,-20.1113908598459,-0.885023270008332
1580422673.43545,5.52376592660403,-21.0269321736475,-0.823987182421661
1580422673.43945,5.58480201419093,-21.5762569619287,-1.12916762035547
1580422673.44344,5.58480201419093,-22.1866178377966,-1.25123979552905
1580422673.44743,5.82894636453807,-22.7359426260775,-1.25123979552905
1580422673.45143,6.01205462729831,-23.4073395895323,-1.37331197070262
1580422673.45542,6.19516289005878,-24.2618448157473,-1.43434805828952
1580422673.45942,6.62241550316617,-25.0553139543754,-1.25123979552905
1580422673.46341,6.80552376592664,-25.9098191805904,-1.19020370794237
1580422673.4674,6.98863202868688,-26.7032883192187,-1.0070954451819
1580422673.4714,7.41588464179449,-27.6188296330204,-0.762951094834762
1580422673.47539,7.84313725490188,-28.3512626840618,-0.70191500724809
1580422673.47938,8.08728160524902,-29.0226596475165,-0.640878919661191
1580422673.48338,8.6366063935302,-29.755092698558,-0.579842832074519
1580422673.48737,8.81971465629044,-30.4264896620125,-0.640878919661191
1580422673.49136,8.75867856870377,-30.8537422751201,-0.70191500724809
1580422673.49536,8.81971465629044,-31.3420309758146,-0.885023270008332
1580422673.49935,8.45349813076973,-31.8303196765089,-1.0681315327688
1580422673.50335,7.96520943007545,-32.074464026856,-1.31227588311594
1580422673.50734,7.29381246662092,-32.1355001144427,-1.67849240863666
1580422673.51133,6.43930724040592,-32.074464026856,-2.04470893415737
1580422673.51532,5.76791027695117,-31.769283588922,-2.34988937209118
1580422673.51931,5.21858548867021,-31.3420309758146,-2.7161058976119
1580422673.52331,4.48615243762879,-30.7927061875332,-3.08232242313261
1580422673.5273,3.93682764934761,-30.1823453116654,-3.32646677347975
1580422673.53129,3.63164721141379,-29.6940566109711,-3.44853894865332
1580422673.53529,3.50957503624022,-29.3888761730373,-3.69268329900046
1580422673.53928,3.44853894865332,-29.3278400854504,-3.81475547417404
1580422673.54327,3.44853894865332,-29.5719844357975,-4.30304417486832
1580422673.54727,3.08232242313261,-30.0602731364918,-4.66926070038903
1580422673.55126,2.65506981002522,-30.7927061875332,-5.15754940108332
1580422673.55525,2.28885328450451,-31.5861753261618,-5.52376592660403
1580422673.55925,1.80056458381023,-32.5017166399634,-6.19516289005878
1580422673.56324,1.80056458381023,-33.2341496910049,-6.80552376592664
1580422673.56723,2.16678110933094,-33.9055466544596,-7.35484855420759
1580422673.57123,3.14335851071951,-34.7600518806746,-8.08728160524902
1580422673.57522,4.36408026245522,-35.5535210193027,-8.45349813076973
1580422673.57922,5.46272983901736,-36.2859540703441,-8.5755703059433
1580422673.58321,6.37827115281902,-36.8352788586253,-8.69764248111687
1580422673.5872,7.04966811627378,-36.896314946212,-8.39246204318306
1580422673.5912,7.35484855420759,-36.6521705958648,-7.7821011673152
1580422673.59521,7.59899290455473,-35.9807736324103,-7.17174029144735
1580422673.59921,7.90417334248878,-35.187304493782,-6.31723506523235
1580422673.6032,8.20935378042259,-33.9055466544596,-5.15754940108332
1580422673.60719,8.33142595559616,-32.1965362020296,-3.87579156176093
1580422673.61119,8.33142595559616,-30.3044174868389,-2.47196154726475
1580422673.61518,7.96520943007545,-28.1071183337147,-0.946059357595232
1580422673.61918,7.41588464179449,-25.4215304798961,0.579842832074519
1580422673.62317,6.98863202868688,-22.7359426260775,2.16678110933094
1580422673.62716,6.80552376592664,-20.1724269474325,3.69268329900046
1580422673.63116,6.98863202868688,-17.486839093614,5.03547722590974
1580422673.63515,7.96520943007545,-14.8012512397954,6.25619897764545
1580422673.63914,9.4300755321583,-12.2377355611504,7.35484855420759
1580422673.64314,11.2611581597619,-9.73525597009234,8.39246204318306
1580422673.64713,13.519493400473,-6.86655985351331,9.30800335698473
1580422673.65112,15.777828641184,-3.69268329900046,10.1625085831997
1580422673.65512,17.7309834439611,-1.0070954451819,10.7728694590676
1580422673.65911,19.501029983978,1.31227588311594,11.2611581597619
1580422673.6631,20.5996795605402,3.14335851071951,11.4442664225223
1580422673.6671,20.9658960860609,4.66926070038903,11.505302510109
1580422673.67109,20.8438239108873,5.6458381017776,11.3221942473488
1580422673.67508,20.4165712977797,6.31723506523235,11.0170138094147
1580422673.67907,20.355535210193,6.56137941557949,10.4066529335469
1580422673.68307,21.3321126115816,6.31723506523235,9.36903944457163
1580422673.68706,23.3463035019454,5.40169375143046,8.20935378042259
1580422673.69105,26.1539635309375,4.24200808728165,6.98863202868688
1580422673.69505,29.2668039978637,2.47196154726475,5.82894636453807
1580422673.69904,31.7082475013351,0.762951094834762,4.42511635004189
1580422673.70303,32.6237888151368,-1.0681315327688,2.89921416037237
1580422673.70703,31.7082475013351,-2.7161058976119,1.19020370794237
1580422673.71102,29.1447318226901,-4.30304417486832,-0.70191500724809
1580422673.71501,25.4215304798961,-5.58480201419093,-2.65506981002522
1580422673.71901,21.3321126115816,-6.80552376592664,-4.73029678797593
1580422673.723,17.5478751812009,-7.53795681696806,-6.80552376592664
1580422673.72699,14.4960708018616,-8.14831769283592,-8.5755703059433
1580422673.73099,12.4208438239109,-8.14831769283592,-10.1014724956131
1580422673.73498,11.0170138094147,-7.59899290455473,-11.3221942473488
1580422673.73897,10.1625085831997,-6.62241550316617,-11.9935912108033
1580422673.74297,9.36903944457163,-5.34065766384379,-11.9935912108033
1580422673.74696,8.27038986800949,-3.99786373693451,-11.4442664225223
1580422673.75096,6.74448767833974,-2.59403372243833,-10.3456168459602
1580422673.75497,4.97444113832307,-1.43434805828952,-8.81971465629044
1580422673.75897,3.02128633554594,-0.274662394140478,-6.86655985351331
1580422673.76296,0.946059357595232,0.70191500724809,-4.97444113832307
1580422673.76695,-1.0681315327688,1.37331197070262,-3.02128633554594
1580422673.77095,-2.65506981002522,1.8616006713969,-1.31227588311594
1580422673.77494,-3.87579156176093,1.9226367589838,0.0305180437933359
1580422673.77893,-4.54718852521546,1.43434805828952,1.25123979552905
1580422673.78293,-4.73029678797593,0.823987182421661,2.28885328450451
1580422673.78692,-5.03547722590974,-0.0305180437933359,3.14335851071951
1580422673.79092,-5.34065766384379,-1.0681315327688,3.81475547417404
1580422673.79491,-5.76791027695117,-1.9226367589838,4.48615243762879
1580422673.7989,-6.19516289005878,-2.83817807278547,4.97444113832307
1580422673.8029,-6.37827115281902,-3.81475547417404,5.34065766384379
1580422673.80689,-6.19516289005878,-5.21858548867021,5.6458381017776
1580422673.81088,-5.58480201419093,-6.56137941557949,5.76791027695117
1580422673.81488,-5.03547722590974,-7.53795681696806,5.88998245212474
1580422673.81887,-4.54718852521546,-8.20935378042259,5.95101853971164
1580422673.82286,-4.30304417486832,-8.51453421835663,5.6458381017776
1580422673.82686,-4.30304417486832,-8.51453421835663,5.15754940108332
1580422673.83085,-4.91340505073617,-8.6366063935302,4.73029678797593
1580422673.83484,-6.13412680247188,-8.45349813076973,4.05889982452118
1580422673.83883,-7.90417334248878,-7.96520943007545,3.26543068589308
1580422673.84283,-9.67421988250544,-7.59899290455473,2.53299763485165
1580422673.84682,-10.5897611963073,-7.35484855420759,1.80056458381023
1580422673.85081,-10.5287251087204,-6.92759594110021,1.37331197070262
1580422673.85481,-9.4911116197452,-6.5003433279926,1.12916762035547
1580422673.8588,-7.96520943007545,-6.19516289005878,1.25123979552905
1580422673.86279,-6.56137941557949,-6.19516289005878,1.55642023346309
1580422673.86679,-5.52376592660403,-6.13412680247188,2.04470893415737
1580422673.87078,-5.58480201419093,-6.13412680247188,2.59403372243833
1580422673.87477,-6.37827115281902,-5.82894636453807,2.89921416037237
1580422673.87877,-7.04966811627378,-5.6458381017776,3.20439459830618
1580422673.88276,-7.17174029144735,-5.03547722590974,3.44853894865332
1580422673.88675,-6.01205462729831,-3.87579156176093,3.69268329900046
1580422673.89075,-3.75371938658736,-2.53299763485165,4.11993591210808
1580422673.89474,-0.640878919661191,-1.0681315327688,4.8523689631495
1580422673.89874,2.47196154726475,0.51880674448762,5.7068741893645
1580422673.90273,5.03547722590974,2.28885328450451,6.68345159075307
1580422673.90672,7.17174029144735,3.69268329900046,7.84313725490188
1580422673.91071,8.88075074387734,4.24200808728165,8.81971465629044
1580422673.91473,10.5897611963073,4.05889982452118,9.79629205767901
1580422673.91873,12.8480964370183,3.20439459830618,10.5287251087204
1580422673.92272,16.1440451667047,1.43434805828952,11.2001220721752
1580422673.92671,20.4165712977797,-0.823987182421661,11.8715190356297
1580422673.93071,24.8111696040282,-2.96025024795904,12.664988174258
1580422673.9347,28.3512626840618,-5.09651331349664,13.1532768749523
1580422673.93869,30.1213092240787,-6.86655985351331,13.519493400473
1580422673.94269,30.6706340123596,-7.72106507972831,13.3974212252995
1580422673.94668,30.1823453116654,-8.14831769283592,12.7260242618447
1580422673.95068,29.8771648737315,-7.96520943007545,11.9325551232166
1580422673.95467,30.1213092240787,-7.17174029144735,10.955977721828
1580422673.95866,30.9758144502937,-6.13412680247188,10.0404364080262
1580422673.96266,31.7692835889218,-4.91340505073617,9.00282291905091
1580422673.96665,31.7082475013351,-3.57061112382689,7.84313725490188
1580422673.97064,30.7927061875332,-2.83817807278547,6.98863202868688
1580422673.97464,29.1447318226901,-2.7161058976119,5.88998245212474
1580422673.97863,27.8019378957808,-3.14335851071951,4.73029678797593
1580422673.98262,27.6188296330204,-3.75371938658736,3.69268329900046
1580422673.98662,28.9616235599296,-4.36408026245522,2.65506981002522
1580422673.99061,31.1589227130539,-4.66926070038903,1.73952849622333
1580422673.99463,33.2951857785915,-4.54718852521546,0.823987182421661
1580422673.99862,34.5159075303272,-4.05889982452118,0.335698481727377
1580422674.00262,34.8210879682611,-3.63164721141379,-0.091554131380235
1580422674.00661,34.027618829633,-3.02128633554594,-0.396734569314049
1580422674.0106,32.3796444647896,-2.53299763485165,-0.51880674448762
1580422674.0146,30.7316700999465,-2.10574502174404,-0.335698481727377
1580422674.01859,29.0836957351032,-1.8616006713969,0.152590218966907
1580422674.02258,27.191577019913,-1.67849240863666,0.640878919661191
1580422674.02658,24.8722056916151,-1.80056458381023,1.19020370794237
1580422674.03057,21.6983291371023,-2.22781719691761,1.61745632104976
1580422674.03456,17.792019531548,-3.32646677347975,2.04470893415737
1580422674.03856,13.7026016632333,-4.42511635004189,2.59403372243833
1580422674.04255,10.0404364080262,-5.76791027695117,2.96025024795904
1580422674.04654,7.23277637903402,-7.29381246662092,3.26543068589308
1580422674.05054,5.09651331349664,-8.69764248111687,3.69268329900046
1580422674.05453,3.50957503624022,-10.1014724956131,4.05889982452118
1580422674.05852,1.80056458381023,-11.2611581597619,4.11993591210808
1580422674.06252,-0.335698481727377,-12.1156633859769,4.18097199969475
1580422674.06651,-2.47196154726475,-12.5429159990845,3.99786373693451
1580422674.0705,-4.42511635004189,-12.2377355611504,3.99786373693451
1580422674.07449,-6.01205462729831,-11.6273746852826,3.99786373693451
1580422674.07849,-7.29381246662092,-10.8339055466545,3.75371938658736
1580422674.08248,-8.14831769283592,-10.1014724956131,3.75371938658736
1580422674.08647,-9.00282291905091,-9.36903944457163,3.63164721141379
1580422674.09047,-9.61318379491877,-9.06385900663759,3.75371938658736
1580422674.09446,-10.5897611963073,-8.69764248111687,3.75371938658736
1580422674.09845,-11.2001220721752,-8.20935378042259,3.57061112382689
1580422674.10245,-11.7494468604561,-7.41588464179449,3.38750286106665
1580422674.10644,-12.1156633859769,-6.62241550316617,3.26543068589308
1580422674.11044,-12.359807736324,-5.7068741893645,3.08232242313261
1580422674.11443,-12.0546272983902,-4.7913328755626,3.02128633554594
1580422674.11842,-11.810482948043,-4.05889982452118,2.96025024795904
1580422674.12241,-11.0170138094147,-3.38750286106665,2.59403372243833
1580422674.12641,-10.0404364080262,-2.83817807278547,2.22781719691761
1580422674.1304,-8.88075074387734,-2.10574502174404,1.80056458381023
1580422674.1344,-7.72106507972831,-1.19020370794237,1.19020370794237
1580422674.13839,-6.62241550316617,0.091554131380235,0.579842832074519
1580422674.14238,-5.46272983901736,1.55642023346309,-0.0305180437933359
1580422674.14638,-4.42511635004189,2.7161058976119,-0.335698481727377
1580422674.15037,-3.81475547417404,3.08232242313261,-0.579842832074519
1580422674.15439,-3.81475547417404,2.83817807278547,-0.762951094834762
1580422674.15838,-4.48615243762879,2.53299763485165,-1.0681315327688
1580422674.16237,-5.46272983901736,2.28885328450451,-1.37331197070262
1580422674.16637,-6.5003433279926,2.28885328450451,-1.8616006713969
1580422674.17036,-7.23277637903402,2.41092545967808,-2.16678110933094
1580422674.17436,-7.66002899214163,2.47196154726475,-2.34988937209118
1580422674.17835,-8.14831769283592,1.98367284657047,-2.41092545967808
1580422674.18234,-8.5755703059433,1.55642023346309,-2.28885328450451
1580422674.18634,-9.73525597009234,1.25123979552905,-2.34988937209118
1580422674.19033,-11.3221942473488,1.19020370794237,-2.22781719691761
1580422674.19432,-13.1532768749523,1.43434805828952,-2.28885328450451
1580422674.19832,-14.7402151522087,1.55642023346309,-2.41092545967808
1580422674.20231,-16.2661173418783,1.9226367589838,-2.41092545967808
1580422674.2063,-17.486839093614,1.80056458381023,-2.22781719691761
1580422674.2103,-18.8906691081102,1.55642023346309,-2.04470893415737
1580422674.21429,-20.5996795605402,0.885023270008332,-1.80056458381023
1580422674.21828,-22.613870450904,-0.274662394140478,-1.67849240863666
1580422674.22228,-24.8111696040282,-1.43434805828952,-1.61745632104976
1580422674.22627,-26.7032883192187,-2.28885328450451,-1.37331197070262
1580422674.23026,-28.1681544213016,-2.65506981002522,-1.37331197070262
1580422674.23425,-28.9616235599296,-3.08232242313261,-1.49538414587619
1580422674.23825,-28.9616235599296,-3.63164721141379,-1.55642023346309
1580422674.24224,-28.7174792095825,-4.24200808728165,-1.73952849622333
1580422674.24623,-28.3512626840618,-4.73029678797593,-1.67849240863666
1580422674.25023,-28.1681544213016,-5.58480201419093,-1.8616006713969
1580422674.25422,-27.9850461585411,-6.37827115281902,-2.04470893415737
1580422674.25821,-27.6798657206073,-7.35484855420759,-2.47196154726475
1580422674.26221,-27.4357213702601,-8.02624551766235,-2.83817807278547
1580422674.2662,-27.0695048447394,-8.45349813076973,-3.38750286106665
1580422674.27019,-26.7032883192187,-8.75867856870377,-4.05889982452118
1580422674.27419,-26.1539635309375,-8.94178683146401,-4.73029678797593
1580422674.27818,-25.4215304798961,-9.06385900663759,-5.58480201419093
1580422674.28217,-24.9942778667887,-9.06385900663759,-6.56137941557949
1580422674.28617,-24.322880903334,-9.30800335698473,-7.72106507972831
1580422674.29016,-23.9566643778132,-9.73525597009234,-8.75867856870377
1580422674.29415,-23.9566643778132,-10.2235446707866,-9.91836423285258
1580422674.29815,-24.3839169909209,-10.5897611963073,-11.0780498970016
1580422674.30214,-25.1773861295489,-11.0780498970016,-12.2987716487373
1580422674.30614,-26.337071793698,-11.5663385976959,-13.519493400473
1580422674.31013,-27.4357213702601,-12.2377355611504,-14.8622873273823
1580422674.31412,-28.8395513847561,-13.0922407873654,-15.9609369039445
1580422674.31811,-30.3654535744258,-14.3129625391011,-16.9985503929197
1580422674.3221,-31.8913557640956,-15.8388647287709,-17.9751277943083
1580422674.3261,-33.2341496910049,-18.0361638818952,-18.8906691081102
1580422674.33009,-34.5769436179141,-20.5386434729533,-19.6841382467383
1580422674.33408,-35.6145571068896,-22.9800869764247,-20.2334630350194
1580422674.33808,-35.1262684061953,-25.5436026550697,-20.355535210193
1580422674.34207,-32.623788815137,-28.9616235599296,-20.5386434729533
1580422674.34607,-29.4499122606239,-33.1120775158313,-20.7827878233004
1580422674.35006,-26.5201800564582,-37.750820172427,-21.0269321736475
1580422674.35405,-25.2994583047225,-41.9012741283284,-20.9658960860609
1580422674.35805,-26.2149996185244,-45.5024032959489,-20.5386434729533
1580422674.36204,-28.7174792095825,-49.3476768139162,-19.9282825970854
1580422674.36603,-32.1355001144427,-54.3526359960326,-19.4399938963911
1580422674.37003,-35.7366292820632,-60.212100404364,-18.9517051956968
1580422674.37402,-40.0091554131382,-67.4753948271916,-18.7685969329366
1580422674.37801,-45.0141145952546,-75.7763027389944,-18.7685969329366
1580422674.38201,-50.5073624780653,-84.0161745632104,-19.0127412832837
1580422674.386,-56.1226825360495,-90.9742885481039,-19.4399938963911
1580422674.38999,-60.7614251926452,-96.2844281681546,-19.9893186846723
1580422674.39401,-64.5456626230259,-101.045242999924,-20.7217517357137
1580422674.39801,-67.5974670023652,-106.477454795148,-21.3931486991683
1580422674.402,-70.0999465934233,-112.703135729,-21.8204013122759
1580422674.40599,-72.3582818341345,-119.295033188373,-22.0035095750361
1580422674.40999,-74.1283283741511,-126.314183260853,-21.8204013122759
1580422674.41398,-74.8607614251925,-133.516441596094,-21.1490043488211
1580422674.41797,-74.3114366369116,-141.451132982376,-19.8062104219118
1580422674.42197,-71.0154879072252,-150.728618295567,-18.0361638818952
1580422674.42596,-64.3015182726788,-161.104753185321,-15.7167925535973
1580422674.42995,-55.3292133974212,-173.250934615091,-12.1156633859769
1580422674.43395,-46.3569085221638,-187.106126497292,-7.35484855420759
1580422674.43794,-39.3377584496834,-199.984740978103,-1.73952849622333
1580422674.44193,-34.9431601434349,-208.102540627146,4.97444113832307
1580422674.44593,-32.8679331654841,-210.177767605097,12.1156633859769
1580422674.44992,-33.4172579537653,-207.125963225757,19.2568856336309
1580422674.45391,-36.4080262455177,-202.243076218814,26.5812161440451
1580422674.45791,-40.9857328145267,-197.299153124285,33.8445105668725
1580422674.4619,-46.6620889600977,-193.881132219425,40.6195162890058
1580422674.46589,-52.8267338063631,-187.716487373159,48.1269550621805
1580422674.46989,-60.2731364919509,-174.837872892348,56.1226825360491
1580422674.47388,-69.916838330663,-156.771190966659,62.7756160830095
1580422674.47787,-80.2319371328297,-142.427710383764,68.0857557030595
1580422674.48186,-89.1432059205003,-134.493018997482,70.8934157320518
1580422674.48586,-95.0637064164189,-133.699549858854,69.9778744182499
1580422674.48985,-94.8805981536584,-138.094148165103,64.6677347981995
1580422674.49384,-84.0772106507973,-141.145952544442,53.6812390325777
1580422674.49784,-62.4704356450752,-141.75631342031,39.4598306248567
1580422674.50183,-32.7458609903106,-139.803158617533,24.4449530785075
1580422674.50583,0.640878919661191,-136.324101625086,10.650797283894
1580422674.50982,32.7458609903103,-130.281528953994,-0.152590218966907
1580422674.51381,58.8693064774548,-121.126115815976,-7.7821011673152
1580422674.5178,76.4476997024494,-110.017547875181,-12.7260242618447
1580422674.5218,84.3823910887313,-97.9324025329977,-15.4726482032502
1580422674.52579,82.6123445487146,-86.5186541542687,-16.9985503929197
1580422674.52979,71.7479209582666,-76.9359884031433,-17.3037308308537
1580422674.53378,53.7422751201648,-69.2454413672083,-16.2050812542916
1580422674.53777,31.4030670634011,-63.2028686961166,-13.2753490501259
1580422674.54177,9.06385900663759,-59.9069199664302,-6.86655985351331
1580422674.54576,-10.0404364080262,-58.8693064774548,0.885023270008332
1580422674.54975,-24.2618448157473,-60.2731364919509,6.19516289005878
1580422674.55377,-36.5911345082782,-64.1184100099183,11.9325551232166
1580422674.55777,-46.8451972228581,-68.0247196154726,19.0127412832837
1580422674.56176,-54.0474555580988,-72.480354009308,24.8722056916151
1580422674.56575,-58.0758373388267,-76.6308079652094,29.6330205233844
1580422674.56975,-59.4796673533226,-80.3540093080032,34.1496910048065
1580422674.57374,-58.7472343022812,-82.734416723888,38.1780727855344
1580422674.57773,-57.1602960250248,-84.1992828259708,41.1078049897001
1580422674.58173,-54.9629968719005,-85.3589684901197,42.5726710917829
1580422674.58572,-52.8267338063631,-86.5796902418554,42.1454184786753
1580422674.58971,-51.728084229801,-88.1055924315251,40.3143358510717
1580422674.59371,-51.9722285801481,-90.3028915846494,37.6897840848401
1580422674.5977,-54.2305638208591,-92.3170824750132,34.9431601434346
1580422674.60169,-58.4420538643474,-93.4767681391622,32.0134279392689
1580422674.60569,-63.4470130464638,-94.0260929274434,28.7785152971694
1580422674.60968,-68.0247196154726,-93.9650568398567,25.5436026550697
1580422674.61367,-71.1985961699854,-93.1105516136415,22.1255817502097
1580422674.61767,-72.7244983596552,-90.8522163729303,19.0737773708704
1580422674.62166,-73.1517509727626,-87.1900511177232,16.6933699549859
1580422674.62565,-73.7010757610437,-83.1616693369954,14.6791790646218
1580422674.62965,-74.7997253376059,-79.8046845197223,13.2753490501259
1580422674.63364,-76.5087357900359,-77.302204928664,12.4208438239109
1580422674.63763,-78.7060349431601,-74.7997253376059,11.810482948043
1580422674.64162,-81.0864423590447,-72.2972457465476,11.7494468604561
1580422674.64562,-81.8188754100861,-70.6492713817045,11.6273746852826
1580422674.64961,-80.5981536583504,-70.7103074692911,11.8715190356297
1580422674.6536,-78.7060349431601,-70.5271992065309,12.4208438239109
1580422674.6576,-77.0580605783168,-68.5740444037538,12.9701686121919
1580422674.66159,-75.1049057755397,-65.0339513237202,13.6415655756466
1580422674.66558,-72.4193179217211,-61.3717860685131,14.1908903639276
1580422674.66958,-68.8181887541009,-58.3810177767605,14.7402151522087
1580422674.67357,-64.484626535439,-55.0240329594874,15.1674677653161
1580422674.67756,-59.2965590905624,-51.6060120546274,15.7167925535973
1580422674.68156,-53.437094682231,-48.9204242008088,16.3271534294652
1580422674.68555,-46.9062333104448,-46.2958724345769,16.937514305333
1580422674.68954,-39.459830624857,-43.1219958800641,17.792019531548
1580422674.69354,-30.609597924773,-39.0325780117496,19.1348134584573
1580422674.69753,-21.0879682612344,-35.0041962310218,20.6607156481268
1580422674.70153,-11.7494468604561,-31.6472114137484,22.7969787136644
1580422674.70552,-3.20439459830618,-28.6564431219958,25.1773861295489
1580422674.70951,3.81475547417404,-25.0553139543754,27.6188296330204
1580422674.7135,8.45349813076973,-20.1113908598459,29.8771648737315
1580422674.71749,11.4442664225223,-14.7402151522087,31.8913557640954
1580422674.72149,13.5805294880597,-9.79629205767901,33.4172579537651
1580422674.72548,15.8388647287709,-5.58480201419093,34.2717631799801
1580422674.72948,18.7685969329366,-1.8616006713969,34.3938353551537
1580422674.73347,22.7359426260775,0.946059357595232,33.7834744792858
1580422674.73746,27.2526131074997,2.7161058976119,32.2575722896161
1580422674.74145,31.8913557640954,4.18097199969475,30.1213092240787
1580422674.74545,36.7132066834515,5.21858548867021,27.6188296330204
1580422674.74944,41.7181658655679,5.15754940108332,25.0553139543754
1580422674.75344,46.5400167849239,3.50957503624022,22.613870450904
1580422674.75743,50.4463263904781,0.457770656900948,20.2944991226061
1580422674.76142,53.6812390325777,-2.83817807278547,18.2192721446554
1580422674.76542,56.2447547112229,-6.31723506523235,16.5102616922254
1580422674.76941,56.6720073243305,-11.2611581597619,14.6791790646218
1580422674.7734,53.8033112077514,-17.0595864805066,12.9091325246052
1580422674.7774,47.8217746242465,-22.064545662623,11.0780498970016
1580422674.78139,40.8636606393529,-26.1539635309375,8.94178683146401
1580422674.78538,33.7224383916989,-30.2433813992523,6.86655985351331
1580422674.78938,26.5812161440451,-35.0652323186084,4.54718852521546
1580422674.7934,19.6841382467383,-39.8260471503777,2.41092545967808
1580422674.79739,12.7870603494316,-44.8310063324941,0.213626306553806
1580422674.80138,6.43930724040592,-49.8359655146105,-1.80056458381023
1580422674.80538,1.0070954451819,-54.2305638208591,-3.38750286106665
1580422674.80937,-3.20439459830618,-57.8927290760662,-4.8523689631495
1580422674.81336,-6.62241550316617,-60.9445334554055,-6.31723506523235
1580422674.81736,-9.55214770733187,-63.3859769588769,-7.7821011673152
1580422674.82135,-12.4208438239109,-65.2780956740673,-9.4911116197452
1580422674.82534,-14.923323414969,-66.4377813382162,-11.1390859845883
1580422674.82934,-17.4258030060273,-67.6585030899519,-12.9701686121919
1580422674.83333,-19.6841382467383,-68.6961165789273,-14.6181429770352
1580422674.83732,-21.4541847867551,-69.2454413672083,-16.0219729915311
1580422674.84132,-22.5528343633173,-69.3064774547952,-16.937514305333
1580422674.84531,-22.6749065384909,-68.6961165789273,-17.4258030060273
1580422674.8493,-22.2476539253832,-67.5974670023652,-17.5478751812009
1580422674.8533,-20.1724269474325,-66.3767452506295,-17.3647669184404
1580422674.85729,-16.4492256046387,-64.8508430609597,-16.8154421301595
1580422674.86128,-10.7118333714809,-63.0197604333562,-16.0219729915311
1580422674.86528,-2.96025024795904,-60.5783169298847,-14.923323414969
1580422674.86927,6.74448767833974,-57.7706569008926,-13.7026016632333
1580422674.87326,18.2192721446554,-54.7798886091402,-12.2987716487373
1580422674.87725,30.5485618371861,-51.7891203173876,-11.0170138094147
1580422674.88125,42.9999237048903,-48.7983520256353,-9.97940032043948
1580422674.88524,55.329213397421,-45.6244754711224,-9.36903944457163
1580422674.88923,67.1091783016709,-41.9623102159153,-9.18593118181116
1580422674.89323,78.5229266803999,-37.9339284351875,-9.4300755321583
1580422674.89722,89.7535667963684,-33.1731136034182,-9.91836423285258
1580422674.90121,101.045242999924,-28.1071183337147,-10.4066529335469
1580422674.90521,111.848630502785,-23.1631952391851,-10.5897611963073
1580422674.9092,121.370260166324,-18.5244525825894,-10.3456168459602
1580422674.91319,128.694590676738,-14.373998626688,-9.85732814526591
1580422674.91719,132.784008545052,-10.5897611963073,-9.06385900663759
1580422674.92118,134.248874647135,-6.74448767833974,-8.08728160524902
1580422674.92518,133.455405508507,-3.44853894865332,-6.86655985351331
1580422674.92917,131.013962005035,-0.823987182421661,-5.34065766384379
1580422674.93316,126.924544136721,0.762951094834762,-3.75371938658736
1580422674.93716,121.24818799115,1.80056458381023,-1.73952849622333
1580422674.94115,114.168001831083,2.53299763485165,0.0305180437933359
1580422674.94514,106.904707408255,3.32646677347975,1.67849240863666
1580422674.94914,100.801098649576,3.14335851071951,2.47196154726475
1580422674.95316,96.5285725185017,2.53299763485165,2.04470893415737
1580422674.95715,93.4767681391622,2.59403372243833,-0.0305180437933359
1580422674.96114,90.9132524605175,3.44853894865332,-3.14335851071951
1580422674.96514,88.7769893949799,4.91340505073617,-6.43930724040592
1580422674.96913,86.5796902418556,6.62241550316617,-9.24696726939806
1580422674.97312,84.443427176318,7.90417334248878,-10.650797283894
1580422674.97712,82.3071641107808,8.81971465629044,-10.5287251087204
1580422674.98111,80.3540093080037,9.36903944457163,-8.81971465629044
1580422674.9851,78.7060349431604,10.2235446707866,-6.01205462729831
1580422674.9891,77.7294575417718,11.505302510109,-2.41092545967808
1580422674.99309,77.8515297169452,13.3974212252995,1.98367284657047
1580422674.99708,79.316395819028,15.8999008163576,6.68345159075307
1580422675.00108,81.8188754100865,18.7685969329366,11.7494468604561
1580422675.00507,84.6875715266651,21.8204013122759,16.5712977798123
1580422675.00906,88.1055924315251,25.2994583047225,20.9658960860609
1580422675.01306,91.5846494239722,28.900587472343,25.1163500419623
1580422675.01705,94.3923094529641,32.6848249027237,28.7785152971694
1580422675.02104,95.7961394674603,37.0794232089722,32.0744640268558
1580422675.02504,95.307850766766,41.8402380407415,34.7600518806744
1580422675.02903,92.439154650187,46.6620889600974,36.530098420691
1580422675.03302,87.312123292897,50.7515068284119,36.9573510337987
1580422675.03701,79.2553597314413,54.1695277332719,36.0418097199968
1580422675.04101,68.2688639658199,57.3434042877848,33.5393301289387
1580422675.045,54.2915999084457,60.8834973678186,29.755092698558
1580422675.04899,37.7508201724268,64.3625543602657,25.1163500419623
1580422675.05299,19.8062104219118,67.2922865644314,20.2334630350194
1580422675.05698,1.37331197070262,69.5506218051423,15.2895399404897
1580422675.06097,-16.4492256046387,70.4661631189442,10.5897611963073
1580422675.06497,-32.6848249027239,70.2220187685971,6.56137941557949
1580422675.06896,-46.1738002594034,68.879224841688,3.02128633554594
1580422675.07295,-56.6109712367438,66.0715648126957,0.396734569314049
1580422675.07695,-63.9353017471581,61.7380025940333,-1.8616006713969
1580422675.08094,-68.6350804913404,56.0616464484624,-3.50957503624022
1580422675.08493,-71.3817044327459,48.6152437628748,-4.48615243762879
1580422675.08893,-72.6634622720683,39.7650110627908,-5.21858548867021
1580422675.09292,-72.6024261844816,30.1213092240787,-5.6458381017776
1580422675.09692,-70.7103074692911,20.9658960860609,-5.40169375143046
1580422675.10091,-66.4988174258031,12.9091325246052,-4.60822461280236
1580422675.1049,-59.6627756160831,7.11070420386045,-3.38750286106665
1580422675.1089,-50.0801098649576,3.32646677347975,-1.73952849622333
1580422675.11292,-38.6663614862289,1.31227588311594,0.457770656900948
1580422675.11691,-26.2149996185244,0.885023270008332,3.20439459830618
1580422675.1209,-13.8246738384069,1.67849240863666,6.5003433279926
1580422675.12489,-1.8616006713969,3.50957503624022,10.3456168459602
1580422675.12889,8.94178683146401,5.95101853971164,14.4350347142747
1580422675.13288,17.9140917067216,9.73525597009234,18.5854886701761
1580422675.13688,24.322880903334,15.228503852903,22.7359426260775
1580422675.14087,28.1681544213016,22.3086900129701,26.7032883192187
1580422675.14486,30.3044174868389,31.1589227130539,30.7927061875332
1580422675.14886,30.9147783627068,40.9246967269396,34.5769436179139
1580422675.15285,31.3420309758144,51.7891203173876,38.0560006103608
1580422675.15684,31.9523918516823,63.0197604333566,40.8636606393529
1580422675.16084,32.1965362020294,74.4335088120852,43.1219958800639
1580422675.16483,32.3796444647896,86.0303654535746,44.7699702449072
1580422675.16882,32.318608377203,97.3220416571298,45.8686198214693
1580422675.17282,32.2575722896161,107.331960021363,47.089341573205
1580422675.17681,32.5627527275501,116.182192721446,48.6762798504615
1580422675.1808,32.7458609903103,124.544136720836,50.5683985656519
1580422675.1848,33.6614023041122,132.295719844358,53.2539864194705
1580422675.18879,36.4690623331044,138.155184252689,56.9771877622643
1580422675.19278,43.2440680552374,142.122529945831,62.2262912947276
1580422675.19677,56.1226825360491,145.906767376211,69.1233691920352
1580422675.20077,76.8139162279699,151.705195696956,78.3398184176394
1580422675.20476,105.012588693065,157.747768368048,90.4859998474099
1580422675.20875,140.108339055466,156.832227054246,104.829480430305
1580422675.21275,171.663996337835,144.991226062409,119.417105363546
1580422675.21674,178.500038147555,122.407873655299,131.868467231251
1580422675.22073,151.277943083848,90.4249637598232,137.911039902342
1580422675.22473,99.6414129854279,57.1602960250248,131.624322880903
1580422675.22872,43.5492484931715,36.8352788586251,110.200656137942
1580422675.23271,-11.7494468604561,25.3604943923094,88.5328450446327
1580422675.23671,-67.7805752651254,8.08728160524902,71.6868848706799
1580422675.2407,-98.5427634088655,-9.4911116197452,57.5265125505452
1580422675.24469,-115.815976195926,-31.0368505378804,46.4179446097503
1580422675.24869,-120.210574502174,-48.1269550621805,36.4080262455175
1580422675.25268,-115.754940108339,-43.9765011062791,24.8111696040282
1580422675.25668,-115.999084458686,-25.7877470054168,9.97940032043948
1580422675.26067,-122.774090180819,-3.81475547417404,-7.04966811627378
1580422675.26466,-129.610131990539,17.5478751812009,-23.4073395895323
1580422675.26866,-129.915312428473,35.7366292820629,-36.896314946212
1580422675.27264,-121.919584954604,49.7749294270234,-47.5165941863127
1580422675.27664,-104.707408255131,58.6861982146943,-55.2681773098345
1580422675.28063,-75.4100862134737,60.2731364919505,-59.7238117036698
1580422675.28462,-34.637979705501,55.0850690470738,-59.5407034409095
1580422675.28862,12.7870603494316,44.8920424200808,-53.4981307698176
1580422675.29261,56.2447547112229,33.3562218661782,-42.2674906538491
1580422675.2966,84.260318913558,25.6656748302432,-27.3136491950866
1580422675.3006,86.5796902418556,26.8253604943923,-11.810482948043
1580422675.30459,62.1652552071409,40.4364080262453,0.823987182421661
1580422675.30858,23.3463035019454,64.1794460975052,8.20935378042259
1580422675.31258,-8.27038986800949,93.1715877012284,11.1390859845883
1580422675.31657,-14.4350347142747,123.201342793927,13.8246738384069
1580422675.32057,9.85732814526591,149.019607843137,20.4776073853666
1580422675.32456,48.7373159380481,161.837186236362,32.0134279392689
1580422675.32855,75.4711223010609,155.61150530251,46.4179446097503
1580422675.33255,76.2035553521023,135.286488136111,59.2965590905619
1580422675.33654,50.202182040131,113.191424429694,63.5080491340509
1580422675.34053,7.35484855420759,98.2986190585184,57.2823682001981
1580422675.34453,-35.3704127565425,91.3405050736251,45.6855115587089
1580422675.34852,-66.5598535133897,87.5562676432442,33.4782940413518
1580422675.35254,-84.5044632639047,83.4058136873427,23.468375677119
1580422675.35653,-94.7585259784848,78.5229266803999,16.937514305333
1580422675.36053,-100.74006256199,73.3348592355233,14.2519264515145
1580422675.36452,-103.120469977875,69.2454413672085,15.0453955901426
1580422675.36851,-101.655603875792,68.0247196154728,17.9140917067216
1580422675.37251,-96.162355992981,70.8323796444652,22.0035095750361
1580422675.3765,-87.2510872053101,77.5463492790113,25.9708552681773
1580422675.38049,-74.5555809872587,87.1900511177237,29.3278400854504
1580422675.38449,-59.1744869153888,98.2986190585184,31.5861753261615
1580422675.38848,-41.7792019531548,108.674753948272,32.6237888151368
1580422675.39247,-24.0177004654001,117.036697947662,32.1355001144425
1580422675.39647,-7.72106507972831,122.95719844358,30.2433813992523
1580422675.40046,6.43930724040592,126.802471961547,27.3746852826732
1580422675.40445,18.7685969329366,129.488059815366,23.8956282902266
1580422675.40845,29.8771648737315,132.112611581598,20.5386434729533
1580422675.41244,39.8870832379644,135.286488136111,17.486839093614
1580422675.41644,49.042496375982,138.52140077821,15.0453955901426
1580422675.42043,57.1602960250248,140.962844281682,13.214312962539
1580422675.42442,63.5080491340509,142.183566033417,12.4818799114976
1580422675.42841,68.2078278782333,141.93942168307,12.6039520866711
1580422675.4324,71.2596322575723,141.390096894789,13.8857099259938
1580422675.4364,73.3958953231099,141.268024719615,16.083009079118
1580422675.44039,75.0438696879532,142.366674296178,19.3179217212175
1580422675.44438,76.6308079652094,144.258793011368,23.2242313267718
1580422675.44838,77.607385366598,146.395056076905,27.5577935454337
1580422675.45237,77.9125658045323,148.77546349279,31.5251392385746
1580422675.45636,77.7294575417718,150.789654383154,34.5769436179139
1580422675.46036,76.2035553521023,151.888303959716,36.8352788586251
1580422675.46435,73.6400396734571,151.766231784542,37.8118562600137
1580422675.46834,70.1609826810104,151.461051346609,37.6287479972532
1580422675.47234,64.9118791485466,151.766231784542,36.5911345082779
1580422675.47633,57.7096208133057,152.376592660411,34.7600518806744
1580422675.48032,48.3100633249405,152.498664835584,32.7458609903103
1580422675.48432,37.8118562600137,152.742809185931,30.0602731364918
1580422675.48831,28.2902265964751,152.925917448692,25.482566567483
1580422675.49231,21.3321126115816,152.986953536278,18.5244525825894
1580422675.4963,17.8530556191347,152.986953536278,8.39246204318306
1580422675.50029,18.7685969329366,153.597314412146,-7.72106507972831
1580422675.50429,21.6372930495154,156.221866178378,-14.1908903639276
1580422675.50828,17.6699473563745,163.607232776379,6.31723506523235
1580422675.5123,8.45349813076973,165.377279316396,12.0546272983902
1580422675.51629,1.43434805828952,156.160830090791,13.1532768749523
1580422675.52028,-2.53299763485165,153.047989623865,13.4584573128861
1580422675.52428,-4.30304417486832,154.207675288014,14.5571068894483
1580422675.52827,-3.50957503624022,154.329747463188,16.2050812542916
1580422675.53227,-0.885023270008332,152.864881361105,18.8296330205233
1580422675.53626,2.83817807278547,151.094834821088,22.613870450904
1580422675.54025,7.17174029144735,149.752040894179,26.9474326695658
1580422675.54425,12.6039520866711,148.836499580377,31.4030670634011
1580422675.54824,19.0127412832837,148.653391317616,35.4314488441289
1580422675.55223,25.6656748302432,149.507896543832,38.6663614862287
1580422675.55623,31.464103150988,151.461051346609,40.9857328145265
1580422675.56022,36.1638818951703,153.597314412146,42.3285267414358
1580422675.56421,39.3987945372701,155.367360952163,42.8778515297167
1580422675.56821,42.0843823910886,155.672541390097,42.8168154421301
1580422675.5722,44.2816815442129,153.963530937667,42.0843823910886
1580422675.57619,46.3569085221636,150.240329594873,40.6805523765925
1580422675.58019,48.4321355001143,144.747081712062,38.3611810482946
1580422675.58418,50.6904707408253,137.483787289235,35.3704127565422
1580422675.58817,52.7046616311891,128.572518501564,31.464103150988
1580422675.59216,53.6812390325777,118.135347524224,26.1539635309375
1580422675.59616,52.8877698939496,106.538490882735,20.1724269474325
1580422675.60015,49.5918211642634,94.5754177157246,13.4584573128861
1580422675.60414,44.1596093690393,83.1006332494089,6.74448767833974
1580422675.60814,37.6897840848401,72.3582818341347,1.19020370794237
1580422675.61213,32.0744640268558,61.9821469443805,-2.96025024795904
1580422675.61612,28.1681544213016,52.2163729304948,-4.97444113832307
1580422675.62012,26.7643244068054,42.9388876173036,-5.27962157625689
1580422675.62411,27.6798657206073,33.6614023041122,-4.30304417486832
1580422675.6281,30.8537422751201,23.3463035019454,-3.02128633554594
1580422675.6321,35.0652323186082,13.0312046997788,-1.73952849622333
1580422675.63609,40.2532997634851,3.44853894865332,-0.885023270008332
1580422675.64008,46.4179446097503,-6.07309071488521,-0.70191500724809
1580422675.64408,52.8877698939496,-15.4726482032502,-1.31227588311594
1580422675.64807,58.6251621271076,-23.1021591515982,-3.14335851071951
1580422675.65207,61.9821469443805,-29.3278400854504,-5.46272983901736
1580422675.65606,63.8132295719847,-35.492484931716,-8.20935378042259
1580422675.66005,65.7663843747619,-42.877851529717,-10.650797283894
1580422675.66405,69.2454413672085,-51.728084229801,-12.7260242618447
1580422675.66804,74.006256198978,-63.0807965209431,-14.6181429770352
1580422675.67203,78.0956740672923,-78.7060349431601,-16.7544060425726
1580422675.67602,79.6215762569623,-97.0778973067827,-19.7451743343252
1580422675.68001,77.3022049286642,-115.083543144885,-24.0787365529868
1580422675.68401,71.2596322575723,-130.403601129168,-30.5485618371861
1580422675.688,61.1276417181657,-143.526359960327,-39.3377584496834
1580422675.69199,47.2114137483786,-155.977721828031,-50.6904707408255
1580422675.69599,32.2575722896161,-167.086289768826,-64.3625543602654
1580422675.69998,20.2944991226061,-175.75341420615,-79.4384679942016
1580422675.70397,14.7402151522087,-184.359502555886,-94.7585259784848
1580422675.70797,14.4960708018616,-195.895323109789,-108.674753948272
1580422675.71196,15.5947203784237,-211.459525444419,-120.210574502174
1580422675.71596,18.5244525825894,-226.962691691463,-128.877698939498
1580422675.71995,28.900587472343,-239.780270084688,-134.493018997482
1580422675.72394,47.4555580987258,-249.485008010987,-136.934462500954
1580422675.72794,70.771343556878,-249.668116273747,-135.347524223697
1580422675.73193,98.7869077592127,-242.832074464027,-128.694590676738
1580422675.73592,129.121843289845,-243.198290989548,-117.219806210422
1580422675.73992,151.766231784542,-252.170595864805,-101.045242999924
1580422675.74391,157.381551842527,-262.058442053864,-81.6968032349125
1580422675.7479,144.686045624475,-269.810025177386,-61.4328221560997
1580422675.75192,117.83016708629,-275.120164797436,-42.877851529717
1580422675.75592,84.0772106507975,-278.721293965057,-27.0084687571525
1580422675.75991,51.4839398794534,-282.688639658198,-13.1532768749523
1580422675.7639,29.755092698558,-286.961165789273,-1.25123979552905
1580422675.7679,22.4307621881437,-286.350804913405,7.35484855420759
1580422675.77189,24.1397726405737,-275.913633936065,14.923323414969
1580422675.77588,27.9240100709544,-259.433890287632,23.773556115053
1580422675.77988,28.3512626840618,-242.282749675746,33.7224383916989
1580422675.78387,22.0035095750361,-228.244449530785,43.4271763179979
1580422675.78786,5.95101853971164,-218.356603341726,51.7280842298005
1580422675.79186,-19.9282825970854,-212.924391546502,57.3434042877848
1580422675.79585,-50.3852903028917,-210.177767605097,59.1744869153886
1580422675.79984,-78.156710154879,-208.346684977493,56.6720073243305
1580422675.80384,-97.9324025329977,-207.309071488517,50.2632181277177
1580422675.80783,-109.10200656138,-207.797360189212,41.9623102159151
1580422675.81183,-115.144579232471,-210.055695429923,33.7224383916989
1580422675.81582,-119.783321889067,-213.839932860304,27.3136491950866
1580422675.81981,-123.628595407034,-218.234531166552,22.613870450904
1580422675.8238,-124.422064545663,-222.507057297627,20.7217517357137
1580422675.8278,-118.989852750439,-226.657511253529,21.0269321736475
1580422675.83179,-105.622949568933,-229.770351720455,23.0411230640116
1580422675.83578,-86.152437628748,-230.62485694667,25.2384222171358
1580422675.83977,-64.3015182726788,-228.976882581827,26.3981078812847
1580422675.84377,-43.5492484931717,-225.253681239033,25.0553139543754
1580422675.84776,-25.5436026550697,-219.272144655528,20.7827878233004
1580422675.85175,-9.97940032043948,-211.337453269245,14.373998626688
1580422675.85575,4.24200808728165,-201.388570992599,6.56137941557949
1580422675.85974,19.0127412832837,-190.707255664912,-1.37331197070262
1580422675.86373,34.2107270923932,-180.270084687572,-8.88075074387734
1580422675.86773,48.3710994125277,-170.931563286793,-14.9843595025559
1580422675.87172,59.4796673533224,-162.874799725338,-19.6841382467383
1580422675.87572,65.8274204623485,-156.95429922942,-22.8580148012511
1580422675.87971,67.8416113527123,-153.047989623865,-24.5059891660944
1580422675.8837,66.3767452506295,-149.263752193484,-24.9942778667887
1580422675.8877,62.9587243457695,-145.479514763104,-24.4449530785075
1580422675.89169,57.5265125505452,-143.099107347219,-22.919050888838
1580422675.89568,50.202182040131,-141.573205157549,-20.4776073853666
1580422675.89968,39.8260471503775,-140.962844281682,-18.2803082322423
1580422675.90367,26.5201800564582,-140.779736018921,-16.1440451667047
1580422675.90766,10.4066529335469,-140.23041123064,-14.4960708018616
1580422675.91168,-7.66002899214163,-139.009689478904,-12.664988174258
1580422675.91567,-26.8253604943923,-136.81239032578,-10.2235446707866
1580422675.91967,-46.1127641718167,-133.089188982986,-7.53795681696806
1580422675.92366,-64.3625543602654,-127.351796749828,-4.60822461280236
1580422675.92766,-80.6591897459373,-119.53917753872,-1.73952849622333
1580422675.93165,-95.0637064164189,-109.28511482414,1.0070954451819
1580422675.93564,-107.515068284123,-96.8947890440224,4.24200808728165
1580422675.93964,-118.318455786984,-83.2837415121689,8.33142595559616
1580422675.94363,-126.619363698787,-69.4895857175554,12.8480964370183
1580422675.94762,-131.929503318837,-55.3292133974212,17.9140917067216
1580422675.95162,-134.92027161059,-40.4364080262455,24.322880903334
1580422675.95561,-136.934462500954,-22.5528343633173,31.5861753261615
1580422675.9596,-142.549782558938,0.396734569314049,38.4222171358815
1580422675.9636,-164.644846265355,22.7359426260775,40.802624551766
1580422675.96759,-225.558861676967,30.3044174868389,14.4350347142747
1580422675.97158,-331.212329289692,15.0453955901426,-18.7075608453497
1580422675.97558,-425.391012436103,-12.7260242618447,-17.3647669184404
1580422675.97957,-469.703212024109,-6.01205462729831,-13.7026016632333
1580422675.98356,-492.835889219501,26.5201800564582,-17.3647669184404
1580422675.98756,-489.906157015335,61.5548943312733,-30.4875257495994
1580422675.99155,-431.067368581674,92.2560463874265,-46.4789806973374
1580422675.99554,-320.958266575112,110.566872663462,-53.1319142442969
1580422675.99953,-187.838559548333,123.323414969101,-48.4931715877012
1580422676.00353,-51.2397955291067,135.896849011978,-37.1404592965591
1580422676.00752,79.1943236438547,148.958571755551,-21.210040436408
1580422676.01151,196.810864423591,158.724345769436,-1.0070954451819
1580422676.01551,294.468604562448,160.982681010147,22.4917982757304
1580422676.0195,365.148393987945,154.329747463188,47.0283054856181
1580422676.02349,403.967345693141,137.056534676127,68.6961165789276
1580422676.02749,406.408789196612,108.064393072404,88.8990615701537
1580422676.03148,368.505378805219,76.1425192645152,102.510109102006
1580422676.03548,292.942702372778,56.5499351491567,106.355382619974
1580422676.03947,193.514915693904,57.038223849851,94.3923094529641
1580422676.04346,76.3866636148623,66.7429617761504,74.6166170748456
1580422676.04745,-34.637979705501,68.6961165789276,61.1886778057524
1580422676.05145,-113.679713130388,59.90691996643,56.4278629739833
1580422676.05544,-160.37232013428,45.3803311207751,59.1744869153886
1580422676.05944,-177.279316395819,27.4967574578468,65.461203936828
1580422676.06343,-161.226825360495,10.5897611963073,72.1751735713742
1580422676.06742,-116.365300984207,0.091554131380235,80.4150453955904
1580422676.07141,-56.7330434119174,-1.98367284657047,91.7677576867322
1580422676.0754,1.8616006713969,3.32646677347975,104.280155642024
1580422676.0794,52.1553368429081,14.8012512397954,114.961470969711
1580422676.08339,93.7819485770965,30.9147783627068,120.515754940108
1580422676.08738,125.276569771878,50.2632181277177,120.088502327001
1580422676.09138,143.282215609979,67.9026474402995,114.290074006256
1580422676.09537,145.17433432517,78.5839627679866,104.280155642024
1580422676.09936,133.028152895399,78.7060349431604,90.5470359349965
1580422676.10336,113.191424429694,68.0247196154728,73.7621118486309
1580422676.10735,92.9884794384679,50.2632181277177,55.3902494850076
1580422676.11135,76.9970244907304,28.6564431219958,36.7132066834515
1580422676.11534,66.8650339513238,4.42511635004189,18.1582360570687
1580422676.11933,60.8224612802319,-21.6372930495154,-0.51880674448762
1580422676.12333,51.7280842298005,-47.2114137483788,-20.050354772259
1580422676.12732,33.9665827420461,-69.611657892729,-40.2532997634853
1580422676.13131,5.88998245212474,-78.7670710307468,-59.6627756160831
1580422676.13531,-30.0602731364918,-66.3157091630426,-73.8231479362173
1580422676.1393,-62.0431830319676,-30.4875257495994,-79.8046845197223
1580422676.14329,-73.029678797589,19.2568856336309,-77.3632410162509
1580422676.14729,-50.8125429159991,62.4704356450748,-66.9871061264973
1580422676.15131,2.16678110933094,89.1432059205008,-45.8075837338827
1580422676.1553,59.8458838788433,98.1155107957579,-10.7118333714809
1580422676.15929,88.1666285191122,85.7862211032275,33.6614023041122
1580422676.16329,73.1517509727628,53.0098420691234,74.9828336003666
1580422676.16728,27.3746852826732,17.2426947432668,100.190737773709
1580422676.17127,-24.6890974288547,-2.22781719691761,106.904707408255
1580422676.17527,-62.7145799954224,-1.31227588311594,101.106279087511
1580422676.17926,-84.5044632639047,7.90417334248878,92.6832990005341
1580422676.18325,-108.247501335165,15.8999008163576,88.4107728694594
1580422676.18725,-138.948653391318,25.2994583047225,85.3589684901199
1580422676.19124,-169.893949797818,22.3697261005568,81.6968032349127
1580422676.19523,-189.669642175937,0.946059357595232,74.1283283741514
1580422676.19923,-190.035858701457,-18.7685969329366,59.6627756160829
1580422676.20322,-179.293507286183,-22.5528343633173,39.0325780117494
1580422676.20721,-168.001831082628,-15.1064316777295,16.937514305333
1580422676.21121,-157.076371404593,-3.87579156176093,-1.80056458381023
1580422676.2152,-142.061493858244,7.84313725490188,-14.4350347142747
1580422676.21919,-117.83016708629,18.8906691081102,-21.0879682612344
1580422676.22319,-81.6968032349125,28.2291905088882,-23.773556115053
1580422676.22718,-33.7224383916991,36.2249179827572,-25.0553139543754
1580422676.23117,22.0035095750361,45.5634393835353,-25.9098191805904
1580422676.23516,76.2035553521023,58.747234302281,-27.0695048447394
1580422676.23916,117.586022735943,76.7528801403832,-28.8395513847561
1580422676.24315,141.512169069963,97.5051499198903,-31.4030670634013
1580422676.24714,151.888303959716,116.548409246967,-34.9431601434349
1580422676.25114,156.038757915618,130.281528953994,-38.3611810482948
1580422676.25513,158.236057068742,137.361715114061,-39.8870832379646
1580422676.25912,158.785381857023,138.094148165103,-38.8494697489891
1580422676.26312,152.925917448692,133.028152895399,-32.8068970778975
1580422676.26711,136.079957274739,124.605172808423,-19.0127412832837
1580422676.2711,109.712367437247,117.158770122835,1.9226367589838
1580422676.2751,80.6591897459375,113.313496604868,24.5670252536811
1580422676.27909,55.7564660105286,113.984893568322,42.4505989166094
1580422676.28309,37.2014953841458,117.158770122835,52.8877698939496
1580422676.28708,22.613870450904,120.027466239414,56.48889906157
1580422676.29107,8.02624551766235,121.187151903563,55.4512855725948
1580422676.29507,-6.80552376592664,119.356069275959,52.3384451056686
1580422676.29906,-20.7827878233004,114.656290531777,48.7983520256348
1580422676.30305,-31.8913557640956,108.735790035859,45.075150682841
1580422676.30705,-38.1170366979477,104.402227817197,42.0843823910886
1580422676.31106,-39.8870832379646,103.181506065461,40.2532997634851
1580422676.31506,-38.3001449607082,104.707408255131,39.3987945372701
1580422676.31905,-35.492484931716,108.125429159991,38.9715419241625
1580422676.32305,-32.7458609903106,113.191424429694,38.3611810482946
1580422676.32704,-29.3888761730373,118.867780575265,37.0794232089722
1580422676.33103,-25.1773861295489,124.483100633249,34.9431601434346
1580422676.33503,-19.501029983978,129.549095902953,32.5627527275501
1580422676.33902,-12.359807736324,133.943694209201,30.0602731364918
1580422676.34301,-4.54718852521546,137.727931639582,27.4357213702601
1580422676.34701,2.7771419851988,140.718699931334,24.8722056916151
1580422676.351,9.24696726939806,142.854962996872,22.613870450904
1580422676.35499,14.8622873273823,144.258793011368,20.5996795605402
1580422676.35899,19.195849546044,144.991226062409,19.2568856336309
1580422676.36298,22.3086900129701,145.296406500343,18.2803082322423
1580422676.36697,24.3839169909209,145.296406500343,17.6089112687876
1580422676.37097,25.7877470054168,145.235370412756,17.4258030060273
1580422676.37496,27.3136491950866,145.479514763103,17.0595864805066
1580422676.37895,29.3278400854504,146.211947814145,17.5478751812009
1580422676.38295,32.2575722896161,147.188525215533,18.4634164950025
1580422676.38694,36.0418097199968,149.263752193484,19.6841382467383
1580422676.39093,40.802624551766,151.949340047303,20.7217517357137
1580422676.39492,46.2958724345767,155.42839703975,21.759365224689
1580422676.39892,52.3384451056686,159.700923170825,22.7359426260775
1580422676.40291,58.3199816891733,164.339665827421,23.1021591515982
1580422676.4069,64.1184100099185,168.123903257801,21.759365224689
1580422676.4109,69.1844052796218,171.663996337835,19.8062104219118
1580422676.41489,75.8373388265813,176.668955519951,0.213626306553806
1580422676.41888,86.9459067673765,172.88471808957,-33.1120775158313
1580422676.42288,88.2276646066989,181.673914702068,0.396734569314049
1580422676.42687,84.1992828259708,199.86266880293,18.5854886701761
1580422676.43086,79.9267566948961,189.486533913177,23.2242313267718
1580422676.43486,75.4100862134737,178.133821622034,24.5670252536811
1580422676.43885,70.0389105058366,177.279316395819,24.5059891660944
1580422676.44284,63.4470130464638,177.035172045472,23.7125200274661
1580422676.44684,56.9161516746776,173.983367666132,22.1866178377966
1580422676.45083,50.5683985656519,169.771877622644,20.1724269474325
1580422676.45483,43.8544289311053,164.278629739833,18.0971999694818
1580422676.45882,37.384603646906,157.808804455634,15.8388647287709
1580422676.46281,31.9523918516823,152.681773098344,13.6415655756466
1580422676.46681,27.5577935454337,149.691004806592,11.6273746852826
1580422676.47082,23.9566643778132,148.104066529335,9.97940032043948
1580422676.47482,19.9893186846723,147.676813916228,8.5755703059433
1580422676.47881,15.1064316777295,147.371633478294,7.47692072938116
1580422676.48281,9.12489509422448,145.662623025864,6.98863202868688
1580422676.4868,2.34988937209118,142.366674296178,7.04966811627378
1580422676.49079,-5.40169375143046,138.582436865797,7.53795681696806
1580422676.49479,-14.068818188754,134.859235523003,8.20935378042259
1580422676.49878,-22.919050888838,131.319142442969,9.06385900663759
1580422676.50277,-32.4406805523768,127.840085450523,10.1625085831997
1580422676.50677,-41.9623102159153,123.445487144274,11.6884107728695
1580422676.51076,-50.873579003586,118.318455786984,13.519493400473
1580422676.51475,-56.7940794995041,112.397955291066,15.9609369039445
1580422676.51875,-58.0758373388267,106.721599145495,18.646524757763
1580422676.52274,-54.3526359960326,101.777676050965,21.3931486991683
1580422676.52673,-47.5776302738996,97.4441138323036,23.7125200274661
1580422676.53073,-38.4222171358817,93.7209124895094,25.4215304798961
1580422676.53472,-28.5343709468223,90.1197833218894,26.2760357061111
1580422676.53871,-19.7451743343252,86.5186541542689,26.3981078812847
1580422676.54271,-14.1298542763409,83.0395971618223,25.9098191805904
1580422676.5467,-12.9091325246052,79.8657206073094,25.2384222171358
1580422676.55072,-15.1064316777295,76.6918440527966,24.0177004654001
1580422676.55471,-17.6089112687876,73.5179674982837,22.5528343633173
1580422676.55871,-17.9140917067216,70.2830548561838,20.2944991226061
1580422676.5627,-14.7402151522087,67.1091783016709,17.3647669184404
1580422676.56669,-7.84313725490188,62.4704356450748,13.8857099259938
1580422676.57069,1.61745632104976,57.2213321126114,10.1625085831997
1580422676.57468,12.5429159990845,52.2774090180819,6.68345159075307
1580422676.57867,24.4449530785075,47.8828107118331,3.57061112382689
1580422676.58267,36.3469901579308,43.0609597924772,0.762951094834762
1580422676.58666,47.5776302738993,37.6897840848401,-1.73952849622333
1580422676.59065,57.8927290760662,32.1965362020294,-4.11993591210808
1580422676.59465,67.1091783016709,27.191577019913,-6.19516289005878
1580422676.59864,75.1659418631266,22.6749065384909,-8.02624551766235
1580422676.60263,82.3682001983675,18.1582360570687,-9.97940032043948
1580422676.60663,87.8004119935913,13.4584573128861,-11.9325551232166
1580422676.61062,90.8522163729308,8.51453421835663,-13.7026016632333
1580422676.61462,91.279468986038,3.93682764934761,-15.5336842908368
1580422676.61861,90.0587472343022,-0.335698481727377,-17.7309834439611
1580422676.6226,87.8004119935913,-5.46272983901736,-19.9282825970854
1580422676.6266,84.6875715266651,-12.8480964370183,-22.1255817502097
1580422676.63058,81.0864423590451,-22.919050888838,-24.3839169909209
1580422676.63458,77.5463492790113,-34.0276188296332,-26.6422522316318
1580422676.63857,73.7621118486309,-44.2206454566262,-28.9616235599296
1580422676.64257,69.4895857175557,-53.7422751201648,-30.7927061875332
1580422676.64656,65.1560234988938,-66.7429617761502,-31.4641031509882
1580422676.65055,62.1652552071409,-83.3447775997558,-30.4264896620125
1580422676.65454,60.2731364919505,-99.8245212481881,-29.1447318226901
1580422676.65854,56.6720073243305,-113.252460517281,-28.5343709468223
1580422676.66253,49.7138933394367,-125.459678034638,-29.1447318226901
1580422676.66653,40.5584802014189,-137.544823376822,-30.5485618371861
1580422676.67052,29.9992370489051,-148.77546349279,-33.1731136034182
1580422676.67451,19.2568856336309,-160.128175783932,-37.6287479972534
1580422676.67851,9.12489509422448,-170.565346761273,-44.6478980697339
1580422676.6825,1.19020370794237,-175.875486381323,-53.7422751201648
1580422676.68649,-4.8523689631495,-180.209048599985,-63.4470130464638
1580422676.69049,-10.650797283894,-186.984054322118,-73.2738231479361
1580422676.69448,-14.8012512397954,-195.284962233921,-83.1006332494087
1580422676.69847,-12.5429159990845,-203.830014496071,-93.1715877012282
1580422676.70247,-5.09651331349664,-213.412680247196,-102.754253452354
1580422676.70646,2.16678110933094,-223.178454261082,-110.383764400702
1580422676.71048,4.91340505073617,-235.507743953613,-115.144579232471
1580422676.71447,4.60822461280236,-248.264286259251,-115.510795757992
1580422676.71847,7.11070420386045,-256.931410696574,-110.444800488289
1580422676.72246,14.2519264515145,-257.907988097963,-100.129701686122
1580422676.72645,23.6514839398794,-253.147173266194,-86.152437628748
1580422676.73045,29.6330205233844,-246.921492332342,-70.771343556878
1580422676.73444,27.7409018081939,-238.376440070192,-55.146105134661
1580422676.73843,17.2426947432668,-229.037918669413,-40.1922636758984
1580422676.74243,0.762951094834762,-220.614938582437,-27.3746852826732
1580422676.74642,-18.5244525825894,-211.581597619592,-18.2192721446554
1580422676.75041,-38.3001449607082,-202.121004043641,-12.5429159990845
1580422676.75441,-54.5357442587931,-194.979781795987,-8.45349813076973
1580422676.7584,-61.5548943312733,-190.768291752499,-3.81475547417404
1580422676.76239,-58.7472343022812,-188.937209124895,2.89921416037237
1580422676.76639,-50.6294346532388,-189.242389562829,10.4676890211338
1580422676.77038,-43.2440680552377,-195.040817883574,17.486839093614
1580422676.77438,-40.9857328145267,-206.271457999542,22.5528343633173
1580422676.77837,-43.8544289311055,-218.539711604486,24.322880903334
1580422676.78236,-48.9204242008088,-228.122377355612,22.4307621881437
1580422676.78636,-54.2305638208591,-233.005264362554,16.632333867399
1580422676.79034,-57.648584725719,-232.394903486687,8.75867856870377
1580422676.79434,-56.7940794995041,-227.38994430457,1.19020370794237
1580422676.79833,-49.7749294270238,-219.638361181048,-3.57061112382689
1580422676.80232,-35.7366292820632,-210.360875867857,-4.91340505073617
1580422676.80632,-16.6933699549859,-201.327534905012,-3.63164721141379
1580422676.81031,5.15754940108332,-193.514915693904,-1.61745632104976
1580422676.8143,26.5812161440451,-187.411306935225,0.335698481727377
1580422676.8183,45.5634393835353,-181.979095140002,0.885023270008332
1580422676.82229,60.8224612802319,-176.852063782712,-0.0305180437933359
1580422676.82628,72.1141374837875,-171.786068513008,-2.28885328450451
1580422676.83028,80.9033340962847,-166.475928892958,-5.21858548867021
1580422676.83427,89.1432059205008,-162.08133058671,-8.08728160524902
1580422676.83827,97.4441138323036,-159.090562294957,-10.7118333714809
1580422676.84226,104.707408255131,-156.649118791486,-12.1156633859769
1580422676.84625,109.040970473793,-154.390783550774,-12.7870603494316
1580422676.85025,110.322728313115,-152.071412222477,-13.0922407873654
1580422676.85424,109.651331349661,-150.118257419699,-12.8480964370183
1580422676.85823,108.308537422751,-148.043030441749,-11.9935912108033
1580422676.86223,106.965743495842,-146.150911726558,-10.8339055466545
1580422676.86622,105.317769130999,-145.35744258793,-8.81971465629044
1580422676.87024,102.876325627527,-146.028839551385,-6.86655985351331
1580422676.87423,99.1531242847336,-148.043030441749,-4.7913328755626
1580422676.87823,93.2326237888151,-149.752040894179,-2.83817807278547
1580422676.88222,84.6265354390785,-150.48447394522,-1.61745632104976
1580422676.88621,73.4569314106966,-149.996185244526,-0.762951094834762
1580422676.89021,61.0055695429919,-148.043030441749,-0.335698481727377
1580422676.8942,47.7607385366596,-144.869153887236,-0.0305180437933359
1580422676.89819,34.882124055848,-141.084916456855,-0.091554131380235
1580422676.90219,22.7359426260775,-136.81239032578,0.091554131380235
1580422676.90618,11.0780498970016,-131.929503318837,0.274662394140478
1580422676.91017,-0.091554131380235,-126.131074998093,0.396734569314049
1580422676.91417,-11.505302510109,-119.72228580148,0.335698481727377
1580422676.91816,-23.5294117647059,-112.825207904173,0.51880674448762
1580422676.92215,-36.346990157931,-105.439841306172,0.213626306553806
1580422676.92615,-50.7515068284124,-97.3830777447167,-0.152590218966907
1580422676.93014,-66.8039978637369,-88.2276646066987,-0.823987182421661
1580422676.93413,-84.7486076142518,-78.7060349431601,-2.28885328450451
1580422676.93813,-104.951552605478,-69.2454413672083,-4.42511635004189
1580422676.94212,-127.229724574655,-60.7003891050583,-6.98863202868688
1580422676.94612,-151.094834821088,-53.9864194705119,-9.91836423285258
1580422676.9501,-176.058594644083,-48.8593881132219,-12.6039520866711
1580422676.9541,-201.144426642252,-45.1972228580148,-14.7402151522087
1580422676.95809,-225.68093385214,-42.6337071793698,-16.5102616922254
1580422676.96208,-249.729152361334,-40.4974441138324,-17.1206225680933
1580422676.96608,-273.594262607767,-38.9715419241627,-16.8154421301595
1580422676.97007,-297.215228503853,-37.9339284351875,-15.5947203784237
1580422676.97406,-319.371328297856,-37.6287479972534,-14.9843595025559
1580422676.97806,-336.339360646982,-38.2391088731213,-14.8622873273823
1580422676.98205,-341.283283741512,-37.0183871213856,-13.0922407873654
1580422676.98604,-327.183947508965,-29.755092698558,-9.4300755321583
1580422676.99004,-291.355764095522,-13.9467460135804,-5.40169375143046
1580422676.99403,-236.789501792935,9.97940032043948,-2.10574502174404
1580422676.99803,-168.245975432975,37.2014953841458,1.25123979552905
1580422677.00202,-91.5846494239718,63.5080491340509,5.46272983901736
1580422677.00601,-13.9467460135804,84.1382467383842,12.2377355611504
1580422677.01001,57.4654764629586,97.3830777447165,22.4307621881437
1580422677.014,119.905394064241,102.510109102006,35.7976653696496
1580422677.01799,173.250934615091,99.0310521095598,51.4839398794534
1580422677.02199,218.234531166552,89.7535667963684,67.3533226520181
1580422677.02598,254.978255893797,77.7294575417718,81.1474784466318
1580422677.02997,281.589990081636,66.1936369878695,90.6691081101703
1580422677.03396,294.163424124513,56.1226825360491,94.3923094529641
1580422677.03796,286.472877088579,48.1269550621805,92.3170824750136
1580422677.04195,251.255054551003,44.5258258945601,85.5420767528803
1580422677.04594,179.53765163653,42.6947432669565,75.9594110017551
1580422677.04993,73.3348592355233,34.1496910048065,67.6585030899523
1580422677.05393,-27.6188296330204,24.9942778667887,64.301518272679
1580422677.05792,-88.4107728694589,27.6798657206073,63.8132295719847
1580422677.06192,-110.749980926223,37.9339284351872,62.592507820249
1580422677.06591,-106.111238269627,38.4832532234682,60.0900282291905
1580422677.0699,-84.1382467383839,24.6890974288547,57.7096208133057
1580422677.0739,-58.7472343022812,5.27962157625689,55.9395742732891
1580422677.07789,-39.459830624857,-10.4066529335469,54.0474555580986
1580422677.08188,-27.9240100709544,-13.519493400473,49.7138933394367
1580422677.08588,-19.6231021591516,-0.396734569314049,41.9012741283282
1580422677.08987,-10.955977721828,24.3839169909209,32.2575722896161
1580422677.09386,-2.34988937209118,48.5542076752877,22.6749065384909
1580422677.09786,3.44853894865332,58.9303425650414,14.8012512397954
1580422677.10185,5.40169375143046,51.4229037918667,8.75867856870377
1580422677.10584,5.21858548867021,32.5017166399632,4.97444113832307
1580422677.10986,6.80552376592664,10.8949416342411,3.32646677347975
1580422677.11386,10.8949416342411,-10.8339055466545,3.14335851071951
1580422677.11785,13.8857099259938,-32.0134279392691,4.36408026245522
1580422677.12184,11.3832303349354,-50.6294346532388,6.25619897764545
1580422677.12584,5.03547722590974,-63.2028686961166,5.21858548867021
1580422677.12983,-5.27962157625689,-68.5130083161669,-1.61745632104976
1580422677.13382,-16.2050812542916,-72.6634622720683,-13.6415655756466
1580422677.13782,-23.9566643778132,-66.193636987869,-27.5577935454337
1580422677.14181,-24.0177004654001,-37.8118562600139,-40.2532997634853
1580422677.1458,-11.6884107728695,6.43930724040592,-50.2021820401312
1580422677.1498,15.2895399404897,47.5165941863124,-53.6812390325781
1580422677.15379,55.4512855725948,72.5413900968952,-45.9296559090562
1580422677.15778,97.8103303578241,81.1474784466318,-21.1490043488211
1580422677.16178,124.238956282902,71.8699931334404,21.3931486991683
1580422677.16577,121.797512779431,52.0332646677348,71.6868848706799
1580422677.16977,86.7627985046161,35.3093766689553,113.374532692455
1580422677.17376,28.1071183337147,28.5343709468223,132.845044632639
1580422677.17775,-31.4641031509882,31.5251392385746,128.389410238804
1580422677.18175,-66.2546730754559,41.1078049897001,111.726558327611
1580422677.18574,-68.5130083161669,51.911192492561,96.0402838178074
1580422677.18973,-50.2632181277181,60.6393530174714,82.9785610742351
1580422677.19372,-27.4967574578468,74.0672922865647,73.0296787975894
1580422677.19771,-19.5620660715647,87.4952315556575,65.0949874113071
1580422677.20171,-30.5485618371861,85.1148241397727,58.1368734264133
1580422677.2057,-46.601052872511,69.2454413672085,52.2163729304948
1580422677.20969,-59.9069199664302,54.2915999084457,44.8310063324939
1580422677.21369,-74.3114366369116,44.4037537193865,34.8210879682611
1580422677.21768,-90.1808194094758,38.0560006103608,24.6890974288547
1580422677.22167,-101.899748226139,34.5159075303272,16.937514305333
1580422677.22567,-104.15808346685,33.2951857785915,11.6273746852826
1580422677.22966,-94.0871290150303,35.2483405813687,6.68345159075307
1580422677.23366,-72.7244983596552,41.9623102159151,-0.152590218966907
1580422677.23765,-43.3051041428246,53.6812390325777,-9.12489509422448
1580422677.24164,-11.0170138094147,67.719539177539,-19.4399938963911
1580422677.24564,20.904859998474,82.3682001983675,-29.6940566109711
1580422677.24963,51.7891203173876,97.1389333943694,-39.0936140993363
1580422677.25362,81.3916227969789,110.933089188983,-46.8451972228581
1580422677.25762,107.270923933776,122.041657129778,-52.1553368429084
1580422677.26161,123.994811932555,128.755626764324,-52.4605172808424
1580422677.2656,125.642786297398,129.488059815366,-46.7231250476846
1580422677.26962,110.017547875181,125.093461509117,-33.7224383916991
1580422677.27362,81.3916227969789,119.050888838025,-14.6181429770352
1580422677.27761,48.7983520256348,112.88624399176,6.74448767833974
1580422677.2816,21.210040436408,108.552681773098,24.6890974288547
1580422677.2856,2.65506981002522,107.515068284123,36.7132066834515
1580422677.28959,-7.90417334248878,108.552681773098,43.9765011062789
1580422677.29358,-14.6791790646218,110.017547875181,47.94384679942
1580422677.29758,-20.1724269474325,109.834439612421,50.202182040131
1580422677.30157,-25.7267109178301,107.515068284123,51.2397955291062
1580422677.30556,-30.5485618371861,104.402227817197,51.36186770428
1580422677.30956,-33.3562218661784,102.327000839246,51.36186770428
1580422677.31355,-32.6848249027239,102.937361715114,52.0332646677348
1580422677.31754,-27.6188296330204,106.172274357214,53.6812390325777
1580422677.32154,-18.8296330205233,111.665522240025,55.6343938353548
1580422677.32553,-8.02624551766235,118.501564049745,56.8551155870905
1580422677.32952,2.53299763485165,126.009002822919,57.0992599374376
1580422677.33352,11.7494468604561,133.39436942092,56.3057907988095
1580422677.33751,19.195849546044,139.803158617533,54.2305638208591
1580422677.34151,25.4215304798961,144.563973449302,51.3008316166934
1580422677.3455,30.7316700999465,147.615777828641,48.1879911497672
1580422677.34949,35.4924849317158,149.019607843137,45.075150682841
1580422677.35348,39.3377584496832,149.202716105898,42.1454184786753
1580422677.35747,41.7792019531546,147.981994354162,39.2156862745096
1580422677.36147,42.8168154421301,146.334019989319,35.9197375448232
1580422677.36546,42.7557793545432,144.930189974822,32.0134279392689
1580422677.36945,42.6337071793696,142.915999084459,27.0695048447394
1580422677.37345,43.3051041428243,141.329060807202,22.4917982757304
1580422677.37744,45.2582589456015,140.474555580987,17.7309834439611
1580422677.38143,48.4321355001143,139.375906004425,12.1766994735638
1580422677.38543,52.5215533684291,137.911039902342,8.27038986800949
1580422677.38942,57.5265125505452,137.544823376822,4.36408026245522
1580422677.39342,64.2404821850923,138.216220340276,-13.7636377508202
1580422677.39741,74.8607614251928,132.906080720226,-49.5307850766767
1580422677.4014,74.8607614251928,137.178606851301,-19.0737773708704
1580422677.4054,70.8934157320518,154.757000076295,-0.946059357595232
1580422677.40939,66.9871061264976,145.479514763103,4.18097199969475
1580422677.41338,63.752193484398,137.727931639582,8.5755703059433
1580422677.41738,60.2121004043638,140.413519493401,11.9935912108033
1580422677.42137,56.6109712367434,142.610818646525,14.2519264515145
1580422677.42536,52.7656977187762,143.587396047913,16.6933699549859
1580422677.42935,48.6762798504615,143.831540398261,18.5244525825894
1580422677.43334,45.1972228580146,143.709468223087,20.1113908598459
1580422677.43734,42.8778515297167,143.6484321355,21.5152208743418
1580422677.44133,41.9623102159151,144.319829098955,23.2852674143587
1580422677.44532,42.2064545662622,145.784695201038,24.6890974288547
1580422677.44932,42.7557793545432,146.639200427252,25.5436026550697
1580422677.45331,42.4505989166094,147.005416952773,26.2760357061111
1580422677.45731,40.8636606393529,146.8833447776,26.337071793698
1580422677.4613,37.6287479972532,146.089875638972,25.7877470054168
1580422677.46529,33.6614023041122,144.625009536889,24.6890974288547
1580422677.46929,29.4499122606239,142.977035172045,23.2242313267718
1580422677.47328,25.4215304798961,141.512169069963,21.5762569619287
1580422677.47727,21.6372930495154,140.535591668574,19.9893186846723
1580422677.48127,18.341344319829,140.04730296788,18.4634164950025
1580422677.48526,15.7167925535973,139.620050354772,17.4258030060273
1580422677.48925,14.3129625391011,139.559014267185,16.6933699549859
1580422677.49325,14.4350347142747,139.681086442359,16.5102616922254
1580422677.49724,15.8999008163576,139.497978179599,17.1816586556802
1580422677.50124,18.2192721446554,139.314869916838,18.1582360570687
1580422677.50523,20.1113908598459,138.887617303731,19.7451743343252
1580422677.50925,21.210040436408,138.155184252689,21.5762569619287
1580422677.51324,20.8438239108873,137.178606851301,23.4073395895323
1580422677.51723,19.7451743343252,135.774776836805,24.9942778667887
1580422677.52123,17.9751277943083,134.004730296788,26.0318913557639
1580422677.52522,15.5336842908368,132.112611581598,26.6422522316318
1580422677.52921,13.0922407873654,129.610131990539,26.337071793698
1580422677.53321,11.9325551232166,126.497291523614,25.2384222171358
1580422677.5372,12.6039520866711,122.896162355993,23.1021591515982
1580422677.54119,14.6181429770352,118.318455786984,20.1113908598459
1580422677.54519,16.2661173418783,112.520027466239,16.3881895170518
1580422677.54918,16.2661173418783,105.317769130999,12.359807736324
1580422677.55317,14.6791790646218,97.5051499198903,8.33142595559616
1580422677.55717,12.7260242618447,90.0587472343022,4.73029678797593
1580422677.56116,12.1156633859769,82.7954528114751,1.55642023346309
1580422677.56516,12.664988174258,75.6542305638209,-0.946059357595232
1580422677.56915,13.7636377508202,68.5130083161671,-2.65506981002522
1580422677.57314,15.4116121156633,61.61593041886,-3.57061112382689
1580422677.57714,18.4023804074159,55.6343938353548,-3.75371938658736
1580422677.58113,23.4073395895323,51.1787594415196,-3.26543068589308
1580422677.58512,30.3654535744258,48.0659189745934,-2.41092545967808
1580422677.58911,37.5677119096665,45.9906919966429,-1.43434805828952
1580422677.5931,45.075150682841,44.4647898069732,-0.51880674448762
1580422677.5971,52.2774090180819,42.511635004196,-0.091554131380235
1580422677.60109,58.9913786526281,39.7039749752039,0.396734569314049
1580422677.60508,64.6677347981995,36.1028458075837,0.640878919661191
1580422677.60908,68.5740444037538,31.0978866254673,0.762951094834762
1580422677.61307,70.8323796444652,24.9942778667887,1.0070954451819
1580422677.61707,71.6868848706799,18.0971999694818,1.0681315327688
1580422677.62106,72.5413900968952,10.7728694590676,0.946059357595232
1580422677.62505,73.3958953231099,3.32646677347975,0.274662394140478
1580422677.62905,74.189364461738,-3.38750286106665,-1.0070954451819
1580422677.63304,75.4100862134737,-8.94178683146401,-3.32646677347975
1580422677.63703,77.2411688410775,-13.9467460135804,-6.56137941557949
1580422677.64103,79.2553597314413,-18.8906691081102,-10.7728694590676
1580422677.64502,80.2319371328299,-23.8345922026397,-15.7167925535973
1580422677.64901,79.2553597314413,-29.1447318226901,-21.2710765239947
1580422677.65301,77.3022049286642,-34.7600518806746,-27.0695048447394
1580422677.657,75.4711223010609,-40.619516289006,-32.2575722896163
1580422677.66099,74.3114366369118,-47.5776302738996,-36.1028458075839
1580422677.66499,74.6776531624323,-57.0992599374381,-37.8728923476006
1580422677.66901,76.1425192645152,-70.2830548561838,-37.5677119096667
1580422677.673,75.6542305638209,-85.4810406652932,-36.346990157931
1580422677.67699,70.4661631189442,-100.617990386816,-35.492484931716
1580422677.68099,60.7614251926448,-113.618677042802,-35.4314488441291
1580422677.68498,47.5776302738993,-123.018234531167,-36.041809719997
1580422677.68897,32.2575722896161,-129.671168078126,-37.8118562600139
1580422677.69297,16.2050812542916,-135.10337987335,-41.1078049897003
1580422677.69696,0.213626306553806,-142.366674296178,-45.3192950331884
1580422677.70095,-16.3881895170518,-153.597314412146,-49.7749294270238
1580422677.70495,-32.1355001144427,-168.612191958495,-54.1695277332724
1580422677.70894,-44.586861982147,-183.932249942779,-58.4420538643474
1580422677.71293,-51.7891203173876,-196.993972686351,-63.0197604333562
1580422677.71693,-52.8877698939498,-206.637674525063,-68.3909361409933
1580422677.72092,-47.455558098726,-213.962005035477,-73.9452201113909
1580422677.72492,-36.7742427710384,-221.774624246586,-78.9501792935073
1580422677.72891,-24.0177004654001,-230.563820859083,-82.2461280231937
1580422677.7329,-12.6039520866711,-240.451667048142,-83.0395971618218
1580422677.7369,-3.69268329900046,-248.386358434424,-80.9643701838711
1580422677.74089,4.48615243762879,-252.414740215152,-75.8373388265811
1580422677.74488,14.1908903639276,-252.84199282826,-67.5974670023652
1580422677.74887,26.1539635309375,-251.071946288243,-56.3668268863967
1580422677.75286,41.1688410772867,-247.226672770275,-43.4271763179981
1580422677.75686,59.0524147402148,-242.221713588159,-29.9992370489051
1580422677.76085,75.2269779507137,-235.507743953613,-18.2803082322423
1580422677.76484,84.1382467383842,-226.535439078355,-9.55214770733187
1580422677.76884,83.5278858625165,-216.403448538949,-3.75371938658736
1580422677.77283,76.2035553521023,-208.529793240253,0.152590218966907
1580422677.77682,65.8274204623485,-203.707942320897,4.60822461280236
1580422677.78082,55.8785381857019,-202.609292744335,10.0404364080262
1580422677.78481,45.9906919966429,-203.46379797055,15.8388647287709
1580422677.78881,34.2107270923932,-203.097581445029,20.1724269474325
1580422677.7928,21.6983291371023,-202.121004043641,22.1255817502097
1580422677.79679,10.7118333714809,-202.121004043641,21.9424734874494
1580422677.80079,1.19020370794237,-204.135194934005,20.7827878233004
1580422677.80478,-9.12489509422448,-207.06492713817,19.501029983978
1580422677.80877,-22.3697261005568,-209.384298466468,18.341344319829
1580422677.81277,-38.1170366979477,-210.421911955444,17.1816586556802
1580422677.81676,-52.3994811932555,-208.346684977493,16.083009079118
1580422677.82075,-59.9679560540169,-203.830014496071,15.777828641184
1580422677.82475,-58.4420538643474,-198.51987487602,15.8999008163576
1580422677.82873,-48.8593881132219,-193.636987869078,16.3271534294652
1580422677.83273,-35.187304493782,-189.364461738003,16.8764782177461
1580422677.83672,-21.6983291371023,-186.312657358663,16.937514305333
1580422677.84072,-10.8949416342411,-184.48157473106,15.9609369039445
1580422677.84471,-4.24200808728165,-183.13878080415,14.3129625391011
1580422677.8487,-1.43434805828952,-181.307698176547,11.9935912108033
1580422677.8527,-0.946059357595232,-178.866254673075,9.12489509422448
1580422677.85669,-0.885023270008332,-176.30273899443,5.7068741893645
1580422677.86068,-0.335698481727377,-173.311970702678,2.22781719691761
1580422677.86468,1.67849240863666,-169.954985885405,-1.31227588311594
1580422677.86867,4.66926070038903,-166.536964980545,-4.30304417486832
1580422677.87266,7.17174029144735,-162.691691462577,-6.62241550316617
1580422677.87666,9.00282291905091,-158.907454032197,-8.51453421835663
1580422677.88065,10.0404364080262,-155.733577477684,-9.85732814526591
1580422677.88464,11.6273746852826,-153.170061799039,-10.5897611963073
1580422677.88864,14.1298542763409,-151.400015259022,-10.5287251087204
1580422677.89263,17.6699473563745,-150.48447394522,-9.91836423285258
1580422677.89663,21.8204013122759,-149.996185244526,-9.24696726939806
1580422677.90062,25.9098191805904,-149.141680018311,-8.5755703059433
1580422677.90461,29.6940566109711,-147.615777828641,-8.33142595559616
1580422677.90863,32.4406805523765,-146.089875638972,-8.27038986800949
1580422677.91262,34.2717631799801,-144.625009536889,-8.08728160524902
1580422677.91662,34.6379797055008,-143.221179522393,-7.7821011673152
1580422677.92061,32.6848249027237,-141.268024719615,-7.59899290455473
1580422677.9246,28.046082246128,-138.643472953384,-7.41588464179449
1580422677.9286,20.904859998474,-135.591668574044,-7.29381246662092
1580422677.93259,11.9325551232166,-132.417792019532,-6.80552376592664
1580422677.93658,1.25123979552905,-128.572518501564,-6.13412680247188
1580422677.94058,-10.4676890211338,-123.628595407034,-5.21858548867021
1580422677.94457,-23.468375677119,-117.280842298009,-4.11993591210808
1580422677.94857,-37.3235675593196,-109.4682230869,-2.65506981002522
1580422677.95256,-52.7656977187762,-100.74006256199,-1.31227588311594
1580422677.95655,-69.7947661554895,-91.4015411612115,-0.0305180437933359
1580422677.96055,-89.0211337453268,-81.9409475852597,1.55642023346309
1580422677.96454,-110.872053101396,-72.6634622720683,3.44853894865332
1580422677.96853,-135.28648813611,-64.4235904478523,5.40169375143046
1580422677.97253,-162.996871900511,-57.0382238498512,6.98863202868688
1580422677.97652,-193.39284351873,-50.4463263904784,8.27038986800949
1580422677.98051,-227.450980392157,-44.2816815442131,9.4911116197452
1580422677.98451,-265.476462958724,-37.3846036469063,10.7118333714809
1580422677.98849,-309.361409933623,-30.4875257495994,11.4442664225223
1580422677.99249,-358.80064087892,-25.6656748302432,9.4300755321583
1580422677.99648,-409.704737926299,-25.1773861295489,4.7913328755626
1580422678.00047,-448.401617456321,-27.6798657206073,3.75371938658736
1580422678.00447,-456.824597543297,-25.6656748302432,8.94178683146401
1580422678.00846,-424.841687647822,-10.2235446707866,15.4726482032502
1580422678.01246,-360.50965133135,16.2661173418783,20.4776073853666
1580422678.01645,-279.758907454032,46.2958724345767,23.4073395895323
1580422678.02044,-192.294193942168,72.9076066224156,24.3839169909209
1580422678.02444,-103.059433890288,92.6832990005341,24.6890974288547
1580422678.02843,-18.0361638818952,106.355382619974,26.6422522316318
1580422678.03242,58.9303425650414,114.59525444419,30.8537422751201
1580422678.03642,125.825894560159,113.923857480735,37.5066758220796
1580422678.04041,182.711528191043,104.768444342718,46.1127641718165
1580422678.0444,230.380712596323,90.6691081101703,56.3057907988095
1580422678.0484,268.955519951171,75.0438696879532,66.2546730754561
1580422678.05239,297.215228503853,59.0524147402148,73.5790035858704
1580422678.05638,310.399023422598,43.9765011062789,76.264591439689
1580422678.06038,301.609826810101,32.3796444647896,74.555580987259
1580422678.06437,263.035019455253,35.6145571068894,70.0999465934237
1580422678.06839,183.13878080415,55.3902494850076,62.6535439078357
1580422678.07238,63.0807965209433,68.1467917906466,56.3057907988095
1580422678.07638,-49.8359655146105,67.4753948271918,56.0616464484624
1580422678.08037,-112.581063553826,68.1467917906466,60.3341725795376
1580422678.08436,-128.816662851911,70.2830548561838,62.7145799954224
1580422678.08836,-114.473182269017,54.77988860914,62.2873273823147
1580422678.09235,-87.1290150301365,22.7969787136644,59.90691996643
1580422678.09634,-63.6911573968109,-9.97940032043948,55.8175020981153
1580422678.10034,-50.6904707408255,-31.0978866254673,50.8125429159991
1580422678.10433,-44.0985732814527,-35.492484931716,44.5868619821467
1580422678.10833,-37.201495384146,-25.4215304798961,37.7508201724268
1580422678.11232,-27.3136491950866,-9.67421988250544,31.4030670634011
1580422678.11631,-15.9609369039445,3.99786373693451,25.4215304798961
1580422678.1203,-3.69268329900046,8.27038986800949,19.501029983978
1580422678.1243,10.2845807583733,1.12916762035547,13.5805294880597
1580422678.12829,25.1773861295489,-12.664988174258,8.08728160524902
1580422678.13229,38.7273975738153,-25.2994583047225,2.22781719691761
1580422678.13628,50.4463263904781,-32.6848249027239,-4.18097199969475
1580422678.14027,60.2121004043638,-36.1638818951706,-10.4676890211338
1580422678.14427,69.062333104448,-40.9246967269398,-15.1674677653161
1580422678.14825,79.4384679942018,-47.5165941863127,-16.4492256046387
1580422678.15225,88.5328450446327,-51.728084229801,-13.8246738384069
1580422678.15624,94.2092011902037,-51.3008316166934,-9.85732814526591
1580422678.16023,93.5378042267494,-40.1922636758984,-7.66002899214163
1580422678.16423,87.0679789425499,-22.613870450904,-8.02624551766235
1580422678.16822,79.6826123445489,5.82894636453807,-9.30800335698473
1580422678.17221,77.3022049286642,46.1127641718165,-8.08728160524902
1580422678.17621,90.3028915846494,89.1432059205008,-1.9226367589838
1580422678.1802,122.407873655299,121.187151903563,10.4676890211338
1580422678.1842,163.607232776379,132.967116807813,33.4172579537651
1580422678.18819,190.524147402152,124.177920195315,70.0999465934237
1580422678.19218,174.77683680476,98.6037994964522,114.778362706951
1580422678.19618,105.073624780652,65.2780956740676,153.90249485008
1580422678.20017,4.42511635004189,37.2625314717325,168.978408484016
1580422678.20416,-85.0537880521858,27.3136491950866,149.446860456245
1580422678.20816,-138.643472953384,26.5201800564582,113.252460517281
1580422678.21215,-164.278629739834,32.5017166399632,75.8373388265813
1580422678.21614,-178.01174944686,57.8316929884791,53.4370946822305
1580422678.22014,-192.172121766995,61.4938582436862,43.5492484931715
1580422678.22413,-200.473029678798,37.0183871213853,35.3704127565422
1580422678.22812,-200.961318379492,19.9282825970854,23.1021591515982
1580422678.23211,-195.468070496681,19.1348134584573,8.45349813076973
1580422678.23611,-194.186312657359,21.6983291371023,-5.21858548867021
1580422678.2401,-201.510643167773,22.1255817502097,-16.083009079118
1580422678.24409,-211.398489356832,21.8204013122759,-24.322880903334
1580422678.24809,-215.304798962386,23.2852674143587,-30.9758144502937
1580422678.25208,-206.210421911955,27.4967574578468,-36.7132066834517
1580422678.25607,-180.025940337224,31.5251392385746,-41.4129854276341
1580422678.26007,-136.324101625086,33.9665827420461,-44.4647898069734
1580422678.26406,-79.1943236438544,35.3704127565422,-45.0751506828412
1580422678.26805,-16.937514305333,38.7884336614022,-42.2674906538491
1580422678.27205,38.7273975738153,47.2724498359653,-36.4080262455177
1580422678.27604,77.1801327534909,62.4093995574881,-29.5719844357975
1580422678.28003,96.1623559929808,83.1006332494089,-22.7969787136644
1580422678.28403,103.303578240635,106.111238269627,-16.2661173418783
1580422678.28802,109.040970473793,127.534905012589,-9.06385900663759
1580422678.29201,118.562600137331,143.46532387274,0.396734569314049
1580422678.29601,126.497291523614,147.493705653468,13.8857099259938
1580422678.3,122.102693217365,137.544823376822,33.2951857785915
1580422678.30399,100.984206912337,120.943007553216,56.6109712367434
1580422678.30801,69.6116578927295,106.233310444801,74.9217975127794
1580422678.31201,40.3143358510717,99.2141603723203,82.2461280231937
1580422678.316,20.7827878233004,99.8245212481879,80.9033340962847
1580422678.31999,8.27038986800949,103.730830853742,75.8373388265813
1580422678.32399,1.9226367589838,106.355382619974,69.9778744182499
1580422678.32798,1.0070954451819,106.416418707561,63.9353017471581
1580422678.33197,2.7161058976119,104.768444342718,57.9537651636529
1580422678.33597,6.92759594110021,103.608758678569,52.3384451056686
1580422678.33996,14.373998626688,105.073624780652,48.1879911497672
1580422678.34396,24.6890974288547,109.346150911726,45.8686198214693
1580422678.34795,36.2249179827572,115.754940108339,44.6478980697336
1580422678.35194,46.9062333104446,123.445487144274,43.9765011062789
1580422678.35594,56.3668268863962,131.990539406424,43.1830319676508
1580422678.35993,64.9729152361338,139.864194705119,41.5960936903944
1580422678.36392,73.8231479362175,146.334019989319,39.4598306248567
1580422678.36792,82.6733806363013,151.461051346609,36.530098420691
1580422678.37191,90.6080720225837,154.634927901122,33.1120775158311
1580422678.3759,96.2844281681546,156.282902265965,29.8771648737315
1580422678.3799,98.9700160219732,156.893263141832,26.8863965819789
1580422678.38389,98.9700160219732,157.076371404593,24.5059891660944
1580422678.38788,96.7116807812622,156.588082703899,22.6749065384909
1580422678.39187,92.0729381246665,155.855649652857,20.7827878233004
1580422678.39586,85.4200045777065,155.184252689402,19.1348134584573
1580422678.39986,78.1567101548794,152.742809185931,17.1816586556802
1580422678.40385,71.137560082399,149.935149156939,15.4726482032502
1580422678.40785,64.7898069733733,148.287174792096,14.0077821011673
1580422678.41184,59.7238117036695,147.676813916228,11.9325551232166
1580422678.41583,57.648584725719,147.371633478294,-1.0070954451819
1580422678.41983,60.5783169298847,144.502937361715,-34.3938353551539
1580422678.42382,59.6627756160829,143.709468223087,-26.0929274433508
1580422678.42781,51.0566872663462,167.025253681239,1.25123979552905
1580422678.43181,46.2348363469901,163.851377126726,7.90417334248878
1580422678.4358,41.7181658655679,154.146639200427,11.4442664225223
1580422678.43979,38.1780727855344,155.489433127336,12.2987716487373
1580422678.44379,34.9431601434346,160.006103608759,12.8480964370183
1580422678.44778,31.8913557640954,163.241016250858,13.3363851377126
1580422678.45177,27.9850461585411,165.133134966049,13.0922407873654
1580422678.45577,22.8580148012511,166.536964980545,13.4584573128861
1580422678.45976,16.1440451667047,168.245975432975,13.8857099259938
1580422678.46375,8.81971465629044,168.734264133669,14.068818188754
1580422678.46777,1.73952849622333,168.245975432975,14.068818188754
1580422678.47177,-4.30304417486832,167.269398031586,13.7636377508202
1580422678.47576,-9.24696726939806,165.438315403982,13.1532768749523
1580422678.47975,-13.3974212252995,162.26443884947,12.359807736324
1580422678.48375,-16.9985503929197,158.480201419089,11.4442664225223
1580422678.48774,-19.4399938963911,154.757000076295,10.7728694590676
1580422678.49173,-20.355535210193,151.766231784542,10.4676890211338
1580422678.49573,-19.6841382467383,149.385824368658,10.3456168459602
1580422678.49972,-17.8530556191347,147.859922178988,10.955977721828
1580422678.50372,-15.5336842908368,147.371633478294,11.810482948043
1580422678.50771,-13.6415655756466,147.371633478294,13.3974212252995
1580422678.5117,-12.7260242618447,147.493705653468,15.1674677653161
1580422678.51569,-12.6039520866711,147.676813916228,17.1206225680933
1580422678.51969,-12.4818799114976,147.554741741054,19.1348134584573
1580422678.52368,-12.1766994735638,146.822308690013,21.0879682612344
1580422678.52768,-11.505302510109,144.808117799649,23.1021591515982
1580422678.53167,-10.7118333714809,142.000457770657,25.0553139543754
1580422678.53566,-10.2845807583733,138.765545128557,26.9474326695658
1580422678.53966,-9.97940032043948,134.981307698176,28.2291905088882
1580422678.54365,-9.4911116197452,130.647745479515,29.2057679102768
1580422678.54764,-8.39246204318306,125.703822384985,29.6940566109711
1580422678.55163,-5.95101853971164,120.576791027695,29.4499122606239
1580422678.55562,-1.55642023346309,115.083543144885,28.6564431219958
1580422678.55962,5.52376592660403,109.895475700008,27.1305409323261
1580422678.56361,15.1674677653161,105.683985656519,25.1163500419623
1580422678.56761,27.8019378957808,101.106279087511,22.6749065384909
1580422678.5716,42.1454184786753,96.0402838178074,19.9282825970854
1580422678.57559,56.3057907988095,90.5470359349965,16.7544060425726
1580422678.57959,68.0247196154728,84.7486076142523,13.3363851377126
1580422678.58358,76.264591439689,78.9501792935075,9.55214770733187
1580422678.58757,81.025406271458,73.4569314106966,5.46272983901736
1580422678.59157,82.734416723888,68.0857557030595,1.49538414587619
1580422678.59556,81.9409475852599,63.2028686961166,-2.22781719691761
1580422678.59955,79.5605401693751,58.6251621271076,-5.46272983901736
1580422678.60355,77.1801327534909,54.1695277332719,-7.96520943007545
1580422678.60754,75.4100862134737,50.5683985656519,-9.24696726939806
1580422678.61153,72.9686427100023,46.4179446097503,-9.67421988250544
1580422678.61553,69.1844052796218,39.8870832379644,-8.88075074387734
1580422678.61952,63.8132295719847,33.2951857785915,-7.29381246662092
1580422678.62351,59.357595178149,28.1681544213016,-5.52376592660403
1580422678.62753,58.9913786526281,23.9566643778132,-3.87579156176093
1580422678.63153,62.4704356450748,20.4776073853666,-2.83817807278547
1580422678.63552,66.6208896009766,17.4258030060273,-1.8616006713969
1580422678.63951,68.0247196154728,14.2519264515145,-1.12916762035547
1580422678.64351,66.2546730754561,9.97940032043948,-1.19020370794237
1580422678.6475,61.61593041886,4.48615243762879,-1.8616006713969
1580422678.65149,54.7188525215533,-2.16678110933094,-3.32646677347975
1580422678.65549,47.089341573205,-9.36903944457163,-5.27962157625689
1580422678.65948,40.4364080262453,-16.2661173418783,-7.90417334248878
1580422678.66347,36.2859540703439,-22.2476539253832,-10.8339055466545
1580422678.66747,34.882124055848,-27.9850461585411,-14.0077821011673
1580422678.67146,35.9197375448232,-33.8445105668727,-17.3037308308537
1580422678.67545,38.3611810482946,-40.619516289006,-20.2944991226061
1580422678.67945,40.6195162890058,-48.9814602883955,-22.7359426260775
1580422678.68344,42.4505989166094,-59.1134508278019,-24.322880903334
1580422678.68743,43.6102845807582,-69.916838330663,-24.628061341268
1580422678.69143,43.6713206683451,-81.5136949721523,-23.2242313267718
1580422678.69542,41.4129854276339,-95.1247425040056,-20.9658960860609
1580422678.69942,36.7132066834515,-109.65133134966,-17.8530556191347
1580422678.70341,30.2433813992523,-124.788281071183,-14.6181429770352
1580422678.7074,22.4307621881437,-139.986266880293,-11.8715190356297
1580422678.71139,14.068818188754,-154.573891813535,-10.7118333714809
1580422678.71538,3.81475547417404,-169.28358892195,-12.2987716487373
1580422678.71938,-9.67421988250544,-185.641260395209,-17.792019531548
1580422678.72337,-26.5201800564582,-201.388570992599,-27.4967574578468
1580422678.72737,-41.2909132524605,-211.093308918898,-40.8026245517663
1580422678.73136,-47.1503776607919,-215.548943312734,-56.3668268863967
1580422678.73535,-43.1219958800641,-219.394216830701,-71.8699931334402
1580422678.73934,-31.0368505378804,-223.483634699016,-85.6641489280537
1580422678.74334,-13.4584573128861,-227.695124742504,-97.4441138323034
1580422678.74733,6.62241550316617,-232.028686961166,-106.538490882735
1580422678.75133,30.8537422751201,-238.559548332952,-111.726558327611
1580422678.75532,64.9118791485466,-246.066987106127,-112.275883115892
1580422678.75931,108.369573510338,-251.804379339284,-107.75921263447
1580422678.76331,153.71938658732,-251.926451514458,-96.711680781262
1580422678.7673,188.570992599375,-246.494239719234,-79.2553597314411
1580422678.77129,201.937895780881,-238.925764858473,-56.7330434119174
1580422678.77529,187.655451285573,-231.845578698405,-33.6614023041125
1580422678.77928,147.554741741054,-226.962691691463,-15.1064316777295
1580422678.78327,95.1247425040056,-228.000305180438,-2.89921416037237
1580422678.78726,46.1127641718165,-232.761120012207,3.87579156176093
1580422678.79125,9.73525597009234,-235.324635690852,6.01205462729831
1580422678.79525,-13.2753490501259,-234.592202639811,5.95101853971164
1580422678.79924,-26.0929274433508,-233.859769588769,6.98863202868688
1580422678.80324,-32.623788815137,-234.592202639811,10.1625085831997
1580422678.80723,-36.7132066834517,-237.46089875639,15.0453955901426
1580422678.81122,-41.6571297779813,-240.268558785382,19.5620660715647
1580422678.81522,-50.3242542153048,-240.024414435035,21.8204013122759
1580422678.81921,-61.066605630579,-235.93499656672,19.6841382467383
1580422678.8232,-69.7337300679026,-229.343099107347,13.8857099259938
1580422678.8272,-73.1517509727626,-221.652552071412,7.47692072938116
1580422678.83119,-69.611657892729,-214.999618524452,3.14335851071951
1580422678.83518,-60.212100404364,-210.849164568551,1.80056458381023
1580422678.83918,-46.7231250476846,-208.224612802319,3.20439459830618
1580422678.84317,-32.4406805523768,-205.050736247807,6.62241550316617
1580422678.84716,-20.050354772259,-200.656137941558,10.4066529335469
1580422678.85116,-11.2611581597619,-195.834287022202,13.7636377508202
1580422678.85515,-6.74448767833974,-191.6838330663,15.7167925535973
1580422678.85914,-6.01205462729831,-188.937209124895,15.6557564660104
1580422678.86314,-6.98863202868688,-187.472343022812,14.1298542763409
1580422678.86716,-7.7821011673152,-187.045090409705,11.6884107728695
1580422678.87115,-6.25619897764545,-186.55680170901,8.33142595559616
1580422678.87514,-1.49538414587619,-185.702296482795,4.7913328755626
1580422678.87914,5.52376592660403,-184.115358205539,1.31227588311594
1580422678.88313,13.8246738384069,-181.795986877241,-1.73952849622333
1580422678.88712,21.6372930495154,-178.988326848249,-4.30304417486832
1580422678.89112,27.9850461585411,-175.814450293736,-6.37827115281902
1580422678.89511,33.3562218661782,-172.51850156405,-8.20935378042259
1580422678.8991,37.6897840848401,-169.28358892195,-9.61318379491877
1580422678.9031,41.9012741283282,-166.353856717785,-10.7118333714809
1580422678.90709,45.9906919966429,-163.79034103914,-11.3832303349354
1580422678.91108,49.7138933394367,-161.348897535668,-12.4208438239109
1580422678.91508,52.3384451056686,-159.02952620737,-13.519493400473
1580422678.91907,53.2539864194705,-156.588082703899,-14.8622873273823
1580422678.92307,52.6436255436024,-153.597314412146,-16.5712977798123
1580422678.92706,50.0801098649576,-150.179293507286,-18.4634164950025
1580422678.93105,46.4789806973372,-146.517128252079,-20.4776073853666
1580422678.93505,42.1454184786753,-142.549782558938,-22.613870450904
1580422678.93904,37.8118562600137,-138.33829251545,-24.9332417792018
1580422678.94303,33.6003662165253,-133.516441596094,-27.0084687571525
1580422678.94702,29.6330205233844,-128.511482413977,-28.900587472343
1580422678.95101,25.2994583047225,-123.750667582208,-30.3044174868389
1580422678.95501,20.1724269474325,-118.19638361181,-31.2809948882277
1580422678.959,13.8246738384069,-111.909666590372,-32.0134279392691
1580422678.96299,4.97444113832307,-105.073624780652,-32.8068970778975
1580422678.96699,-7.41588464179449,-98.4817273212789,-33.7224383916991
1580422678.97098,-23.6514839398794,-93.1715877012282,-34.8210879682613
1580422678.97498,-43.4271763179981,-89.6925307087815,-35.6145571068896
1580422678.97897,-66.6208896009766,-87.5562676432439,-35.8587014572367
1580422678.98296,-92.5001907377737,-86.5796902418554,-35.3704127565425
1580422678.98696,-120.393682764935,-86.3355458915082,-34.2717631799803
1580422678.99095,-149.935149156939,-85.3589684901197,-32.6848249027239
1580422678.99494,-181.551842526894,-81.3916227969787,-30.4875257495994
1580422678.99894,-217.685206378271,-74.0672922865645,-27.7409018081939
1580422679.00293,-263.340199893187,-63.6911573968109,-24.7501335164416
1580422679.00692,-322.606240939956,-53.3760585946441,-24.628061341268
1580422679.01092,-392.614633401999,-47.0283054856184,-29.0836957351032
1580422679.01491,-458.960860608835,-44.7089341573205,-32.4406805523768
1580422679.0189,-495.094224460212,-40.0701915007248,-28.900587472343
1580422679.0229,-478.736552986954,-20.7217517357137,-21.759365224689
1580422679.02695,-413.244831006333,15.9609369039445,-14.9843595025559
1580422679.03094,-308.812085145342,59.4796673533224,-9.55214770733187
1580422679.03493,-177.401388570993,99.275196459907,-2.96025024795904
1580422679.03893,-37.6897840848403,127.962157625696,8.33142595559616
1580422679.04292,90.4249637598232,140.596627756161,24.8722056916151
1580422679.04691,193.270771343557,135.530632486458,45.6244754711222
1580422679.05091,266.330968184939,114.656290531777,69.4895857175557
1580422679.0549,314.122224765393,83.2837415121694,94.6974898908979
1580422679.05889,343.541618982224,45.9906919966429,117.280842298009
1580422679.06289,357.946135652705,8.88075074387734,133.150225070573
1580422679.06688,349.156939040208,-10.1625085831997,139.253833829252
1580422679.07087,304.783703364614,9.18593118181116,134.615091172656
1580422679.07487,233.981841763943,49.1645685511558,118.928816662852
1580422679.07886,140.413519493401,74.7997253376061,102.937361715114
1580422679.08286,33.6614023041122,87.678339818418,100.190737773709
1580422679.08685,-45.1972228580148,97.1389333943694,106.660563057908
1580422679.09084,-82.3682001983673,101.960784313726,112.458991378653
1580422679.09484,-84.0161745632104,101.777676050965,116.060120546273
1580422679.09883,-59.5407034409095,96.4675364309151,119.661249713894
1580422679.10282,-32.5017166399634,82.6123445487146,124.910353246357
1580422679.10681,-20.4165712977797,63.2028686961166,129.060807202258
1580422679.11081,-23.5904478522925,48.7983520256348,126.924544136721
1580422679.1148,-32.928969253071,47.8217746242465,114.534218356604
1580422679.11879,-39.8870832379646,59.1744869153886,93.1105516136417
1580422679.12278,-41.7792019531548,72.9686427100023,68.5130083161671
1580422679.12678,-40.6805523765927,72.9686427100023,45.0141145952543
1580422679.13077,-37.5677119096667,49.9580376897839,24.2618448157473
1580422679.13477,-27.6798657206073,9.06385900663759,8.20935378042259
1580422679.13876,-11.810482948043,-34.4548714427406,-2.22781719691761
1580422679.14275,0.579842832074519,-65.8274204623483,-8.39246204318306
1580422679.14675,1.31227588311594,-86.2134737163346,-13.0312046997788
1580422679.15074,-16.2661173418783,-99.2141603723203,-19.3179217212175
1580422679.15473,-47.5776302738996,-101.106279087511,-30.3044174868389
1580422679.15873,-78.5839627679866,-86.8848706797894,-45.1972228580148
1580422679.16272,-98.9089799343863,-56.9161516746776,-60.212100404364
1580422679.16671,-100.679026474403,-13.8246738384069,-72.6024261844816
1580422679.17071,-74.4335088120852,34.4548714427403,-82.0630197604332
1580422679.1747,-11.0170138094147,73.0907148851761,-86.6407263294423
1580422679.17869,81.025406271458,93.3546959639889,-79.8046845197223
1580422679.18269,164.461738002594,92.1339742122532,-51.5449759670405
1580422679.18668,199.86266880293,69.062333104448,1.9226367589838
