Timestamp_seconds,Accel_X_g,Accel_Y_g,Accel_Z_g
1580422672.26162,-0.844007019150073,0.446540016784922,0.228763256275272
1580422672.29371,-0.883070115205616,0.443121995880063,0.245365072098878
1580422672.3258,-0.902113374532693,0.447028305485617,0.25708400091554
1580422672.35789,-0.874280918593119,0.427496757457845,0.281986724650949
1580422672.38998,-0.880628671702144,0.389410238803691,0.254154268711375
1580422672.42208,-0.89039444571603,0.382085908293277,0.233646143282215
1580422672.45417,-0.897718776226444,0.39038681620508,0.27075608453498
1580422672.48626,-0.885023270008393,0.403570611123826,0.254642557412069
1580422672.51835,-0.889906157015336,0.395757991912717,0.242923628595406
1580422672.55044,-0.885511558709087,0.405035477225908,0.245365072098878
1580422672.58253,-0.885511558709087,0.410406652933546,0.274662394140535
1580422672.61462,-0.883070115205616,0.408453498130768,0.258060578316929
1580422672.64672,-0.900160219729916,0.3972228580148,0.280033569848172
1580422672.67881,-0.886488136110476,0.397711146715494,0.276615548943312
1580422672.7109,-0.884046692607004,0.380621042191194,0.29126420996414
1580422672.74299,-0.895277332722973,0.384527351796748,0.293705653467612
1580422672.77508,-0.882093537804227,0.379644464789806,0.329839017318989
1580422672.80717,-0.866956588082704,0.383062485694666,0.353765163653009
1580422672.83927,-0.847425040054933,0.357671473258563,0.348393987945371
1580422672.87136,-0.864026855878539,0.354741741054397,0.379156176089111
1580422672.90345,-0.864026855878539,0.367925535973143,0.339604791332874
1580422672.93554,-0.871351186388953,0.388921950102997,0.32544441901274
1580422672.96763,-0.877698939497979,0.385992217898831,0.346929121843289
1580422672.99972,-0.865491721980622,0.378179598687723,0.355718318455786
1580422673.03182,-0.85621423666743,0.371831845578697,0.371343556878003
1580422673.06381,-0.850843060959793,0.373785000381474,0.375249866483557
1580422673.0959,-0.858655680170902,0.364995803768977,0.34253452353704
1580422673.128,-0.896742198825056,0.346440833142594,0.378667887388417
1580422673.16009,-0.862561989776456,0.341069657434957,0.323979552910657
1580422673.19218,-0.86646829938201,0.353765163653009,0.307377737087052
1580422673.22427,-0.884534981307699,0.36987869077592,0.307377737087052
1580422673.25636,-0.878187228198673,0.389898527504386,0.28101014724956
1580422673.28845,-0.872327763790341,0.3972228580148,0.260013733119706
1580422673.32054,-0.888929579613947,0.420172426947431,0.269779507133592
1580422673.35264,-0.889906157015336,0.42456702525368,0.224856946669718
1580422673.38473,-0.858655680170902,0.439215686274508,0.212649729152361
1580422673.41682,-0.827405203326467,0.432379644464788,0.164309147783626
1580422673.44891,-0.872327763790341,0.464118410009917,0.159426260776684
1580422673.481,-0.881116960402839,0.457282368200197,0.216067750057221
1580422673.51309,-0.799572747386893,0.446540016784922,0.203372243839169
1580422673.54519,-0.865003433279927,0.438727397573814,0.139406424048218
1580422673.57728,-0.964614328221561,0.411383230334934,0.177981231403066
1580422673.60937,-0.912367437247273,0.395269703212023,0.165774013885709
1580422673.64146,-0.88697642481117,0.426031891355763,0.140871290150301
1580422673.67355,-0.982192721446555,0.543221179522394,0.178957808804455
1580422673.70564,-0.884046692607004,0.574471656366828,0.109620813305867
1580422673.73774,-0.837170977340353,0.547127489127949,0.0417486839093613
1580422673.76983,-0.839612420843824,0.486091401541159,0.0813000686655982
1580422673.80192,-0.886488136110476,0.449958037689782,0.152101930266269
1580422673.83401,-0.898695353627833,0.448004882887005,0.100343327992675
1580422673.8661,-0.869398031586176,0.431891355764094,0.123292896925307
1580422673.89819,-0.895765621423667,0.435797665369648,0.119874876020447
1580422673.93029,-0.884046692607004,0.463141832608528,0.126222629129472
1580422673.96238,-0.87672236209659,0.502693217364769,0.133058670939192
1580422673.99447,-0.850354772259099,0.545662623025866,0.0656748302433812
1580422674.02656,-0.869398031586176,0.55640497444114,-0.00512703135728998
1580422674.05865,-0.919691767757687,0.552498664835586,0.0285648889906156
1580422674.09074,-0.885511558709087,0.480231937132828,0.116456855115587
1580422674.12283,-0.90406652933547,0.460212100404362,0.0881361104753182
1580422674.15493,-0.902113374532693,0.486579690241854,0.0305180437933927
1580422674.18702,-0.86305027847715,0.51880674448768,0.0700694285496297
1580422674.21911,-0.864515144579233,0.481696803234911,0.0861829556725411
1580422674.2512,-0.924086366063936,0.519295033188374,0.0397955291065841
1580422674.28329,-0.987075608453498,0.618417639429314,-0.0666514076447697
1580422674.31538,-0.855725947966736,0.614999618524454,-0.235599298084992
1580422674.34738,-0.901625085831999,0.428961623559928,-0.206790264744029
1580422674.37947,-1.02320897230488,0.304448004882886,-0.51783016708629
1580422674.41156,-1.10084687571527,0.26392004272526,-0.354741741054399
1580422674.44366,-1.05201800564584,0.401129167620354,-0.173586633096818
1580422674.47575,-1.00660715648127,0.478767071030745,-0.0925307087815668
1580422674.50784,-0.977798123140307,0.302983138780803,0.228274967574578
1580422674.53993,-0.626230258640421,0.517830167086291,-0.285404745555811
1580422674.57202,-0.613534752422369,0.478278782330051,-0.383062485694667
1580422674.60411,-0.498298619058518,0.47583733882658,-0.542732890821698
1580422674.6362,-0.379156176089113,0.728282597085528,-0.354253452353705
1580422674.66829,-0.529060807202258,0.585214007782103,-0.50074006256199
1580422674.70038,-0.683360036621652,0.727794308384833,-0.519783321889067
1580422674.73248,-0.546150911726558,0.704356450751508,-0.481208514534218
1580422674.76457,-0.455817502098116,0.83912413214313,-0.640390630960555
1580422674.79666,-0.460212100404364,0.80836194399939,-0.404547188525216
1580422674.82875,-0.631113145647364,0.500740062561992,-0.296147096971085
1580422674.86084,-0.837659266041047,0.332768749523154,-0.381597619592585
1580422674.89293,-1.18971541924163,0.285893034256503,-0.645273517967498
1580422674.92502,-1.3542687113756,0.127199206530861,-0.306401159685665
1580422674.95711,-1.0300450141146,0.452399481193254,-0.286869611657893
1580422674.9892,-0.615487907225146,0.945571068894484,-0.530037384603647
1580422675.02129,-0.649179827573052,0.544686045624477,-0.566659037155718
1580422675.05339,-1.08766308079652,0.209231708247501,-0.543709468223087
1580422675.08548,-0.927016098268101,0.182375829709315,-0.100343327992675
1580422675.11757,-0.654062714579995,0.289799343862057,-0.139406424048218
1580422675.14966,-1.09401083390555,-0.161867704280155,-0.0993667505912867
1580422675.18175,-1.03297474631876,0.456305790798808,-0.591073472190432
1580422675.21384,-0.518318455786984,1.9612115663386,-1.35719844357977
1580422675.24593,-1.37672999160754,-0.171633478294041,0.335210193026626
1580422675.27802,-1.02174410620279,-0.324467841611353,-0.270756084534982
1580422675.31011,-1.27321278706035,0.562752727550166,-0.0803234912642097
1580422675.34221,-0.844007019150073,-0.0383306630045013,-0.43237964446479
1580422675.3743,-1.01393148699168,0.309330891889829,-0.116456855115587
1580422675.40639,-0.998794537270161,0.145265888456549,-0.190676737621118
1580422675.43848,-0.966567483024338,-0.0764171816586554,-0.496833752956436
1580422675.47057,-1.03541618982223,0.175051499198901,-0.379156176089113
1580422675.50266,-0.940688181887541,0.28101014724956,-0.441168841077287
1580422675.53475,-0.67750057221332,0.30835431448844,-0.278080415045396
1580422675.56684,-0.713633936064697,0.504158083466852,-0.850354772259099
1580422675.59894,-0.799572747386893,0.487556267643242,-0.90406652933547
1580422675.63104,-0.885511558709087,0.842053864347296,-0.871839475089647
1580422675.66313,-0.840588998245213,0.903578240634776,-0.760509651331351
1580422675.69522,-0.741954680704966,0.6110933089189,-0.445075150682841
1580422675.72732,-1.9524223697261,0.32544441901274,-0.403082322423133
1580422675.75941,-2.21512169069963,-0.0510261692225527,-0.354741741054399
1580422675.7915,-1.82644388494698,-0.0173342488746471,-0.0456549935149155
1580422675.82359,-1.48708323796445,0.661875333791105,0.107179369802395
1580422675.85568,-0.964126039520867,0.47925535973144,0.498298619058517
1580422675.88777,-0.633554589150835,-0.0417486839093613,-0.0656748302433812
1580422675.91986,-1.13990997177081,0.0505378805218584,0.888441290913253
1580422675.95195,0.585702296482797,0.419195849546043,-0.766857404440376
1580422675.98405,-0.610605020218204,-0.106691081101701,-0.644785229266803
1580422676.01614,-1.44509040970474,-0.0856946669718468,-0.235111009384298
1580422676.04823,-0.40161745632105,1.92996108949416,-1.6535896849012
1580422676.08032,-0.324956130312048,0.246341649500266,-0.123781185626001
1580422676.11241,-2.34500648508431,0.0754406042572668,0.0813000686655982
1580422676.1445,-0.724376287479972,1.44948500801098,-1.42848859388113
1580422676.17659,-1.38600747692073,-0.108155947203784,0.234622720683603
1580422676.20868,-1.72927443350881,-1.07350270847639,0.23657587548638
1580422676.24077,-1.2600289921416,0.254154268711375,-0.351323720149539
1580422676.27286,-1.17799649042496,0.099855039291981,-0.302494850080111
1580422676.30496,-0.961684596017395,0.0383306630045013,-0.192629892423895
1580422676.33705,-1.01100175478752,0.138429846646829,-0.218020904859998
1580422676.36914,-0.78443579766537,0.177004654001678,-0.315678644998856
1580422676.40123,-0.760509651331351,0.295170519569695,-0.167727168688486
1580422676.43332,-0.894300755321584,0.323979552910657,-0.360112916762036
1580422676.46541,-0.772228580148013,0.262943465323872,-0.443610284580759
1580422676.4975,-0.755138475623713,0.402594033722437,-0.550545510032807
1580422676.52959,-0.993423361562524,0.307866025787746,-0.413336385137713
1580422676.56168,-1.10572976272221,0.280033569848172,-0.509529259174487
1580422676.59378,-0.882581826504921,0.586678873884185,-0.575448233768215
1580422676.62587,-0.836194399938964,0.753673609521631,-0.847913328755627
1580422676.65796,-0.614023041123064,0.594979781795988,-0.511482413977264
1580422676.69005,-0.791760128175785,0.543221179522394,-0.353276874952316
1580422676.72214,-2.99150072480354,-0.237552452887769,0.191165026321812
1580422676.75423,-1.7302510109102,0.0280766002899213,0.067139696345464
1580422676.78632,-1.48073548485542,0.534920271610591,0.192629892423895
1580422676.81841,-1.26295872434577,0.579842832074466,0.343022812237734
1580422676.8505,-0.830823224231327,0.443610284580757,0.108644235904478
1580422676.8826,-0.588143739986267,0.204837109941252,-0.127199206530861
1580422676.9147,-0.783459220263982,-0.7390249485008,0.151125352864881
1580422676.94679,-0.95533684290837,0.290287632562752,0.485114824139771
1580422676.97888,0.136476691844052,0.212649729152361,-1.07594415197986
1580422677.01098,-0.916273746852827,0.678477149614711,0.0515144579232469
1580422677.04307,-0.864515144579233,1.28834973678187,-1.28053711757076
1580422677.07516,-0.282963302052339,0.484138246738382,-0.251224536507211
1580422677.10725,-2.4568245975433,-0.111573968108644,0.300541695277332
1580422677.13934,-0.975356679636835,0.566170748455026,-1.21364156557565
1580422677.17143,-1.24928664072633,1.05787747005417,0.274662394140535
1580422677.20352,-1.59401846341649,-0.766857404440376,0.384039063096054
1580422677.23561,-1.13112077515831,-0.133546959639887,-0.519295033188373
1580422677.26771,-1.36696421759365,-0.0476081483176927,-0.224368657969023
1580422677.2998,-0.90406652933547,-0.167727168688486,-0.420660715648127
1580422677.33189,-0.940688181887541,0.377203021286334,-0.178469520103761
1580422677.36398,-0.771252002746625,0.386480506599526,-0.159426260776684
1580422677.39607,-0.820080872816053,0.192141603723201,-0.224368657969023
1580422677.42816,-0.917250324254216,0.156496528572518,-0.200930800335698
1580422677.46025,-1.07936217288472,0.112062256809338,-0.11450370031281
1580422677.49234,-0.790783550774396,0.265873197528038,-0.534431982909895
1580422677.52444,-0.733165484092469,0.47241931792172,-0.604257267109178
1580422677.55653,-1.13258564126039,0.249271381704432,-0.52466620889601
1580422677.58862,-1.08570992599374,0.310795757991912,-0.375738155184253
1580422677.62071,-0.926039520866713,0.61792935072862,-0.554940108339055
1580422677.6528,-0.644296940566109,0.578866254673077,-0.799572747386893
1580422677.68489,-0.384039063096056,0.642343785763334,-0.672617685206378
1580422677.71698,-1.23805600061036,0.461188677805751,-0.0461432822156098
1580422677.74907,-2.49344625009537,-0.222415503166246,-0.0871595330739297
1580422677.78116,-1.68923476005188,0.261966887922483,-0.143801022354467
1580422677.81325,-1.41676966506447,0.498786907759211,0.00512703135728998
1580422677.84535,-1.24977492942702,0.54956893263142,0.449469748989088
1580422677.87744,-0.79810788128481,0.350347142748149,0.34937056534676
1580422677.90953,-0.591561760891127,0.121828030823224,0.0207522697795071
1580422677.94162,-0.878675516899367,-0.716075379568169,0.178957808804455
1580422677.97371,-0.483161669336996,0.56324101625086,0.158937972075989
1580422678.0058,-0.306889448386359,0.289799343862057,-0.543221179522392
1580422678.03789,-1.03688105592432,0.652597848477914,-0.529060807202258
1580422678.06998,-0.575936522468909,1.51100938429847,-1.74685282673381
1580422678.10207,-0.656992446784161,0.0871595330739297,-0.0500495918211641
1580422678.13417,-2.7468680857557,0.0925307087815668,0.567147325856414
1580422678.16626,-0.685313191424429,1.43044174868391,-1.79763485160601
1580422678.19827,-0.968032349126421,0.708262760357062,0.210208285648889
1580422678.23036,-1.96267643244068,-1.76736095216297,0.727794308384833
1580422678.26245,-1.10719462882429,-0.342046234836348,-0.621835660334172
1580422678.29455,-1.48952468146792,0.272220950637063,-0.201419089036392
1580422678.32664,-0.944594491493095,0.000244144350347142,-0.229739833676661
1580422678.35873,-1.04078736552987,0.384039063096054,-0.00708018616006711
1580422678.39082,-0.820569161516747,0.312260624093994,-0.229251544975966
1580422678.42291,-0.764904249637599,0.242923628595406,-0.222415503166246
1580422678.455,-0.940199893186847,0.200442511635003,-0.0993667505912867
1580422678.48709,-1.04420538643473,0.0769054703593497,-0.268802929732205
1580422678.51918,-0.673105973907072,0.253177691309986,-0.761974517433433
1580422678.55128,-0.874280918593119,0.43482108796826,-0.695567254139009
1580422678.58337,-1.04811169604028,0.400152590218966,-0.316166933699551
1580422678.61546,-1.04420538643473,0.473884184023802,-0.386968795300222
1580422678.64755,-0.944594491493095,0.54615091172656,-0.753185320820936
1580422678.67964,-0.604745555809872,0.581307698176548,-0.695567254139009
1580422678.71173,-0.505134660868238,0.663828488593882,-0.38452735179675
1580422678.74382,-2.07791256580453,0.310795757991912,0.152101930266269
1580422678.77591,-1.75857175555047,0.30835431448844,-0.272709239337759
1580422678.808,-1.67458609903105,0.330327306019683,-0.163332570382238
1580422678.8401,-1.49050125886931,0.689707789730679,0.579842832074466
1580422678.87219,-1.09254596780346,0.381597619592583,0.199465934233615
1580422678.90428,-0.647714961470969,0.278568703746089,-0.00903334096284425
1580422678.93637,-0.662851911192492,-0.188723582818341,0.155031662470435
1580422678.96846,-1.04420538643473,-0.548104066529335,0.51197070267796
1580422679.00055,0.0788586251621268,0.241458762493323,-0.929457541771573
1580422679.03264,-0.985610742351415,0.265384908827343,-0.255619134813459
1580422679.06473,-1.19313344014649,0.422613870450903,-0.44605172808423
1580422679.09682,0.507087815671017,1.45534447241932,-0.699473563744563
1580422679.12891,-1.94314488441291,-0.258548867017625,-0.42212558175021
1580422679.16101,-1.11793698023957,1.00318913557641,-1.16383611810483
1580422679.1931,-0.580819409475852,1.0466468299382,0.142824444953078
1580422679.22519,-2.17508201724269,-1.52565804531929,0.751720454718853
1580422679.25728,-1.1579766536965,0.0192874036774242,-0.656504158083466
1580422679.28937,-1.49098954757,0.160402838178072,-0.214602883955138
1580422679.32146,-0.941176470588236,-0.0979018844892039,-0.164309147783626
1580422679.35355,-1.03688105592432,0.40405889982452,-0.0852063782711525
1580422679.38564,-0.854749370565347,0.30151827267872,-0.204837109941252
1580422679.41774,-0.743907835507743,0.254642557412069,-0.12133974212253
1580422679.44983,-0.973891813534753,0.196536202029449,-0.200442511635003
1580422679.48193,-0.952895399404898,0.167727168688486,-0.283451590753033
1580422679.51402,-0.541268024719615,0.31860837720302,-0.732677195391775
1580422679.54612,-0.940688181887541,0.316655222400243,-0.382574196993973
1580422679.57821,-1.14186312657359,0.224856946669718,-0.38110933089189
1580422679.6103,-1.04371709773404,0.450446326390477,-0.290287632562753
1580422679.64239,-0.98951705195697,0.602792401007097,-0.754161898222325
1580422679.67448,-0.651621271076523,0.594979781795988,-0.733653772793163
1580422679.70657,-0.52124818799115,0.636972610055697,-0.423102159151599
1580422679.73866,-1.65944914930953,0.325932707713434,-0.00659189745937283
1580422679.77075,-1.97683680476081,0.155031662470435,-0.110597390707255
1580422679.80285,-1.62966353856718,0.259037155718318,0.0710460059510183
1580422679.83494,-1.24489204242008,0.750255588616771,0.29810025177386
1580422679.86703,-1.05055313954376,0.419195849546043,0.343511100938429
1580422679.89912,-0.737560082398717,0.292240787365529,-0.0192874036774242
1580422679.93121,-0.624277103837644,0.0402838178072784,-0.125734340428778
1580422679.9633,-0.923109788662547,-1.11598382543679,0.0798352025635154
1580422679.99539,-0.44263370717937,0.964614328221561,0.317143511100937
1580422680.02748,-0.150148775463492,0.242923628595406,-1.48024719615473
1580422680.05957,-1.61794460975051,0.678477149614711,0.327397573815517
1580422680.09167,-0.041260395208667,2.02810711833371,-2.53202105745022
1580422680.12376,-1.09694056610971,0.0788586251621268,-0.106691081101701
1580422680.15585,-2.03738460364691,-0.884534981307699,0.337163347829403
1580422680.18794,-0.599862668802929,2.28348210879683,-1.65017166399634
1580422680.22003,-1.46364538033112,-0.688242923628595,0.0212405584802013
1580422680.25212,-1.17994964522774,-0.524177920195315,-0.293705653467613
1580422680.28421,-1.20534065766384,0.0627450980392155,-0.202883955138475
1580422680.3163,-1.14137483787289,-0.0954604409857325,-0.113527122911421
1580422680.34839,-1.02223239490349,0.176516365300984,-0.191653315022506
1580422680.38048,-0.887953002212559,0.289311055161363,-0.112062256809338
1580422680.41258,-0.787365529869536,0.0495613031204698,-0.210208285648889
1580422680.44467,-0.872816052491036,0.0949721522850382,-0.267826352330816
1580422680.47676,-0.760509651331351,0.330327306019683,-0.591561760891127
1580422680.50885,-0.735118638895246,0.452399481193254,-0.583260852979324
1580422680.54094,-1.00025940337224,0.527107652399483,-0.209231708247501
1580422680.57303,-1.07496757457847,0.114991989013504,-0.427496757457847
1580422680.60512,-1.16530098420691,0.352300297550926,-0.371343556878005
1580422680.63721,-0.95875486381323,0.40747692072938,-0.685801480125123
1580422680.6693,-0.710704203860532,0.517830167086291,-0.711192492561226
1580422680.7014,-0.465583276112001,0.626230258640422,-0.565194171053635
1580422680.73349,-1.28883802548257,0.281986724650949,0.103273060196841
1580422680.76556,-1.85427634088655,0.411383230334934,-0.331303883421073
1580422680.79765,-1.84304570077058,0.627206836041811,0.0598153658350498
1580422680.82974,-1.53151750972763,0.530525673304343,0.112062256809338
1580422680.86184,-1.20827038986801,0.610116731517511,0.268802929732203
1580422680.89393,-0.841077286945907,0.237064164187075,0.00122072175173571
1580422680.92602,-0.623788815136949,-0.10083161669337,-0.172121766994735
1580422680.95811,-0.892835889219501,-1.42214084077211,-0.0798352025635154
1580422680.9902,-0.744884412909132,1.19899290455482,0.967544060425727
1580422681.02229,0.226810101472495,0.788342107270925,-1.36940566109712
1580422681.05438,-0.98609903105211,0.658945601586939,-0.287846189059282
1580422681.08647,-0.993423361562524,1.09889372091249,-1.06715495536736
1580422681.11856,-0.602304112306401,0.246341649500266,0.0261234454871442
1580422681.15065,-1.99929808499275,-0.402105745021744,0.242923628595406
1580422681.18274,-0.912855725947967,1.47975890745403,-1.39333180743114
1580422681.21483,-1.25123979552911,-0.421149004348822,0.259037155718318
1580422681.24692,-1.51833371480888,-0.899183642328527,-0.0227054245822842
1580422681.27901,-1.39089036392767,0.196047913328755,-0.132570382238498
1580422681.31111,-0.949965667200733,-0.034424353398947,-0.437262531471733
1580422681.3432,-0.824475471122302,0.131593804837109,-0.0686045624475469
1580422681.37529,-0.882581826504921,0.3117723353933,-0.0559090562294955
1580422681.40738,-0.851331349660487,0.180910963607232,-0.212161440451666
1580422681.43947,-1.02760357061112,0.223392080567635,-0.172121766994735
1580422681.47156,-0.96900892652781,0.205813687342641,-0.197512779430838
1580422681.50365,-0.497810330357824,0.414801251239794,-0.813244831006333
1580422681.53574,-0.911879148546578,0.358159761959257,-0.579354543373769
1580422681.56783,-1.01588464179446,0.261966887922483,-0.405523765926604
1580422681.59992,-0.908949416342413,0.452399481193254,-0.38794537270161
1580422681.63201,-0.997329671168078,0.588143739986268,-0.583749141680018
1580422681.6641,-0.800061036087587,0.531990539406426,-0.636484321355001
1580422681.69619,-0.400640878919662,0.678965438315405,-0.578377965972381
1580422681.72828,-1.35378042267491,0.442633707179368,-0.0769054703593497
1580422681.76037,-2.30740825513085,-0.0979018844892039,-0.208743419546806
1580422681.79246,-1.71462577248798,0.381597619592583,0.0583504997329669
1580422681.82455,-1.49001297016861,0.428473334859234,0.0798352025635154
1580422681.85665,-1.10817120622568,0.531502250705731,0.31860837720302
1580422681.88874,-0.661875333791103,0.278568703746089,-0.0231937132829785
1580422681.92083,-0.592050049591821,0.0593270771343555,0.0476081483176927
1580422681.95292,-1.03297474631876,-0.224368657969023,0.724376287479974
1580422681.98501,-0.0769054703593497,0.690196078431374,-0.749767299916074
1580422682.0171,-0.398687724116884,-0.080811779964904,-0.690196078431372
1580422682.04932,-1.40846875715267,0.374761577782863,-0.244388494697489
1580422682.08141,-0.187258716716258,2.39822995345998,-2.89872587167163
1580422682.1135,-0.927504386968796,0.157473105973907,0.0695811398489354
1580422682.14559,-2.02224765392538,-0.34692912184329,0.584725719081408
1580422682.17768,-0.690684367132066,1.30592813000687,-1.72780956740673
1580422682.20977,-1.2942092011902,-0.0549324788281069,0.712657358663311
1580422682.24186,-1.41725795376516,-0.909925993743801,-0.32300297550927
1580422682.27395,-1.16041809719997,0.376226443884946,-0.176516365300984
1580422682.30604,-1.12526131074998,-0.027588311589227,-0.235599298084992
1580422682.33814,-1.00660715648127,-0.122316319523918,-0.147707331960021
1580422682.37023,-0.760509651331351,0.43823910887312,-0.167727168688486
1580422682.40232,-0.760509651331351,0.286381322957197,-0.096437018387121
1580422682.43441,-0.908461127641718,0.179934386205844,-0.00366216525520713
1580422682.4665,-1.05983062485695,0.144777599755855,-0.0593270771343555
1580422682.49859,-0.925551232166018,0.176516365300984,-0.40161745632105
1580422682.53068,-0.760021362630656,0.320073243305103,-0.7219348439765
1580422682.56277,-0.999282825970855,0.378667887388417,-0.535408560311284
1580422682.59486,-0.972915236133364,0.239017318989852,-0.440680552376593
1580422682.62696,-0.846936751354239,0.542244602121006,-0.624277103837644
1580422682.65905,-0.882581826504921,0.733165484092471,-0.777111467154956
1580422682.69114,-0.744396124208437,0.685313191424431,-0.482673380636301
1580422682.72323,-1.0720378423743,0.348882276646066,-0.0510261692225527
1580422682.75532,-2.3708857862211,-0.0466315709163041,0.287357900358586
1580422682.78741,-1.62380407415885,0.40747692072938,-0.0822766460669868
1580422682.8195,-1.57204547188525,0.240970473792629,0.177004654001678
1580422682.85159,-1.13893339436942,0.665293354695965,0.236087586785686
1580422682.88369,-0.831799801632716,0.438727397573814,-0.183840695811398
1580422682.91578,-0.617441062027924,0.3630426489662,0.0114747844663157
1580422682.94787,-0.626718547341115,0.0573739223315783,0.351323720149537
1580422682.97996,-0.835217822537576,-0.665293354695963,0.0368657969024184
1580422683.01205,-0.205325398641946,0.241947051194018,-0.581795986877241
1580422683.04414,-0.614023041123064,0.675547417410545,-0.587655451285572
1580422683.07623,-1.24831006332494,0.682383459220265,-0.551522087434195
1580422683.10832,-0.041260395208667,1.50222018768597,-1.59108873121233
1580422683.14041,-1.65407797360189,0.0734874494544897,-0.239505607690546
1580422683.17251,-1.43923094529641,-0.123292896925307,-0.23315785458152
1580422683.2046,-0.744396124208437,1.89919890135042,-0.683360036621652
1580422683.23669,-1.37282368200198,-0.151613641565575,0.269291218432897
1580422683.26878,-1.18287937743191,-0.744884412909132,-0.392339971007859
1580422683.30087,-1.32985427634089,0.0490730144197755,-0.328862439917602
1580422683.33295,-1.02174410620279,0.0295414663920042,-0.358159761959259
1580422683.36504,-1.00318913557641,0.165774013885709,-0.109132524605172
1580422683.39713,-0.896253910124361,0.46216525520714,0.0417486839093613
1580422683.42922,-0.796643015182728,0.146730754558632,-0.140383001449607
1580422683.46131,-0.817151140611887,0.0920424200808725,-0.225833524071106
1580422683.4934,-0.906019684138247,0.167727168688486,-0.254642557412071
1580422683.52549,-1.02858014801251,0.037842374303807,-0.460212100404364
1580422683.55758,-0.704356450751506,0.47583733882658,-0.712657358663309
1580422683.58968,-1.02613870450904,0.396734569314106,-0.411383230334936
1580422683.62177,-1.08570992599374,0.39038681620508,-0.413824673838407
1580422683.65386,-1.00465400167849,0.521736476691846,-0.507087815671015
1580422683.68595,-0.902601663233387,0.659922178988328,-0.790295262073702
1580422683.71804,-0.436285954070344,0.613046463721677,-0.448981460288396
1580422683.75013,-0.835217822537576,0.622812237735562,-0.196536202029449
1580422683.78222,-2.80448615243763,-0.345952544441902,0.10424963759823
1580422683.81431,-1.55446707866026,0.351812008850231,0.0466315709163041
1580422683.84641,-1.41725795376516,0.360112916762034,0.00659189745937283
1580422683.8785,-1.23805600061036,0.499763485160599,0.325932707713434
1580422683.91059,-0.979751277943084,0.358159761959257,-0.0461432822156098
1580422683.94268,-0.691660944533455,0.209231708247501,-0.317631799801633
1580422683.97477,-0.696543831540398,-0.154543373769741,0.28442816815442
1580422684.00686,-1.10133516441596,-0.904554818036164,0.33911650263218
1580422684.03895,-0.397222858014802,0.608651865415428,0.101808194094758
1580422684.07104,-0.314213778896773,0.47583733882658,-1.35329213397421
1580422684.10313,-1.29274433508812,0.660898756389717,-0.109620813305867
1580422684.13522,-0.262943465323874,1.81814297703517,-1.97244220645457
1580422684.16732,-1.26100556954299,-0.0930189974822611,-0.080811779964904
1580422684.19941,-1.70632486457618,-0.382085908293279,0.110109102006561
1580422684.2315,-0.659433890287632,2.30350194552529,-1.34059662775616
1580422684.26359,-1.61159685664149,-0.755138475623713,0.331303883421072
1580422684.29568,-1.08522163729305,-0.537361715114061,-0.50415808346685
1580422684.32777,-1.27565423056382,0.158937972075989,-0.223392080567635
1580422684.35986,-1.04518196383612,-0.0124513618677042,-0.251224536507211
1580422684.39195,-0.96559090562295,0.204837109941252,-0.224368657969023
1580422684.42404,-0.832776379034105,0.339604791332874,-0.060303654535744
1580422684.45614,-0.780529488059816,0.120851453421835,-0.123292896925307
1580422684.48823,-0.946547646295873,0.103761348897535,-0.205813687342641
1580422684.52032,-1.01197833218891,0.119386587319752,-0.200442511635003
1580422684.55241,-0.840588998245213,0.175539787899595,-0.561776150148775
1580422684.5845,-0.693614099336232,0.619394216830703,-0.584725719081407
1580422684.61658,-1.07496757457847,0.252689402609292,-0.437750820172427
1580422684.64867,-1.02613870450904,0.314702067597466,-0.362066071564813
1580422684.68076,-0.920180056458381,0.590096894789045,-0.635019455252918
1580422684.71285,-0.734142061493857,0.586678873884185,-0.688731212329289
1580422684.74494,-0.431891355764096,0.606698710612651,-0.603280689707789
1580422684.77703,-1.40456244754711,0.331792172121766,0.0578622110322726
1580422684.80912,-2.19266041046769,0.275638971541923,-0.0588387884336612
1580422684.84121,-1.78396276798657,0.427496757457845,0.0100099183642328
1580422684.87331,-1.48171206225681,0.408453498130768,-0.0476081483176927
1580422684.9054,-1.24489204242008,0.572030212863357,0.363530937666894
1580422684.93749,-0.91773861295491,0.249759670405126,0.063721675440604
1580422684.96958,-0.565194171053635,0.131593804837109,-0.0646982528419926
1580422685.00167,-0.44605172808423,-0.530037384603647,-0.0690928511482412
1580422685.03376,-1.30983443961242,-0.606698710612649,0.618905928130008
1580422685.06585,-0.0554207675288012,0.511482413977266,-0.709727626459143
1580422685.09794,-0.576424811169604,0.560311284046694,-0.802014190890365
1580422685.13003,-1.36745250629435,0.469489585717554,-0.407476920729382
1580422685.16213,0.175051499198901,1.65065995269703,-1.01344319829099
1580422685.19422,-2.08865491721981,-0.202883955138475,-0.40503547722591
1580422685.22631,-1.04811169604028,0.246341649500266,-0.854261081864653
1580422685.2584,-0.42212558175021,1.29713893339437,0.115968566414892
1580422685.29049,-2.13504234378576,-1.6106202792401,0.870374608987564
1580422685.32258,-0.99293507286183,0.0524910353246355,-0.610116731517509
1580422685.35467,-1.36549935149157,0.266361486228732,-0.183840695811398
1580422685.38676,-0.95191882200351,-0.128175783932249,-0.32300297550927
1580422685.41885,-1.01930266269932,0.277103837644006,-0.154055085069047
1580422685.45095,-0.823010605020219,0.256107423514152,-0.224368657969023
1580422685.48304,-0.763439383535516,0.138429846646829,-0.198001068131532
1580422685.51513,-1.0036774242771,0.207766842145418,-0.121828030823224
1580422685.54722,-1.00807202258335,0.262455176623178,-0.150148775463492
1580422685.57931,-0.609628442816815,0.420660715648125,-0.546150911726558
1580422685.6114,-0.775646601052873,0.402105745021743,-0.614023041123064
1580422685.64349,-1.18727397573815,0.107179369802395,-0.383062485694667
1580422685.67558,-0.990981918059052,0.445563439383534,-0.362554360265507
1580422685.70768,-0.98268101014725,0.594979781795988,-0.652109559777218
1580422685.73977,-0.684824902723735,0.607186999313345,-0.711192492561226
1580422685.77186,-0.573495078965438,0.61451132982376,-0.468513008316167
1580422685.80395,-1.69411764705882,0.240482185091935,0.235599298084992
1580422685.83604,-2.04715037766079,0.380621042191194,-0.196047913328755
1580422685.86813,-1.54470130464637,0.482673380636299,-0.0622568093385212
1580422685.90033,-1.29079118028534,0.416754406042571,0.0910658426794839
1580422685.93242,-1.17604333562219,0.508064393072406,0.515877012283514
1580422685.96451,-0.765392538338293,0.331303883421072,-0.0324711985961699
1580422685.9966,-0.538826581216144,-0.031006332494087,-0.309819180590525
1580422686.02869,-0.534431982909895,-0.682383459220263,-0.164797436484321
1580422686.06078,-1.5251697566186,-0.300053406576639,0.739513237201496
1580422686.09288,0.130617227435721,0.592050049591823,-1.00660715648127
1580422686.12497,-0.768810559243153,0.846936751354239,-0.564217593652247
1580422686.15706,-1.0129549095903,0.90748455024033,-0.946059357595178
1580422686.18915,-0.171145189593346,0.876234073395896,-0.618905928130006
1580422686.22124,-2.45828946364538,-0.475837338826581,0.539803158617534
1580422686.25333,-0.805432211795225,0.605233844510568,-1.16334782940413
1580422686.28542,-0.750743877317465,1.3459678034638,0.244388494697489
1580422686.31751,-2.00711070420386,-1.43727779049363,0.361577782864117
1580422686.3496,-1.02516212710765,-0.116945143816281,-0.56910048065919
1580422686.3817,-1.34499122606241,0.0769054703593497,-0.0813000686655982
1580422686.41379,-0.974380102235447,-0.0197756923781185,-0.299565117875945
1580422686.44588,-0.919691767757687,0.399664301518271,-0.103273060196841
1580422686.47797,-0.792248416876479,0.253177691309986,-0.187747005416952
1580422686.51006,-0.869398031586176,0.150148775463492,-0.115968566414892
1580422686.54215,-0.98951705195697,0.112550545510032,-0.159426260776684
1580422686.57424,-0.940688181887541,0.117433432516975,-0.431891355764096
1580422686.60633,-0.621347371633478,0.310307469291217,-0.748790722514686
1580422686.63842,-1.03053330281529,0.436774242771037,-0.484626535439078
1580422686.67052,-0.974380102235447,0.330327306019683,-0.40161745632105
1580422686.70261,-0.980727855344472,0.422125581750208,-0.334721904325933
1580422686.7347,-0.949477378500038,0.656504158083468,-0.619882505531395
1580422686.76679,-0.680430304417486,0.514900434882126,-0.632089723048752
1580422686.79888,-0.607186999313344,0.598397802700848,-0.359624628061342
1580422686.83097,-1.9866025787747,0.241947051194018,0.203860532539863
1580422686.86306,-1.87331960021363,-0.067139696345464,-0.00122072175173571
1580422686.89515,-1.4914778362707,0.333257038223849,-0.0563973449301898
1580422686.92725,-1.24928664072633,0.448004882887005,0.122804608224612
1580422686.95934,-1.0891279468986,0.386480506599526,0.209719996948195
1580422686.99143,-0.724864576180666,0.397711146715494,0.0134279392690928
1580422687.02352,-0.82203402761883,0.0217288471808956,0.297123674372472
1580422687.05561,-1.02906843671321,-0.125246051728084,0.491462577248797
1580422687.0877,-0.0319829098954756,0.135500114442664,-1.07154955367361
1580422687.11979,-0.70826276035706,0.0266117341878385,-0.270267795834288
1580422687.15188,-1.28297856107424,0.0896009765774011,-0.259525444419014
1580422687.18402,-0.156984817273212,2.10183871213855,-2.11892881666285
1580422687.21611,-0.768322270542459,0.341557946135651,-0.36743724727245
1580422687.2482,-2.01150530251011,-0.150637064164187,0.398687724116883
1580422687.28029,-0.783947508964676,1.37233539330129,-1.21608300907912
1580422687.31239,-0.915785458152133,0.153078507667658,0.344975967040511
1580422687.34448,-1.8244907301442,-1.0891279468986,0.411383230334934
1580422687.37657,-1.04225223163195,0.496345464255739,-0.431891355764096
1580422687.40866,-1.20631723506523,0.198001068131532,-0.444586861982147
1580422687.44075,-0.869398031586176,-0.0266117341878385,-0.229739833676661
1580422687.47284,-1.04176394293126,0.204837109941252,-0.171633478294041
1580422687.50494,-0.882581826504921,0.317631799801632,-0.231204699778743
1580422687.53703,-0.894300755321584,0.233646143282215,-0.120363164721141
1580422687.56912,-0.928969253070878,0.162355992980849,-0.060303654535744
1580422687.60121,-1.11256580453193,0.141847867551689,-0.0681162737468526
1580422687.6333,-0.98951705195697,0.158449683375295,-0.546639200427252
1580422687.6654,-0.596932936598764,0.469489585717554,-0.676523994811932
1580422687.69749,-0.751720454718853,0.354741741054397,-0.556893263141832
1580422687.72958,-0.91773861295491,0.375249866483557,-0.53150225070573
1580422687.76167,-0.784924086366065,0.54615091172656,-0.631601434348058
1580422687.79376,-0.611093308918898,0.609628442816817,-0.700450141145952
1580422687.82585,-0.575448233768215,0.764904249637599,-0.444098573281453
1580422687.85794,-1.88064393072404,0.530037384603649,0.0573739223315783
1580422687.89004,-2.02273594262608,-0.00366216525520713,-0.174563210498206
1580422687.92213,-1.76394293125811,0.204348821240558,-0.0661631189440754
1580422687.95422,-1.45436789501793,0.364507515068283,0.0876478217746239
1580422687.98631,-1.08619821469444,0.519295033188374,0.315678644998854
1580422688.0184,-0.696543831540398,0.367925535973143,-0.0559090562294955
1580422688.05049,-0.609628442816815,0.29810025177386,-0.0129396505683985
1580422688.08259,-0.792248416876479,-0.520271610589761,0.070557717250324
1580422688.11468,-0.966079194323644,-0.0158693827725642,0.437262531471731
1580422688.14677,-0.115968566414892,0.156984817273212,-1.0041657129778
1580422688.17886,-0.961684596017395,0.506111238269629,-0.248294804303043
1580422688.21095,-0.651132982375829,1.21705958648051,-1.10817120622568
1580422688.24304,-0.12475776302739,0.759533073929962,-0.51441214618143
1580422688.27514,-2.36160830090791,-0.356206607156482,0.214114595254443
1580422688.30723,-0.962661173418784,0.47583733882658,-0.813244831006333
1580422688.33932,-0.223392080567635,1.02418554970626,0.0607919432364383
1580422688.37141,-2.67801937895781,-1.76198977645533,1.22047760738537
1580422688.4035,-1.00709544518196,0.0295414663920042,-0.676523994811932
1580422688.43559,-1.40505073624781,0.12475776302739,-0.193606469825284
1580422688.46783,-0.975356679636835,-0.0334477759975584,-0.260502021820402
1580422688.49993,-1.02223239490349,0.275638971541923,-0.145265888456549
1580422688.53202,-0.820080872816053,0.300053406576637,-0.103761348897535
1580422688.56411,-0.782482642862593,0.0925307087815668,-0.150148775463492
1580422688.5962,-0.913832303349356,0.123781185626001,-0.194583047226672
1580422688.62829,-1.01344319829099,0.248783093003738,-0.161379415579461
1580422688.66039,-0.770275425345236,0.195559624628061,-0.644785229266803
1580422688.69248,-0.834729533836882,0.442145418478674,-0.635507743953612
1580422688.72457,-1.06764324406805,0.230228122377355,-0.437262531471733
1580422688.75666,-1.02369726100557,0.418219272144654,-0.52124818799115
1580422688.78875,-0.858655680170902,0.756603341725796,-0.50415808346685
1580422688.82085,-0.700450141145952,0.709239337758451,-0.736095216296635
1580422688.85294,-0.622323949034866,0.596444647898071,-0.376714732585642
1580422688.88503,-1.4572976272221,0.166262302586404,-0.0554207675288012
1580422688.91712,-2.15506218051423,0.0700694285496297,-0.238529030289158
1580422688.94922,-1.74294651712825,0.187747005416952,0.173098344396124
1580422688.98131,-1.44460212100404,0.325932707713434,0.0153810940718699
1580422689.0134,-1.14528114747845,0.704844739452202,0.187258716716258
1580422689.04549,-0.802014190890365,0.479743648432134,0.0100099183642328
1580422689.07758,-0.646738384069581,0.37329671168078,0.11108567940795
1580422689.10968,-0.566659037155718,-0.202395666437781,0.236087586785686
1580422689.14177,-1.04274052033265,-0.794201571679256,0.0925307087815668
1580422689.17386,-0.216556038757915,0.108644235904478,-0.725841153582055
1580422689.20595,-0.750255588616771,0.76734569314107,-0.486579690241856
1580422689.23804,-0.96559090562295,1.1067063401236,-1.07887388418402
1580422689.27014,0.182864118410009,1.30934615091173,-1.12428473334859
1580422689.30223,-2.09597924773022,-0.12133974212253,-0.196536202029449
1580422689.33432,-1.18727397573815,0.0905775539787896,-0.509529259174487
1580422689.36641,-0.724376287479972,1.9187304493782,-0.251712825207905
1580422689.3985,-2.21658655680171,-1.52956435492485,0.581795986877243
1580422689.4306,-1.05250629434653,-0.159426260776684,-0.503181506065461
1580422689.46269,-1.40114442664225,0.169680323491264,-0.275638971541925
1580422689.49478,-0.916273746852827,-0.135988403143358,-0.278568703746091
1580422689.52687,-0.999282825970855,0.316166933699549,-0.205325398641946
1580422689.55896,-0.807873655298696,0.394781414511328,-0.0393072404058898
1580422689.59106,-0.775646601052873,0.209719996948195,-0.156008239871824
1580422689.62315,-1.01051346608682,0.231692988479438,-0.178469520103761
1580422689.65524,-1.04371709773404,0.132082093537804,-0.205325398641946
1580422689.68733,-0.754161898222325,0.177981231403066,-0.854261081864653
1580422689.71943,-0.71851682307164,0.485603112840465,-0.603768978408484
1580422689.75153,-1.1150072480354,0.235599298084992,-0.380621042191196
1580422689.78362,-0.909925993743801,0.374761577782863,-0.462653543907836
1580422689.81571,-0.737560082398717,0.719493400473031,-0.586678873884184
1580422689.8478,-0.708751049057755,0.637460898756391,-0.638437476157778
1580422689.87989,-0.572518501564049,0.568612191958497,-0.311284046692608
1580422689.91199,-2.05886930647745,0.296147096971083,0.0695811398489354
1580422689.94408,-1.7219501029984,0.145265888456549,0.0251468680857556
1580422689.97617,-1.66091401541161,0.357671473258563,0.0632333867399097
1580422690.00826,-1.49098954757,0.333257038223849,0.30493629358358
1580422690.04035,-1.10328831921874,0.658457312886245,0.126222629129472
1580422690.07245,-0.698496986343175,0.576424811169606,-0.308354314488442
1580422690.10454,-0.621835660334172,0.106202792401007,-0.181887541008621
1580422690.13663,-0.613046463721675,-0.401129167620356,0.208255130846112
1580422690.16872,-1.01930266269932,-0.81519798580911,0.0871595330739297
1580422690.20081,-0.302006561379416,0.331792172121766,-0.401129167620356
1580422690.23291,-0.658945601586938,0.598886091401543,-1.08229190508888
1580422690.265,-0.892347600518807,1.49147783627069,-0.49390402075227
1580422690.29709,-0.187747005416952,1.28883802548257,-1.48317692835889
1580422690.32918,-1.88552681773098,-0.291752498664836,-0.0607919432364383
1580422690.36127,-1.21315327687495,0.102296482795452,-0.51099412527657
1580422690.39337,-0.418219272144656,1.9358205539025,-0.262455176623179
1580422690.42546,-2.02224765392538,-1.00074769207294,0.549080643930726
1580422690.45755,-0.96217288471809,-0.299076829175251,-0.649179827573052
1580422690.48964,-1.3630579079881,0.114991989013504,-0.123781185626001
1580422690.52174,-0.990005340657664,-0.0261234454871442,-0.246341649500266
1580422690.55383,-0.99977111467155,0.282963302052337,-0.242435339894712
1580422690.58592,-0.83912413214313,0.351812008850231,-0.105226214999618
1580422690.61801,-0.806408789196613,0.0886243991760125,-0.214114595254443
1580422690.6501,-0.948989089799344,0.0598153658350498,-0.252689402609294
1580422690.6822,-0.940199893186847,0.152101930266269,-0.286869611657893
1580422690.71429,-0.718028534370946,0.3459525444419,-0.653086137178606
1580422690.74638,-0.812268253604945,0.521248187991151,-0.439703974975204
1580422690.77847,-1.15651178759441,0.388921950102997,-0.352300297550928
1580422690.81056,-1.03981078812848,0.394781414511328,-0.311284046692608
1580422690.84266,-0.881116960402839,0.455817502098114,-0.635019455252918
1580422690.87475,-0.827405203326467,0.44165712977798,-0.734142061493857
1580422690.90684,-0.436285954070344,0.592538338292517,-0.536873426413367
1580422690.93893,-1.0466468299382,0.355230029755091,-0.109620813305867
1580422690.97102,-2.57108415350576,0.123292896925307,-0.00512703135728998
1580422691.00312,-1.70583657587549,0.504158083466852,-0.218020904859998
1580422691.03528,-1.50319676508736,0.510994125276572,0.138918135347524
1580422691.06737,-1.21364156557565,0.613534752422371,0.440680552376591
1580422691.09946,-0.927016098268101,0.295170519569695,0.099855039291981
1580422691.13155,-0.658945601586938,0.0817883573662925,-0.121828030823224
1580422691.16365,-0.706309605554283,-0.887464713511864,-0.192141603723201
1580422691.19574,-1.45827420462348,-0.371343556878005,0.92457465476463
1580422691.22783,-0.0544441901274126,0.418219272144654,-0.786877241168842
1580422691.25992,-0.678965438315403,0.948012512397955,-0.585702296482795
1580422691.29201,-1.35719844357977,0.172610055695429,-0.496345464255741
1580422691.32411,0.195559624628061,1.47682917524986,-0.990493629358358
1580422691.3562,-1.88650339513237,-0.210208285648889,-0.345952544441902
1580422691.38829,-1.05104142824445,0.724376287479974,-0.891371023117419
1580422691.42038,-0.438239108873121,1.15944151979858,0.123292896925307
1580422691.45247,-1.97390707255665,-0.975356679636835,0.319096665903714
1580422691.48457,-1.05690089265278,-0.215091172655832,-0.53833829251545
1580422691.51666,-1.41969939726864,0.279545281147477,-0.0607919432364383
1580422691.54875,-0.918715190356298,-0.0607919432364383,-0.235599298084992
1580422691.58084,-1.01441977569238,0.239505607690546,-0.112550545510032
1580422691.61294,-0.82887006942855,0.215579461356526,-0.232181277180132
1580422691.64503,-0.811291676203556,0.164309147783626,-0.200442511635003
1580422691.67712,-0.967055771725033,0.154055085069047,-0.149172198062104
1580422691.70921,-1.06080720225834,0.0246585793850613,-0.0549324788281069
1580422691.7413,-0.548104066529335,0.375738155184251,-0.716075379568169
1580422691.7734,-0.85621423666743,0.443121995880063,-0.644785229266803
1580422691.80549,-1.18971541924163,0.378179598687723,-0.415777828641184
1580422691.83758,-0.985122453650721,0.334721904325932,-0.45630579079881
1580422691.86967,-1.00953688868544,0.605233844510568,-0.653574425879301
1580422691.90176,-0.679942015716792,0.501228351262686,-0.618905928130006
1580422691.93386,-0.693614099336232,0.395269703212023,-0.395269703212024
1580422691.96595,-1.38600747692073,0.197024490730143,0.123781185626001
1580422691.99804,-1.8581826504921,0.602792401007097,-0.359624628061342
1580422692.03013,-1.66286717021439,0.488044556343937,0.219974059662775
1580422692.06222,-1.29518577859159,0.671641107804991,0.227786678873883
1580422692.09432,-1.14528114747845,0.572518501564051,0.242923628595406
1580422692.12641,-0.82203402761883,0.148195620660715,-0.0393072404058898
1580422692.1585,-0.648691538872358,-0.339604791332876,-0.416266117341879
1580422692.19059,-0.922133211261158,-1.22877851529717,-0.0710460059510183
1580422692.22268,-0.971938658731975,0.976821545738918,1.20289921416037
1580422692.25478,0.33228046082246,0.561776150148777,-1.77517357137408
1580422692.28687,-1.07496757457847,0.900160219729916,-0.034424353398947
1580422692.31912,-0.623788815136949,1.00221255817502,-1.38991378652628
1580422692.35121,-0.948989089799344,0.686778057526514,-0.238040741588463
1580422692.38331,-1.87869077592126,-0.126222629129472,-0.0866712443732354
1580422692.4154,-0.829358358129245,1.35329213397421,-0.396734569314107
1580422692.44749,-1.61452658884565,-0.952407110704204,0.00805676356145568
1580422692.47958,-1.14430457007706,-0.23999389639124,-0.307377737087053
1580422692.51168,-1.3547570000763,0.374761577782863,-0.484138246738384
1580422692.54377,-0.97584496833753,-0.116456855115587,-0.186282139314869
1580422692.57586,-1.04615854123751,0.202883955138475,-0.00708018616006711
1580422692.60795,-0.880628671702144,0.327885862516212,-0.2434119172961
1580422692.64005,-0.708751049057755,0.409918364232851,-0.290775921263448
1580422692.67214,-0.985610742351415,0.189211871519035,-0.275150682841231
1580422692.70423,-0.782970931563288,0.164797436484321,-0.435309376668956
1580422692.73633,-0.681895170519569,0.37329671168078,-0.679453727016098
1580422692.76842,-0.91432059205005,0.452399481193254,-0.45972381170367
1580422692.80051,-0.885023270008393,0.312260624093994,-0.599374380102235
1580422692.8326,-0.978286411841001,0.626718547341117,-0.501716639963378
1580422692.8647,-0.956801709010453,0.775646601052873,-0.760021362630656
1580422692.89679,-0.590585183489738,0.533943694209203,-0.532967116807813
1580422692.92888,-0.751232166018159,0.279056992446783,-0.172121766994735
1580422692.96097,-3.03642328526741,-0.173586633096818,0.34253452353704
1580422692.99307,-1.70241855497063,0.273197528038452,-0.0437018387121384
1580422693.02516,-1.44216067750057,0.565194171053637,0.23315785458152
1580422693.05725,-1.14772259098192,0.560311284046694,0.155519951171129
1580422693.08934,-0.906019684138247,0.353276874952314,0.114991989013504
1580422693.12144,-0.611093308918898,0.242923628595406,-0.0178225375753414
1580422693.15353,-0.550057221332112,-0.300053406576639,0.101808194094758
1580422693.18562,-0.993911650263218,-0.450934615091173,0.457770656900891
1580422693.21771,0.0168459601739528,0.245365072098878,-1.03297474631876
1580422693.24981,-0.925551232166018,0.340581368734263,0.00659189745937283
1580422693.2819,-1.18239108873121,0.942641336690318,-0.807873655298696
1580422693.31399,0.206301976043335,1.40065613794156,-0.921644922560464
1580422693.34608,-1.90847638666362,-0.383062485694667,-0.302983138780805
1580422693.37818,-1.33229571984436,0.0305180437933927,-0.614511329823758
1580422693.41027,-0.830823224231327,2.34110017547875,-0.333745326924545
1580422693.44236,-1.42165255207141,-0.715587090867475,0.12475776302739
1580422693.47445,-1.19362172884718,-0.44263370717937,-0.412359807736324
1580422693.50655,-1.34206149385824,0.262455176623178,-0.295658808270391
1580422693.53864,-1.01393148699168,-0.0749523155565726,-0.251224536507211
1580422693.57073,-0.99293507286183,0.186282139314869,-0.23315785458152
1580422693.60284,-0.752697032120242,0.348882276646066,-0.203860532539863
1580422693.63494,-0.764904249637599,0.133546959639887,-0.163820859082932
1580422693.66703,-0.947524223697261,0.113038834210727,-0.159426260776684
1580422693.69912,-0.966567483024338,0.156008239871824,-0.347417410543985
1580422693.73121,-0.652597848477912,0.331303883421072,-0.718028534370946
1580422693.76331,-0.844983596551462,0.54615091172656,-0.493415732051576
1580422693.7954,-1.12574959945067,0.244876783398183,-0.267826352330816
1580422693.82749,-0.837659266041047,0.357671473258563,-0.426031891355764
1580422693.85958,-0.976821545738918,0.575936522468911,-0.621835660334172
1580422693.89168,-0.871351186388953,0.648203250171665,-0.719981689173723
1580422693.92377,-0.509040970473793,0.62476539253834,-0.388433661402305
1580422693.95586,-1.27956054016938,0.319096665903714,-0.0920424200808725
1580422693.98795,-2.33768215457389,-0.198489356832226,-0.426031891355764
1580422694.02005,-1.81521324483101,0.28101014724956,0.109620813305867
1580422694.05214,-1.45290302891585,0.401617456321048,0.168703746089875
1580422694.08423,-1.08180361638819,0.899671931029221,0.160891126878766
1580422694.11632,-0.746837567711909,0.524177920195317,0.248294804303043
1580422694.14842,-0.640878919661249,0.35962462806134,-0.00561532005798426
1580422694.18051,-0.603280689707789,-0.348393987945373,-0.099855039291981
1580422694.2126,-1.1750667582208,-0.610116731517509,0.191653315022506
1580422694.24469,-0.271244373235676,0.307866025787746,-0.489021133745327
1580422694.27679,-0.941176470588236,0.671641107804991,-0.604257267109178
1580422694.30888,-0.902113374532693,1.0300450141146,-0.632578011749446
1580422694.34097,0.145265888456549,0.991958495460441,-0.433844510566873
1580422694.37307,-2.39139391165026,-0.347417410543985,0.00268558785381856
1580422694.40516,-0.885999847409781,0.899671931029221,-1.32204165712978
1580422694.43725,-1.09401083390555,0.728770885786222,0.585702296482797
1580422694.46934,-1.85476462958724,-1.2346379797055,0.450934615091171
1580422694.50144,-1.23561455710689,0.302983138780803,-0.289311055161365
1580422694.53353,-1.34010833905547,-0.0251468680857556,-0.328374151216908
1580422694.56562,-0.961684596017395,-0.434332799267567,-0.553963530937667
1580422694.59771,-1.05104142824445,0.175051499198901,-0.123292896925307
1580422694.62981,-0.823498893720913,0.317631799801632,-0.140383001449607
1580422694.6619,-0.814709697108416,0.216556038757915,-0.239505607690546
1580422694.69399,-0.870374608987564,0.310307469291217,-0.0563973449301898
1580422694.72608,-0.83228809033341,0.225833524071106,-0.317631799801633
1580422694.75818,-0.627695124742504,0.389898527504386,-0.662851911192492
1580422694.79027,-0.949477378500038,0.413336385137711,-0.417730983443962
1580422694.82236,-1.16920729381247,0.286381322957197,-0.322026398107882
1580422694.85445,-1.01832608529793,0.531013962005037,-0.31958495460441
1580422694.88669,-1.00318913557641,0.460212100404362,-0.712169069962615
1580422694.91878,-0.793713282978562,0.530525673304343,-0.741466392004272
1580422694.95087,-0.633554589150835,0.552010376134891,-0.502693217364767
1580422694.98297,-1.17555504692149,0.294682230869,0.0178225375753414
1580422695.01506,-2.4226443884947,-0.0852063782711525,-0.00561532005798426
1580422695.04715,-1.58278782330053,0.343511100938429,-0.096437018387121
1580422695.07925,-1.32252994583047,0.656504158083468,0.0568856336308841
1580422695.11134,-1.25905241474022,0.545662623025866,0.473395895323108
1580422695.14343,-0.806408789196613,0.357671473258563,0.166750591287098
1580422695.17552,-0.546150911726558,0.0676279850461583,-0.223392080567635
1580422695.20762,-0.556893263141832,-0.906996261539636,-0.494392309452964
1580422695.23971,-1.50270847638666,-0.0813000686655982,1.19508659494926
1580422695.2718,0.0817883573662925,0.608651865415428,-1.29518577859159
1580422695.3039,-0.707774471656366,0.992446784161135,-0.244876783398183
1580422695.33599,-0.743419546807049,1.13698023956664,-1.37331197070268
1580422695.36808,-0.288334477759976,0.333257038223849,-0.0632333867399097
1580422695.40018,-2.62333104448005,-0.393316548409247,0.875745784695201
1580422695.43227,-0.520271610589761,2.15359731441215,-2.10037384603647
1580422695.46436,-1.73171587701228,-0.224856946669718,0.00805676356145568
1580422695.49646,-1.61599145494774,-1.42165255207141,0.0339360646982527
1580422695.52855,-1.320088502327,0.218509193560692,-0.309330891889831
1580422695.56064,-1.19020370794232,0.167238879987792,-0.257572289616236
1580422695.59273,-0.984634164950027,0.0803234912642097,-0.177981231403066
1580422695.62483,-0.95191882200351,0.242923628595406,-0.0178225375753414
1580422695.65692,-0.865491721980622,0.164309147783626,-0.321538109407188
1580422695.68901,-0.803967345693142,0.183840695811398,-0.208255130846112
1580422695.72111,-1.00318913557641,0.126222629129472,-0.237552452887769
1580422695.7532,-0.651621271076523,0.220462348363469,-0.624277103837644
1580422695.78529,-0.658457312886243,0.453864347295337,-0.594003204394598
1580422695.81739,-1.08375677119097,0.391851682307163,-0.435309376668956
1580422695.84948,-0.975356679636835,0.395269703212023,-0.439703974975204
1580422695.88157,-0.946547646295873,0.521248187991151,-0.494392309452964
1580422695.91366,-0.888929579613947,0.639414053559168,-0.710215915159838
1580422695.94576,-0.434332799267567,0.560311284046694,-0.636484321355001
1580422695.97785,-0.976333257038224,0.450446326390477,-0.174074921797512
1580422696.00994,-2.35281910429542,-0.223880369268329,-0.037842374303807
1580422696.04204,-1.75075913633936,0.28784618905928,-0.0764171816586554
1580422696.07413,-1.59548332951858,0.251224536507209,0.110597390707255
1580422696.10622,-1.27516594186313,0.564217593652248,0.292729076066223
1580422696.13832,-0.850843060959793,0.498298619058517,0.00219729915312428
1580422696.1705,-0.630136568245975,0.35278858625162,-0.0974135957885096
1580422696.20259,-0.704356450751506,0.00268558785381856,0.323491264209963
1580422696.23469,-0.81519798580911,-0.532967116807813,0.275150682841229
1580422696.26678,-0.239017318989852,0.0402838178072784,-0.773693446250096
1580422696.29887,-0.572030212863355,0.413336385137711,-0.663340199893186
1580422696.33097,-1.34987411306935,0.65210955977722,-0.38110933089189
1580422696.36306,0.140871290150301,2.05105668726635,-2.29617761501488
1580422696.39515,-1.3542687113756,0.155519951171129,-0.272709239337759
1580422696.42725,-1.81521324483101,-0.40161745632105,0.267826352330815
1580422696.45934,-0.74927901121538,1.74148165102617,-1.92166018158236
1580422696.49143,-1.40700389105058,-0.553963530937667,0.541268024719617
1580422696.52352,-1.32643625543603,-0.747325856412603,-0.37427328908217
1580422696.55562,-1.26735332265202,0.316166933699549,-0.270267795834288
1580422696.58771,-1.072526131075,-0.0158693827725642,-0.234622720683603
1580422696.6198,-1.00318913557641,-0.0271000228885327,-0.238040741588463
1580422696.6519,-0.818127718013276,0.328374151216906,-0.183352407110704
1580422696.68399,-0.778576333257039,0.244388494697489,-0.177004654001678
1580422696.71608,-0.879652094300756,0.247806515602349,-0.0852063782711525
1580422696.74818,-1.00856031128405,0.201907377737086,-0.0563973449301898
1580422696.78027,-1.01344319829099,0.0485847257190812,-0.377203021286336
1580422696.81236,-0.661875333791103,0.489997711146714,-0.659922178988326
1580422696.84446,-0.833264667734799,0.378667887388417,-0.486579690241856
1580422696.87655,-1.16188296330205,0.131105516136415,-0.55542839703975
1580422696.90864,-0.973403524834058,0.574959945067523,-0.421637293049516
1580422696.94073,-0.817151140611887,0.792736705577173,-0.756115053025102
1580422696.97283,-0.579842832074464,0.575936522468911,-0.648691538872358
1580422697.00492,-0.829846646829939,0.650156404974442,-0.334721904325933
1580422697.03701,-2.91923399710079,-0.207278553444723,0.435797665369648
1580422697.06911,-1.69167620355535,0.133546959639887,-0.123292896925307
1580422697.1012,-1.52468146791791,0.298588540474555,-0.174563210498206
1580422697.13329,-1.27272449835966,0.5769130998703,0.337651636530097
1580422697.16539,-0.906996261539636,0.385015640497443,0.167238879987792
1580422697.19748,-0.606698710612649,0.290287632562752,0.0266117341878385
1580422697.22957,-0.7390249485008,-0.239017318989852,0.438727397573814
1580422697.26166,-1.05006485084306,-0.269779507133594,0.740978103303579
1580422697.29376,0.0817883573662925,-0.0700694285496297,-1.68142214084077
1580422697.32585,-0.812268253604945,0.47583733882658,-0.0905775539787896
1580422697.35794,-1.42360570687419,0.0202639810788128,-0.478767071030747
1580422697.39004,0.2775921263447,2.4993057145037,-1.95486381322957
1580422697.42213,-1.13307392996109,-0.185793850614175,-0.321538109407188
1580422697.45431,-1.88894483863584,-0.568123903257801,0.221927214465552
1580422697.48641,-0.503669794766155,2.72782482642863,-1.26491187914855
1580422697.5185,-1.31276417181659,-0.650156404974441,0.243900205996795
1580422697.55059,-1.30055695429923,-0.855725947966736,-0.483161669336996
1580422697.58269,-1.36452277409018,0.401129167620354,-0.0720225833524069
1580422697.61478,-1.04274052033265,-0.0261234454871442,-0.421149004348822
1580422697.64687,-0.975356679636835,0.0646982528419926,-0.182375829709315
1580422697.67897,-0.692637521934843,0.462653543907834,-0.184817273212786
1580422697.71106,-0.634531166552224,0.370855268177309,-0.355230029755093
1580422697.74315,-1.02613870450904,0.300541695277332,-0.0974135957885096
1580422697.77524,-1.02369726100557,0.191653315022506,-0.193606469825284
1580422697.80734,-1.06813153276875,0.037842374303807,-0.772716868848708
1580422697.83943,-0.499275196459907,0.62134737163348,-0.865491721980622
1580422697.87152,-0.942153047989624,0.3630426489662,-0.711192492561226
1580422697.90362,-1.0554360265507,0.461188677805751,-0.720958266575112
1580422697.93571,-0.676035706111238,0.861585412375067,-0.614999618524452
1580422697.9678,-0.488044556343938,0.837659266041047,-0.760021362630656
1580422697.9999,-0.456794079499504,0.609628442816817,-0.466071564812696
1580422698.03199,-2.80790417334249,0.242923628595406,0.278080415045395
1580422698.06408,-1.84646372167544,-0.0803234912642097,-0.388433661402305
1580422698.09618,-1.72390325780117,0.192141603723201,-0.161867704280155
1580422698.12827,-1.58815899900816,0.361089494163423,0.404547188525214
1580422698.16036,-0.790783550774396,0.553475242236974,0.446540016784922
1580422698.19245,-0.613534752422369,0.433356221866177,0.158449683375295
1580422698.22455,-0.984145876249332,0.512947280079349,0.627206836041811
1580422698.25664,0.0100099183642328,0.436774242771037,-0.899671931029221
1580422698.28873,-0.252689402609294,-0.410894941634242,-0.45288776989395
1580422698.32083,-1.70388342107271,0.421637293049514,0.316655222400243
1580422698.35292,-0.583260852979324,1.54421301594568,-1.37575341420615
1580422698.38501,-0.0725108720531011,0.331792172121766,0.0046387426565957
1580422698.41711,-2.17166399633783,0.354741741054397,-0.0402838178072784
1580422698.4492,-1.1237964446479,0.413824673838405,-0.776134889753568
1580422698.48129,-0.997329671168078,0.905531395437553,-0.0598153658350498
1580422698.51338,-2.24832532234684,-1.60964370183871,0.608163576714734
1580422698.54548,-1.16285954070344,0.420660715648125,-0.36743724727245
1580422698.57757,-1.16432440680552,0.351323720149537,-0.658457312886243
1580422698.60966,-1.02418554970626,-0.340581368734265,-0.183352407110704
1580422698.64176,-0.976821545738918,0.203860532539863,-0.355230029755093
1580422698.67385,-0.761486228732739,0.491950865949491,-0.218509193560692
1580422698.70594,-0.831799801632716,0.27075608453498,0.0207522697795071
1580422698.73813,-0.941176470588236,0.0847180895704582,-0.0466315709163041
1580422698.77022,-0.869398031586176,0.0910658426794839,-0.303959716182193
1580422698.80231,-0.735118638895246,0.199954222934309,-0.762951094834822
1580422698.83441,-0.673105973907072,0.383062485694666,-0.510505836575875
1580422698.8665,-0.988052185854887,0.355718318455786,-0.544686045624475
1580422698.8986,-0.90064850843061,0.486091401541159,-0.640390630960555
1580422698.93069,-0.743419546807049,0.690196078431374,-0.661387045090409
1580422698.96278,-0.669199664301518,0.799572747386893,-0.799084458686199
1580422698.99488,-0.743907835507743,0.985122453650721,-0.426031891355764
1580422699.02697,-2.68192568856336,-0.100343327992675,0.619394216830703
1580422699.05906,-1.74831769283589,0.0993667505912867,-0.334233615625239
1580422699.09116,-1.65749599450675,0.358648050659951,-0.216067750057221
1580422699.12325,-1.43532463569085,0.379156176089111,0.173586633096818
1580422699.15534,-1.03883421072709,0.790295262073702,0.298588540474555
1580422699.18744,-0.640878919661249,0.510994125276572,0.10766765850309
1580422699.21953,-0.800549324788282,0.243900205996795,0.629159990844588
1580422699.25162,-0.902601663233387,-0.596932936598764,-0.274174105439842
1580422699.28372,-0.411383230334936,0.135500114442664,-0.503181506065461
1580422699.31581,-0.309819180590525,0.565682459754331,-0.566659037155718
1580422699.3479,-1.12623788815137,0.031006332494087,-0.50757610437171
1580422699.38,-0.49048599984741,1.71657892729076,-1.75710688944839
1580422699.41209,-0.777111467154956,0.300541695277332,0.0617685206378269
1580422699.44419,-1.95144579232471,-0.34009308003357,0.614023041123065
1580422699.47628,-0.56226443884947,1.92019531548028,-1.78347447928588
1580422699.50837,-1.81228351262684,-1.07545586327916,0.353276874952314
1580422699.54047,-1.15553521019303,-0.747814145113297,-0.604257267109178
1580422699.57256,-1.30446326390478,0.492439154650185,-0.268802929732205
1580422699.60465,-0.944106202792401,0.10083161669337,-0.228274967574578
1580422699.63675,-0.995376516365301,0.205325398641946,0.0915541313801782
1580422699.66884,-0.857679102769513,0.350347142748149,-0.0871595330739297
1580422699.70093,-0.864026855878539,0.135011825741969,-0.302006561379416
1580422699.73303,-0.96900892652781,0.215091172655832,-0.288334477759976
1580422699.76512,-1.22145418478675,0.0935072861829553,-0.272709239337759
1580422699.79721,-0.478767071030747,0.493415732051574,-0.960708018616007
1580422699.82931,-0.753673609521631,0.440192263675897,-0.638925764858472
1580422699.8614,-1.19069199664301,0.275150682841229,-0.38794537270161
1580422699.89349,-0.720958266575112,0.615976195925843,-0.428473334859236
1580422699.92559,-0.80836194399939,0.568123903257803,-0.534431982909895
1580422699.95768,-0.641367208361943,0.444586861982145,-0.556893263141832
1580422699.98978,-0.638437476157778,0.544197756923783,-0.36743724727245
1580422700.02191,-2.08474860761425,0.0607919432364383,0.0573739223315783
1580422700.054,-1.82302586404212,0.662851911192494,-0.177004654001678
1580422700.0861,-1.77761501487755,0.32202639810788,0.134523537041275
1580422700.11819,-1.41969939726864,0.658457312886245,0.355230029755091
1580422700.15029,-1.06276035706111,0.699961852445259,0.0979018844892039
1580422700.18238,-0.707774471656366,0.199465934233615,-0.0783703364614325
1580422700.21447,-0.627695124742504,-0.185305561913481,-0.121828030823224
1580422700.24657,-0.716563668268863,-0.760021362630656,0.00903334096284425
1580422700.27866,-0.848401617456322,0.683360036621654,0.460700389105057
1580422700.31075,-0.00170901045242999,0.264896620126649,-1.26491187914855
1580422700.34285,-0.917250324254216,1.00270084687572,-0.113527122911421
1580422700.37494,-0.727794308384832,0.812756542305639,-0.96559090562295
1580422700.40703,-0.38794537270161,0.294193942168306,-0.0397955291065841
1580422700.43913,-2.23270008392462,-0.373296711680782,0.0813000686655982
1580422700.47122,-0.706309605554283,2.26150911726558,-1.55886167696651
1580422700.50331,-1.53102922102693,-0.802014190890365,0.0578622110322726
1580422700.53541,-1.3972381170367,-0.665293354695963,-0.263920042725262
1580422700.5675,-1.34157320515755,0.221927214465552,-0.193118181124589
1580422700.59959,-1.10084687571527,0.0290531776913099,-0.320561532005799
1580422700.63169,-1.00856031128405,0.264896620126649,-0.0700694285496297
1580422700.66378,-0.824475471122302,0.286869611657892,-0.174074921797512
1580422700.69587,-0.756603341725796,0.224856946669718,-0.204837109941252
1580422700.72797,-0.918715190356298,0.0949721522850382,-0.305912870984971
1580422700.76006,-0.85279621576257,-0.0334477759975584,-0.312748912794691
1580422700.79216,-0.636484321355001,0.33228046082246,-0.470466163118944
1580422700.82425,-0.775158312352179,0.480231937132828,-0.320561532005799
1580422700.85634,-1.10865949492637,0.439703974975203,-0.40845349813077
1580422700.88844,-1.03590447852293,0.361577782864117,-0.383062485694667
1580422700.92053,-0.992446784161135,0.5769130998703,-0.776134889753568
1580422700.95262,-0.717540245670252,0.532967116807814,-0.781994354161899
1580422700.98472,-0.44605172808423,0.679942015716794,-0.534431982909895
1580422701.01681,-1.46608682383459,0.447516594186311,0.0202639810788128
1580422701.0489,-2.17215228503853,0.031006332494087,-0.305424582284276
1580422701.081,-1.57839322499428,0.481208514534217,0.0236820019836728
1580422701.11309,-1.37428854810407,0.364507515068283,0.037842374303807
1580422701.14518,-1.31569390402075,0.466559853513388,0.493904020752268
1580422701.17728,-0.803479056992447,0.3117723353933,-0.131105516136415
1580422701.20937,-0.7219348439765,0.0944838635843439,-0.150148775463492
1580422701.24146,-0.759533073929962,-0.782970931563288,0.0461432822156098
1580422701.27356,-1.33131914244297,0.232181277180132,0.977309834439613
1580422701.30575,0.0715342946517126,0.412848096437017,-1.48024719615473
1580422701.33785,-0.799572747386893,0.802502479591059,-0.0842298008697639
1580422701.36994,-0.882581826504921,0.882581826504921,-1.0129549095903
1580422701.40204,-0.0842298008697639,0.667246509498742,0.00854505226214997
1580422701.43413,-2.62967879758907,-0.41528953994049,0.375249866483557
1580422701.46622,-0.516365300984207,2.498817425803,-2.30496681162738
1580422701.49832,-1.64431219958801,-0.350835431448845,0.0490730144197755
1580422701.53041,-1.76247806515602,-1.53444724193179,0.067139696345464
1580422701.56251,-1.3117875944152,0.380621042191194,-0.249759670405126
1580422701.5946,-1.24928664072633,-0.0324711985961699,-0.205325398641946
1580422701.62669,-1.0554360265507,0.129640650034332,-0.120363164721141
1580422701.65879,-0.905043106736859,0.185305561913481,-0.173586633096818
1580422701.69088,-0.729259174486915,0.137941557946135,-0.343022812237736
1580422701.72298,-0.812756542305639,0.208743419546806,-0.182375829709315
1580422701.75507,-1.06324864576181,0.201419089036392,-0.107179369802395
1580422701.78716,-0.708751049057755,0.189211871519035,-0.47339589532311
1580422701.81926,-0.738048371099412,0.463141832608528,-0.759044785229268
1580422701.85135,-1.0207675288014,0.373785000381474,-0.228763256275272
1580422701.88345,-1.03150988021668,0.261966887922483,-0.388433661402305
1580422701.91554,-0.97584496833753,0.348882276646066,-0.351812008850233
1580422701.94763,-0.857190814068819,0.657480735484857,-0.67750057221332
1580422701.97973,-0.516365300984207,0.662363622491799,-0.866956588082704
1580422702.01182,-0.598397802700847,0.539803158617534,-0.315678644998856
1580422702.04392,-2.12576485847257,0.149660486762798,0.157473105973907
1580422702.07601,-1.90652323186084,0.470466163118942,-0.364995803768979
1580422702.1081,-1.88503852903029,0.0939955748836496,-0.00805676356145568
1580422702.1402,-1.5080796520943,0.725841153582056,0.415777828641183
1580422702.17229,-0.98951705195697,0.759533073929962,0.181887541008621
1580422702.20439,-0.616464484626535,0.320073243305103,-0.067139696345464
1580422702.23648,-0.582284275577935,-0.10424963759823,0.112550545510032
1580422702.26857,-0.919691767757687,-0.987563897154192,0.0222171358815899
1580422702.30067,-0.0383306630045013,0.571541924162663,-0.529060807202258
1580422702.33276,-0.359624628061342,0.364995803768977,-0.819104295414665
1580422702.36486,-1.43825436789502,0.0891126878767068,-0.208743419546806
1580422702.39695,-0.167727168688486,2.08963149462119,-2.49198138399329
1580422702.42904,-1.12233157854581,0.0920424200808725,0.102784771496147
1580422702.46114,-1.83181506065461,-0.545662623025864,0.242923628595406
1580422702.49323,-0.695567254139009,2.00808728160525,-1.18629739833677
1580422702.52533,-1.39137865262837,-0.498786907759213,0.0192874036774242
1580422702.55742,-1.320088502327,-0.864026855878539,-0.260502021820402
1580422702.5896,-1.20192263675898,0.329839017318989,-0.291264209964142
1580422702.62169,-1.05934233615625,0.0104982070649271,-0.291752498664836
1580422702.65379,-0.970962081330587,0.106202792401007,-0.176516365300984
1580422702.68588,-0.812268253604945,0.40064087891966,-0.0109864957656214
1580422702.71797,-0.821057450217442,0.167727168688486,-0.302494850080111
1580422702.75007,-0.974868390936141,0.127687495231555,-0.202883955138475
1580422702.78216,-1.02516212710765,0.257572289616235,-0.0905775539787896
1580422702.81426,-0.710215915159838,0.361089494163423,-0.47681391622797
1580422702.84635,-0.739513237201495,0.450446326390477,-0.73218890669108
1580422702.87844,-1.13502708476387,0.190676737621118,-0.536873426413367
1580422702.91054,-0.981704432745861,0.288334477759975,-0.630624856946669
1580422702.94263,-0.872816052491036,0.758068207827879,-0.421149004348822
1580422702.97473,-0.78785381857023,0.715098802166782,-0.728282597085526
1580422703.00682,-0.498786907759213,0.500740062561992,-0.383550774395362
1580422703.03891,-1.30983443961242,0.175051499198901,-0.0510261692225527
1580422703.07101,-2.05008010986496,0.487067978942548,-0.301518272678722
1580422703.1031,-1.97195391775387,0.509040970473794,0.0168459601739528
1580422703.1352,-1.55446707866026,0.528084229800871,0.140383001449607
1580422703.16729,-1.13893339436942,0.695567254139011,0.228763256275272
1580422703.19938,-0.922621499961853,0.231692988479438,-0.0393072404058898
1580422703.23148,-0.808850232700085,-0.213626306553749,-0.140383001449607
1580422703.26357,-0.899671931029221,-0.997817959868772,0.250736247806515
1580422703.29567,-0.0373540856031127,1.23903257801175,0.612069886320288
1580422703.32776,-0.118410009918364,0.122316319523918,-1.01197833218891
1580422703.35985,-1.20094605935759,0.889417868314641,-0.157961394674601
1580422703.39195,-0.79810788128481,0.92115663385977,-1.11842526894026
1580422703.42404,-0.399176012817579,0.561287861448083,0.0822766460669868
1580422703.45614,-2.48612191958495,-0.00854505226214997,0.0163576714732585
1580422703.48823,-0.748790722514686,1.13893339436942,-1.43239490348669
1580422703.52032,-1.0207675288014,1.14576943617914,-0.188235294117646
1580422703.55242,-1.8752727550164,-1.52272831311513,0.6281834134432
1580422703.58451,-1.07985046158541,-0.204837109941252,-0.86305027847715
1580422703.61661,-1.27467765316243,0.3117723353933,-0.139406424048218
1580422703.6487,-0.978774700541695,-0.0432135500114441,-0.295658808270391
1580422703.68079,-0.967055771725033,0.57007705806058,0.195559624628061
1580422703.71289,-0.78443579766537,0.23315785458152,-0.266849774929428
1580422703.74498,-0.836682688639659,0.099855039291981,-0.257572289616236
1580422703.77708,-1.01149004348821,0.070557717250324,-0.155519951171129
1580422703.80917,-1.00758373388266,0.0422369726100555,-0.185793850614175
1580422703.84126,-0.862073701075762,0.26392004272526,-0.609628442816815
1580422703.87338,-0.760997940032045,0.560311284046694,-0.611581597619592
1580422703.90548,-1.00563057907988,0.334721904325932,-0.40845349813077
1580422703.93757,-0.971450370031281,0.230716411078049,-0.506111238269627
1580422703.96966,-0.946547646295873,0.567147325856414,-0.437750820172427
1580422704.00176,-0.838147554741742,0.594979781795988,-0.643808651865415
1580422704.03385,-0.466071564812696,0.55298695353628,-0.591073472190432
1580422704.06595,-0.892835889219501,0.5427328908217,-0.103273060196841
1580422704.09804,-2.80497444113832,-0.105226214999618,0.0202639810788128
1580422704.13013,-1.73708705271992,0.471442740520331,0.0349126420996413
1580422704.16223,-1.64333562218662,0.285404745555809,0.183840695811398
1580422704.19432,-1.18385595483329,0.678965438315405,0.340093080033569
1580422704.22642,-0.911390859845884,0.328374151216906,0.0178225375753414
1580422704.25851,-0.533455405508507,0.184328984512092,-0.10766765850309
1580422704.2906,-0.572030212863355,-0.41870756084535,0.23315785458152
1580422704.3227,-0.89039444571603,-0.627206836041809,0.436774242771037
1580422704.35479,-0.0817883573662925,0.225833524071106,-0.888929579613947
1580422704.38689,-0.883070115205616,0.670664530403602,-0.381597619592585
1580422704.41898,-1.28883802548257,0.630136568245977,-0.40845349813077
1580422704.45107,0.204837109941252,1.54616617074846,-1.31032272831312
1580422704.48317,-1.69265278095674,0.00659189745937283,-0.388433661402305
1580422704.51526,-1.43923094529641,0.0139162279697871,-0.176516365300984
1580422704.54736,-0.611581597619592,2.14773785000381,-1.4655985351339
1580422704.57945,-1.48366521705959,-0.465583276112001,0.464606698710611
1580422704.61154,-1.21901274128328,-0.529060807202258,-0.547615777828641
1580422704.64364,-1.26784161135271,0.179934386205844,-0.278568703746091
1580422704.67573,-1.13649195086595,-0.112550545510032,-0.232669565880826
1580422704.70783,-0.998306248569467,0.0437018387121384,-0.2434119172961
1580422704.73992,-0.843030441748684,0.34937056534676,-0.096437018387121
1580422704.77201,-0.826428625925079,0.173586633096818,-0.230716411078049
1580422704.80411,-0.911879148546578,0.118410009918364,-0.201907377737086
1580422704.8362,-0.855237659266042,0.28784618905928,-0.096437018387121
1580422704.8683,-0.833264667734799,0.217532616159303,-0.663828488593881
1580422704.90039,-0.71509880216678,0.536385137712674,-0.724376287479972
1580422704.93248,-1.17360189211871,0.321049820706492,-0.258060578316931
1580422704.96458,-0.956313420309758,0.31860837720302,-0.386968795300222
1580422704.99667,-0.95533684290837,0.52906080720226,-0.51441214618143
1580422705.02877,-0.91090257114519,0.562752727550166,-0.688731212329289
1580422705.06086,-0.557869840543221,0.44507515068284,-0.590096894789044
1580422705.09295,-0.746349279011215,0.394781414511328,-0.295170519569696
1580422705.12505,-2.65555809872587,0.125246051728084,0.396246280613411
1580422705.1572,-1.73562218661784,0.330327306019683,-0.407965209430076
1580422705.18929,-1.62282749675746,0.340093080033569,0.0388189517051956
1580422705.22139,-1.31715877012284,0.759533073929962,0.388433661402303
1580422705.25348,-0.973891813534753,0.36646066987106,0.143801022354467
1580422705.28557,-0.733165484092469,0.164797436484321,0.134035248340581
1580422705.31767,-0.655527580682078,-0.575936522468909,-0.0437018387121384
1580422705.34976,-1.27223620965896,-0.563729304951552,0.603768978408485
1580422705.38186,-0.0764171816586554,0.430914778362705,-0.990005340657664
1580422705.41395,-0.714610513466086,0.678477149614711,-0.395757991912719
1580422705.44605,-1.17067215991455,0.285404745555809,-0.42554360265507
1580422705.47814,0.168703746089875,1.58278782330053,-0.56910048065919
1580422705.51023,-2.1575036240177,-0.122316319523918,-0.307866025787748
1580422705.54233,-0.884534981307699,0.891371023117419,-1.18629739833677
1580422705.57442,-1.3034866865034,0.510017547875183,0.477790493629357
1580422705.60652,-1.93826199740597,-1.34743266956588,0.250736247806515
1580422705.63861,-1.16383611810483,0.427008468757151,-0.40161745632105
1580422705.67071,-1.18483253223468,0.158449683375295,-0.293217364766919
1580422705.7028,-0.906019684138247,-0.0583504997329669,-0.205325398641946
1580422705.7349,-1.01197833218891,0.237552452887769,-0.165774013885709
1580422705.76699,-0.820080872816053,0.0910658426794839,-0.210208285648889
1580422705.79908,-0.86646829938201,0.131593804837109,-0.205813687342641
1580422705.83118,-1.11256580453193,0.247318226901655,-0.171633478294041
1580422705.86327,-0.635019455252918,0.462653543907834,-0.431403067063401
1580422705.89537,-0.574471656366827,0.639414053559168,-0.704356450751506
1580422705.92746,-1.13307392996109,0.12475776302739,-0.512947280079347
1580422705.95956,-1.03346303501946,0.130128938735027,-0.43579766536965
1580422705.99165,-0.95191882200351,0.565194171053637,-0.290287632562753
1580422706.02375,-0.928969253070878,0.65552758068208,-0.720469977874417
1580422706.05584,-0.622812237735561,0.501228351262686,-0.675547417410543
1580422706.08794,-0.832776379034105,0.355718318455786,-0.197512779430838
1580422706.12003,-2.15310902571145,0.123292896925307,0.254154268711375
1580422706.15212,-1.75661860074769,0.715098802166782,-0.170656900892652
1580422706.18422,-1.64870679789425,0.294682230869,0.0852063782711525
1580422706.21631,-1.31960021362631,0.625741969939728,0.354741741054397
1580422706.24841,-1.0124666208896,0.415777828641183,0.11450370031281
1580422706.2805,-0.671641107804989,0.121828030823224,-0.0754406042572668
1580422706.3126,-0.581307698176547,-0.226810101472495,-0.0427252613107498
1580422706.34469,-1.08326848249027,-0.681895170519569,0.584725719081408
1580422706.37679,-0.135500114442664,0.809826810101473,-0.234134431982909
1580422706.40888,-0.316166933699551,0.00903334096284425,-1.29909208819715
1580422706.44107,-1.3547570000763,0.531990539406426,0.138429846646829
1580422706.47317,-0.185305561913481,1.95339894712749,-2.56864271000229
1580422706.50526,-0.936293583581293,0.276615548943312,-0.000732433051041426
1580422706.53735,-2.17166399633783,-0.7048447394522,0.601327534905014
1580422706.56945,-0.841077286945907,1.33034256504158,-1.64528877698939
1580422706.60154,-1.36598764019226,0.0905775539787896,0.362554360265506
1580422706.63364,-1.41335164415961,-1.04957656214237,-0.0354009308003356
1580422706.66573,-1.15553521019303,0.251712825207903,-0.320073243305105
1580422706.69783,-1.19703974975204,0.0114747844663157,-0.177492942702372
1580422706.72992,-0.971938658731975,-0.0383306630045013,-0.281010147249562
1580422706.76201,-0.809826810101473,0.376226443884946,-0.169192034790569
1580422706.79411,-0.742931258106355,0.239017318989852,-0.202395666437781
1580422706.8262,-0.903089951934081,0.229739833676661,-0.198489356832226
1580422706.8583,-0.995376516365301,0.168703746089875,-0.102296482795452
1580422706.89039,-0.925062943465324,0.125246051728084,-0.559822995345998
1580422706.92249,-0.679453727016098,0.402105745021743,-0.76734569314107
1580422706.95458,-1.10524147402151,0.411871519035628,-0.299076829175251
1580422706.98668,-1.06227206836042,0.306401159685663,-0.398687724116884
1580422707.01877,-1.03492790112154,0.424078736552985,-0.464118410009918
1580422707.05086,-0.868909742885482,0.608651865415428,-0.631113145647364
1580422707.08296,-0.416266117341879,0.459235523002974,-0.639902342259861
1580422707.11505,-0.843518730449379,0.661875333791105,-0.162355992980849
1580422707.14715,-2.45340657663844,-0.635019455252918,0.30493629358358
1580422707.17924,-1.55446707866026,0.392828259708551,-0.293705653467613
1580422707.21134,-1.57009231708247,0.446051728084228,0.207766842145418
1580422707.24343,-1.22194247348745,0.418219272144654,0.369390402075226
1580422707.27553,-0.834241245136187,0.64869153887236,0.269291218432897
1580422707.30762,-0.518806744487678,0.222415503166246,-0.289799343862059
1580422707.33972,-0.672617685206378,-0.177492942702372,-0.36401922636759
1580422707.37181,-1.1745784695201,-1.05201800564584,0.000732433051041426
1580422707.4039,-1.02027924010071,0.361089494163423,0.800549324788282
1580422707.436,0.0954604409857325,0.389898527504386,-1.81179522392615
1580422707.46809,-1.24098573281453,1.28737315938048,0.301029983978026
1580422707.50019,-0.32642099641413,1.35378042267491,-1.74392309452964
1580422707.53228,-1.41774624246586,0.031006332494087,-0.0832532234683754
1580422707.56438,-1.49733730067903,-0.324467841611353,-0.409918364232853
1580422707.59647,-0.218997482261386,2.00076295109483,-0.35034714274815
1580422707.62857,-2.2175631342031,-1.16041809719997,0.431891355764094
1580422707.66066,-1.00514229037919,-0.070557717250324,-0.328862439917602
1580422707.69275,-1.59548332951858,0.0876478217746239,-0.193118181124589
1580422707.72485,-0.998306248569467,-0.0778820477607383,-0.244388494697489
1580422707.75695,-0.99977111467155,0.182864118410009,-0.209719996948195
1580422707.78904,-0.792248416876479,0.249759670405126,-0.314213778896773
1580422707.82114,-0.762462806134128,0.275638971541923,-0.188235294117646
1580422707.85323,-0.999282825970855,0.300541695277332,-0.303471427481499
1580422707.88533,-0.946059357595178,0.144289311055161,-0.254642557412071
1580422707.91742,-0.611581597619592,0.289799343862057,-0.688731212329289
1580422707.94951,-0.91432059205005,0.378667887388417,-0.512458991378653
1580422707.98161,-1.01490806439307,0.378179598687723,-0.53492027161059
1580422708.0137,-0.867933165484093,0.477302204928662,-0.249271381704432
1580422708.0458,-0.88014038300145,0.625741969939728,-0.566170748455024
1580422708.07789,-0.696543831540398,0.415289539940488,-0.6877546349279
1580422708.10999,-0.430914778362707,0.444098573281451,-0.485114824139773
1580422708.14208,-1.74978255893797,0.30151827267872,0.0876478217746239
1580422708.17418,-1.95632867933165,0.0861829556725411,-0.258060578316931
1580422708.20627,-1.74050507362478,0.538826581216146,-0.0266117341878385
1580422708.23836,-1.54860761425193,0.381597619592583,0.212161440451666
1580422708.27046,-1.21510643167773,0.510017547875183,0.171145189593346
1580422708.30255,-0.779064621957733,0.392339971007857,-0.0373540856031127
1580422708.33465,-0.627206836041809,0.259525444419012,-0.0349126420996413
1580422708.36674,-0.661387045090409,-0.145754177157244,0.402105745021743
1580422708.39884,-1.0642252231632,-0.759533073929962,0.372808422980086
1580422708.43093,-0.164309147783626,0.0627450980392155,-0.935317006179904
1580422708.46303,-0.533455405508507,0.790295262073702,-0.592538338292515
1580422708.49512,-1.1750667582208,0.33911650263218,-0.527595941100175
1580422708.52722,0.0944838635843439,1.89187457084001,-1.67995727473869
1580422708.55931,-1.8669718471046,0.147219043259327,-0.220462348363469
1580422708.5914,-1.07887388418402,0.52222476539254,-0.887953002212559
1580422708.6235,-0.811291676203556,1.19313344014649,0.153078507667658
1580422708.65559,-2.44266422522316,-1.95046921492332,0.489021133745325
1580422708.68769,-1.12086671244373,0.0402838178072784,-0.56910048065919
1580422708.71978,-1.2946974898909,0.43823910887312,-0.198489356832226
1580422708.75188,-0.921644922560464,-0.0979018844892039,-0.226810101472495
1580422708.78397,-0.998794537270161,0.155031662470435,-0.124269474326695
1580422708.81606,-0.713145647364003,0.238040741588463,-0.279545281147479
1580422708.84816,-0.707286182955672,0.240970473792629,-0.179934386205844
1580422708.88025,-0.958266575112535,0.227786678873883,-0.142824444953078
1580422708.91235,-1.05592431525139,0.110597390707255,-0.198001068131532
1580422708.94444,-0.733165484092469,0.273685816739146,-0.571053635461967
1580422708.97654,-0.85621423666743,0.5940032043946,-0.484626535439078
1580422709.0087,-1.07008468757153,0.208255130846112,-0.45630579079881
1580422709.04079,-1.02516212710765,0.205813687342641,-0.434332799267567
1580422709.07289,-0.945571068894484,0.568612191958497,-0.400640878919662
1580422709.10498,-0.830334935530633,0.643320363164722,-0.71168078126192
1580422709.13707,-0.488532845044633,0.580819409475854,-0.705821316853589
1580422709.16917,-0.954848554207675,0.547127489127949,-0.253177691309988
1580422709.20126,-2.45389486533913,-0.10424963759823,0.0397955291065841
1580422709.23336,-1.86501869230182,0.178957808804455,0.0139162279697871
1580422709.26545,-1.51149767299916,0.256107423514152,0.00952162966353853
1580422709.29755,-1.19850461585412,0.772716868848708,0.30151827267872
1580422709.32964,-0.757579919127185,0.613534752422371,0.153566796368352
1580422709.36174,-0.572030212863355,0.405523765926603,-0.099855039291981
1580422709.39383,-0.637460898756389,-0.222415503166246,0.292240787365529
1580422709.42593,-1.07447928587777,-0.917250324254216,0.0715342946517126
1580422709.45802,-0.396734569314107,-0.0280766002899213,-1.05348287174792
1580422709.49011,-1.01051346608682,0.826916914625773,-0.318608377203022
1580422709.52221,-1.15309376668955,0.31519035629816,-0.679453727016098
1580422709.5543,0.279545281147477,2.04861524376287,-0.990005340657664
1580422709.5864,-2.00466926070039,-0.761974517433433,-0.194094758525978
1580422709.61849,-0.98268101014725,0.956801709010453,-1.27272449835966
1580422709.65059,-0.191653315022506,1.0637369344625,0.0271000228885327
1580422709.68268,-2.40653086137179,-1.70974288548104,0.886488136110476
1580422709.71478,-0.98268101014725,0.0158693827725642,-0.559334706645304
1580422709.74687,-1.45827420462348,0.228274967574578,-0.0959487296864268
1580422709.77896,-0.810315098802167,0.184328984512092,-0.408941786831464
1580422709.81106,-0.93482871747921,0.375738155184251,0.0251468680857556
1580422709.84315,-0.91090257114519,0.223392080567635,-0.157961394674601
1580422709.87525,-0.875745784695201,-0.024170290684367,-0.229739833676661
1580422709.90734,-1.04176394293126,0.0744640268558783,-0.284916456855116
1580422709.93944,-0.994399938963912,0.120851453421835,-0.238040741588463
1580422709.97153,-0.52124818799115,0.394781414511328,-0.646738384069581
1580422710.00363,-0.935805294880598,0.446540016784922,-0.610116731517509
1580422710.03572,-0.990005340657664,0.321049820706492,-0.397222858014802
1580422710.06781,-0.714122224765392,0.403570611123826,-0.489509422446021
1580422710.09991,-0.911879148546578,0.642343785763334,-0.766369115739682
1580422710.132,-0.770275425345236,0.697520408941788,-0.630136568245975
1580422710.1641,-0.69117265583276,0.714122224765394,-0.225345235370412
1580422710.19619,-2.30350194552529,-0.143312733653772,0.209719996948195
1580422710.22829,-1.7473411154345,0.789318684672313,-0.132082093537804
1580422710.26038,-1.70388342107271,0.184328984512092,0.0515144579232469
1580422710.29257,-1.3371786068513,0.595956359197377,0.324956130312046
1580422710.32467,-0.971938658731975,0.57349507896544,0.0642099641412983
1580422710.35676,-0.620370794232089,0.192141603723201,-0.178469520103761
1580422710.38886,-0.614511329823758,-0.108155947203784,0.0109864957656214
1580422710.42095,-0.922133211261158,-0.818127718013276,0.414801251239794
1580422710.45305,-0.804455634393836,0.553475242236974,0.753673609521631
1580422710.48514,-0.125734340428778,0.00610360875867855,-1.27467765316243
1580422710.51724,-1.22829022659647,0.608651865415428,-0.234134431982909
1580422710.54933,-0.928480964370184,1.38893720912489,-1.14235141527428
1580422710.58143,0.0959487296864268,0.663340199893188,-0.442145418478676
1580422710.61352,-2.75272755016404,-0.46655985351339,0.241458762493323
1580422710.64562,-0.743907835507743,0.559334706645306,-1.05152971694514
1580422710.67771,-0.793713282978562,1.32057679102769,0.112062256809338
1580422710.70981,-1.88650339513237,-1.28786144808118,0.687754634927902
1580422710.7419,-1.04518196383612,0.0202639810788128,-0.668711375600823
1580422710.774,-1.33180743114366,0.063721675440604,-0.266849774929428
1580422710.80609,-0.936781872281987,-0.153078507667658,-0.201419089036392
1580422710.83819,-0.977309834439613,0.220462348363469,-0.218020904859998
1580422710.87028,-0.812268253604945,0.313237201495383,-0.157961394674601
1580422710.90238,-0.961684596017395,-0.0285648889906156,-0.198489356832226
1580422710.93447,-0.946059357595178,0.191653315022506,-0.224856946669718
1580422710.96657,-0.837659266041047,0.302494850080109,-0.213626306553749
1580422710.99866,-0.767833981841765,0.557869840543223,-0.602792401007095
1580422711.03076,-0.897718776226444,0.412359807736323,-0.56568245975433
1580422711.06285,-1.09987029831388,-0.0168459601739528,-0.462653543907836
1580422711.09495,-0.969985503929198,0.651621271076525,-0.338628213931488
1580422711.12704,-0.84937819485771,0.532967116807814,-0.744884412909132
1580422711.15913,-0.687266346227206,0.499763485160599,-0.737560082398717
1580422711.19123,-0.600350957503624,0.688242923628597,-0.415777828641184
1580422711.22333,-1.99929808499275,0.255619134813458,0.275150682841229
1580422711.25542,-1.92312504768444,0.516853589684903,-0.472419317921721
1580422711.28751,-1.66335545891508,0.411383230334934,-0.00366216525520713
1580422711.31961,-1.30251010910201,0.669199664301519,0.196047913328755
1580422711.3517,-1.11061264972915,0.439703974975203,0.375249866483557
1580422711.3838,-0.688731212329289,0.172610055695429,0.041260395208667
1580422711.41589,-0.512458991378653,-0.0686045624475469,-0.173586633096818
1580422711.44799,-0.793713282978562,-1.23121995880064,-0.0134279392690928
1580422711.48008,-1.0554360265507,0.478767071030745,0.788342107270925
1580422711.51218,0.0520027466239412,0.276127260242617,-1.40407415884642
1580422711.54428,-1.01100175478752,1.15846494239719,-0.00659189745937283
1580422711.57648,-0.608163576714732,1.75466544594492,-1.88601510643168
1580422711.60857,-0.382574196993973,0.270267795834286,0.0983901731898982
1580422711.64067,-2.81425192645152,-0.983169298847944,0.930434119172961
1580422711.67276,-0.597421225299458,1.7649195086595,-2.10232700083925
1580422711.70486,-1.47243457694362,0.159426260776684,0.261966887922483
1580422711.73695,-1.51491569390402,-1.2863965819791,0.0109864957656214
1580422711.76905,-1.1662775616083,0.197512779430838,-0.405523765926604
1580422711.80114,-1.19362172884718,0.0769054703593497,-0.0075684748607614
1580422711.83324,-0.937270160982681,0.0280766002899213,-0.220950637064163
1580422711.86533,-0.91090257114519,0.246341649500266,-0.11450370031281
1580422711.89743,-0.864515144579233,0.105714503700312,-0.156496528572518
1580422711.92952,-1.01100175478752,0.109620813305867,-0.0886243991760125
1580422711.96162,-1.03492790112154,0.11792172121767,-0.128175783932249
1580422711.99371,-0.758556496528573,0.171633478294041,-0.601815823605707
1580422712.02581,-0.714610513466086,0.416266117341877,-0.747814145113297
1580422712.0579,-1.00172426947433,0.398687724116883,-0.349858854047456
1580422712.09,-1.0212558175021,0.364507515068283,-0.385015640497445
1580422712.12209,-1.00074769207294,0.487067978942548,-0.296147096971085
1580422712.15419,-0.89039444571603,0.664316777294577,-0.737560082398717
1580422712.18628,-0.522224765392538,0.482673380636299,-0.760021362630656
1580422712.21838,-0.803967345693142,0.633554589150837,-0.267826352330816
1580422712.25047,-2.17850003814755,0.0695811398489354,0.212161440451666
1580422712.28257,-1.85329976348516,0.261478599221789,-0.302006561379416
1580422712.31466,-1.7048599984741,0.28784618905928,0.164309147783626
1580422712.34676,-1.30885786221103,0.5427328908217,0.119386587319752
1580422712.37885,-1.08033875028611,0.387457084000914,0.188235294117646
1580422712.41095,-0.642832074464026,0.23999389639124,0.00122072175173571
1580422712.44304,-0.589608606088349,-0.0583504997329669,0.148683909361409
1580422712.47513,-0.990005340657664,-0.824963759822996,0.249271381704432
1580422712.50723,-0.385992217898833,0.577889677271688,0.185305561913481
1580422712.53932,-0.115480277714198,0.337163347829403,-1.18629739833677
1580422712.57142,-1.25465781643397,0.420660715648125,-0.144777599755855
1580422712.60351,-0.258548867017625,1.72780956740673,-2.25809109636072
1580422712.63561,-1.49001297016861,-0.0187991149767299,0.107179369802395
1580422712.6677,-1.69411764705882,0.0651865415426869,-0.185793850614175
1580422712.6998,-0.357671473258565,2.1404135194934,-0.39478141451133
1580422712.73189,-2.07156481269551,-1.45973907072557,0.408453498130768
1580422712.76399,-1.1662775616083,-0.251224536507211,-0.51441214618143
1580422712.79608,-1.52370489051652,0.203372243839169,-0.2434119172961
1580422712.82818,-0.954848554207675,0.0798352025635154,-0.240482185091935
1580422712.86029,-1.04176394293126,0.228763256275272,-0.112550545510032
1580422712.89239,-0.827893492027162,0.26392004272526,-0.242435339894712
1580422712.92448,-0.772228580148013,0.198977645532921,-0.199954222934309
1580422712.95657,-0.917250324254216,0.212649729152361,-0.210208285648889
1580422712.98867,-0.797619592584116,0.217532616159303,-0.256595712214848
1580422713.02076,-0.656992446784161,0.271732661936369,-0.594979781795987
1580422713.05286,-0.95191882200351,0.265384908827343,-0.515388723582818
1580422713.08495,-1.07985046158541,0.395757991912717,-0.48023193713283
1580422713.11705,-0.836682688639659,0.398687724116883,-0.245365072098878
1580422713.14914,-0.95191882200351,0.575448233768217,-0.6877546349279
1580422713.18124,-0.813244831006333,0.554451819638363,-0.697520408941786
1580422713.21334,-0.591073472190432,0.57349507896544,-0.545662623025864
1580422713.24543,-1.31618219272145,0.294682230869,-0.101319905394064
1580422713.27752,-2.36844434271763,-0.0363775082017241,-0.0305180437933927
1580422713.30962,-1.72097352559701,0.212649729152361,0.0783703364614325
1580422713.34171,-1.4651102464332,0.45874723430228,0.127687495231555
1580422713.37381,-1.15455863279164,0.647714961470971,0.172121766994735
1580422713.4059,-0.736583504997329,0.358648050659951,-0.00219729915312428
1580422713.438,-0.665293354695963,0.25708400091554,0.0793469138628211
1580422713.47009,-0.726329442282749,-0.475837338826581,0.183352407110704
1580422713.50219,-1.10231174181735,-0.327885862516213,0.140383001449607
1580422713.53428,-0.0607919432364383,0.237064164187075,-0.92115663385977
1580422713.56638,-0.860120546272984,0.648203250171665,-0.281986724650951
1580422713.59847,-0.765392538338293,1.42311741817349,-1.03932249942779
1580422713.63057,0.0749523155565726,0.656015869382774,-0.510505836575875
1580422713.66266,-2.76102845807584,-0.570077058060578,0.163332570382238
1580422713.69476,-0.793713282978562,0.971450370031281,-1.40700389105058
1580422713.72685,-0.990981918059052,0.920668345159076,0.142824444953078
1580422713.75895,-2.11599908445869,-1.20436408026245,0.761974517433433
1580422713.79104,-1.13307392996109,-0.0690928511482412,-0.529060807202258
1580422713.82314,-1.54421301594568,0.189211871519035,-0.0803234912642097
1580422713.85523,-0.923598077363241,-0.142336156252384,-0.429938200961319
1580422713.88733,-1.06959639887083,0.254642557412069,-0.142824444953078
1580422713.91942,-0.821057450217442,0.310795757991912,-0.295170519569696
1580422713.95152,-0.789318684672313,0.158449683375295,-0.210696574349583
1580422713.98361,-0.961196307316701,0.190188448920424,-0.323491264209965
1580422714.01571,-0.931898985275044,0.216067750057221,-0.245365072098878
1580422714.0478,-0.640390630960555,0.486091401541159,-0.42212558175021
1580422714.0799,-0.803967345693142,0.315678644998854,-0.488532845044633
1580422714.11199,-1.12233157854581,0.220950637064163,-0.299076829175251
1580422714.14419,-0.98609903105211,0.325932707713434,-0.290775921263448
1580422714.17629,-1.00807202258335,0.548592355230031,-0.612558175020981
1580422714.20839,-0.786388952468148,0.486091401541159,-0.639414053559166
1580422714.24048,-0.520759899290455,0.557869840543223,-0.610605020218204
1580422714.27258,-1.14723430228122,0.440680552376591,-0.141359578850995
1580422714.30467,-2.41678492408637,-0.0290531776913099,0.00561532005798426
1580422714.33677,-1.68044556343938,0.433356221866177,-0.00610360875867855
1580422714.36886,-1.52809948882277,0.293705653467612,0.183840695811398
1580422714.40096,-1.22145418478675,0.607186999313345,0.306889448386357
1580422714.43305,-0.819104295414665,0.422125581750208,0.0842298008697639
1580422714.46515,-0.619882505531395,0.169192034790569,-0.216067750057221
1580422714.49724,-0.516365300984207,-0.553963530937667,-0.174563210498206
1580422714.52934,-1.4743877317464,-0.854749370565347,0.886488136110476
1580422714.56144,-0.214114595254443,0.53247882810712,-0.475837338826581
1580422714.59353,-0.477790493629358,0.704356450751508,-1.14821087968261
1580422714.62563,-1.50563820859083,0.312260624093994,-0.184817273212786
1580422714.65772,-0.0500495918211641,1.66921492332342,-1.23903257801175
1580422714.68982,-1.97439536125734,-0.101808194094758,-0.31958495460441
1580422714.72191,-0.989028763256275,0.59742122529946,-1.05006485084306
1580422714.75401,-0.420660715648127,1.38112458991379,0.102296482795452
1580422714.7861,-2.28934157320516,-1.81179522392615,0.709239337758451
1580422714.8182,-0.99635309376669,0.0485847257190812,-0.545662623025864
1580422714.85029,-1.34694438086519,0.314213778896772,-0.080811779964904
1580422714.88239,-0.908461127641718,-0.024170290684367,-0.266361486228734
1580422714.91449,-1.05934233615625,0.185793850614175,-0.128175783932249
1580422714.94658,-0.808850232700085,0.201419089036392,-0.23315785458152
1580422714.97868,-0.835217822537576,0.0729991607537954,-0.207766842145418
1580422715.01077,-0.970962081330587,0.0954604409857325,-0.218020904859998
1580422715.04287,-1.01881437399863,0.0939955748836496,-0.205813687342641
1580422715.07496,-0.611093308918898,0.408453498130768,-0.72535286488136
1580422715.10706,-0.881116960402839,0.516853589684903,-0.630624856946669
1580422715.13915,-1.11256580453193,0.346440833142594,-0.495368886854353
1580422715.17125,-0.927016098268101,0.4143129625391,-0.481208514534218
1580422715.20334,-0.93824673838407,0.692637521934845,-0.774670023651485
1580422715.23544,-0.585214007782101,0.627206836041811,-0.683848325322346
1580422715.26753,-0.488044556343938,0.697032120241094,-0.451911192492561
1580422715.29963,-2.76542305638209,0.0817883573662925,0.381597619592583
1580422715.33173,-1.63991760128176,0.150148775463492,-0.0847180895704582
1580422715.36382,-1.4997787441825,0.419684138246737,-0.0285648889906156
1580422715.39592,-1.30934615091173,0.374761577782863,0.273685816739146
1580422715.42807,-1.02662699320974,0.447028305485617,0.254154268711375
1580422715.46017,-0.629159990844586,0.364019226367589,-0.185793850614175
1580422715.49226,-0.587655451285572,0.0388189517051956,0.0695811398489354
1580422715.52436,-0.838147554741742,-0.77759975585565,0.295170519569695
1580422715.55645,-0.472907606622416,0.38696879530022,-0.109620813305867
1580422715.58855,-0.278080415045396,0.326420996414129,-1.32594796673533
1580422715.62064,-1.27370107576104,0.846448462653544,0.132082093537804
1580422715.65274,-0.131105516136415,1.86208896009766,-2.3201037613489
1580422715.68483,-0.909437705043107,0.0456549935149155,-0.133058670939192
1580422715.71693,-2.14285496299687,-0.753673609521631,0.388433661402303
1580422715.74902,-0.516853589684901,1.92263675898375,-1.97586022735943
1580422715.78112,-1.56960402838178,-0.248783093003738,0.467048142214082
1580422715.81322,-1.26832990005341,-0.702891584649423,-0.197024490730143
1580422715.84531,-1.17799649042496,0.314702067597466,-0.333745326924545
1580422715.87741,-1.20094605935759,-0.096437018387121,-0.299565117875945
1580422715.9095,-0.93482871747921,-0.0271000228885327,-0.387457084000916
1580422715.9416,-0.869398031586176,0.39380483710994,-0.0905775539787896
1580422715.97369,-0.841565575646602,0.244876783398183,-0.170656900892652
1580422716.00579,-0.867933165484093,0.156496528572518,-0.200442511635003
1580422716.03788,-1.07008468757153,0.155031662470435,-0.0876478217746239
1580422716.06998,-0.90406652933547,0.224856946669718,-0.264896620126651
1580422716.10207,-0.747325856412603,0.323491264209963,-0.838635843442436
1580422716.13417,-0.90406652933547,0.431891355764094,-0.609628442816815
1580422716.16627,-1.02174410620279,0.161867704280155,-0.533455405508507
1580422716.19836,-0.974380102235447,0.464118410009917,-0.354253452353705
1580422716.23046,-0.880628671702144,0.707774471656368,-0.719981689173723
1580422716.26255,-0.56226443884947,0.56324101625086,-0.621835660334172
1580422716.29465,-0.714610513466086,0.673594262607768,-0.334721904325933
1580422716.32674,-2.65018692301823,0.034424353398947,0.342046234836346
1580422716.35884,-1.68825818265049,0.314213778896772,0.0905775539787896
1580422716.39093,-1.47731746395056,0.2434119172961,-0.0339360646982527
1580422716.42303,-1.16481269550622,0.430426489662011,0.184328984512092
1580422716.45512,-0.898695353627833,0.471442740520331,0.0476081483176927
1580422716.48722,-0.689707789730678,0.306401159685663,-0.134035248340581
1580422716.51931,-0.662363622491798,0.127687495231555,0.0715342946517126
1580422716.55141,-0.760021362630656,-0.574471656366827,0.25366598001068
1580422716.5835,-1.12623788815137,0.01196307316701,0.132570382238498
1580422716.6156,-0.208743419546806,0.242923628595406,-0.839612420843824
1580422716.6477,-0.970962081330587,1.05299458304723,-0.392339971007859
1580422716.67979,-0.788342107270925,1.31276417181659,-1.26344701304646
1580422716.71194,-0.429449912260624,0.533943694209203,-0.482185091935607
1580422716.74404,-2.46854352635996,-0.278568703746091,0.60083924620432
1580422716.77614,-0.669687953002212,0.752697032120242,-0.949477378500038
1580422716.80823,-0.865003433279927,0.889417868314641,0.127199206530861
1580422716.84033,-2.06131074998093,-1.53298237582971,0.476325627527274
1580422716.87242,-0.916762035553521,0.0539559014267184,-0.601815823605707
1580422716.90452,-1.36208133058671,0.163820859082932,-0.223392080567635
1580422716.93662,-0.929945830472267,0.0271000228885327,-0.266849774929428
1580422716.96871,-0.997329671168078,0.3288624399176,-0.127687495231555
1580422717.00081,-0.847913328755627,0.209719996948195,-0.0842298008697639
1580422717.0329,-0.87672236209659,0.105714503700312,-0.176028076600289
1580422717.065,-1.01686121919585,0.120363164721141,0.00659189745937283
1580422717.0971,-1.00514229037919,0.163820859082932,-0.148683909361409
1580422717.12919,-0.748790722514686,0.254154268711375,-0.877698939497979
1580422717.16129,-0.760997940032045,0.490974288548102,-0.537361715114061
1580422717.19338,-0.990005340657664,0.232669565880826,-0.567147325856412
1580422717.22548,-0.933363851377127,0.424078736552985,-0.448004882887007
1580422717.25758,-0.865980010681316,0.708751049057756,-0.610605020218204
1580422717.28967,-0.792248416876479,0.795178149080645,-0.705821316853589
1580422717.32177,-0.640390630960555,0.730724040588999,-0.372808422980087
1580422717.35386,-2.16238651102464,0.0783703364614325,0.330815594720377
1580422717.38596,-1.77077897306783,0.267826352330815,-0.118898298619058
1580422717.41805,-1.64724193179217,0.212161440451666,-0.103761348897535
1580422717.45015,-1.33913176165408,0.329839017318989,0.196047913328755
1580422717.48225,-1.01197833218891,0.504158083466852,0.0700694285496297
1580422717.51434,-0.6877546349279,0.252689402609292,-0.148683909361409
1580422717.54644,-0.581795986877241,0.167238879987792,0.0544441901274126
1580422717.57853,-0.810803387502862,-0.361577782864119,0.566170748455026
1580422717.61063,-0.974868390936141,0.0144045166704814,0.451422903791865
1580422717.64273,-0.217532616159303,-0.00512703135728998,-1.30934615091173
1580422717.67482,-0.833752956435493,0.96217288471809,-0.347417410543985
1580422717.70692,-1.1579766536965,0.840588998245213,-0.70142671854734
1580422717.73901,0.0515144579232469,1.18434424353399,-0.940688181887541
1580422717.77111,-2.09549095902953,0.0393072404058898,-0.227298390173189
1580422717.80321,-1.16676585030899,0.106691081101701,-0.590096894789044
1580422717.8353,-0.622323949034866,1.86160067139696,-0.584725719081407
1580422717.8674,-1.92605477988861,-1.22194247348745,0.657969024185551
1580422717.89949,-0.971938658731975,-0.136964980544747,-0.611093308918898
1580422717.93159,-1.31520561532006,0.213138017853055,-0.317631799801633
1580422717.96369,-1.00025940337224,-0.179446097505149,-0.273197528038454
1580422717.99582,-0.960219729915313,0.191653315022506,-0.34009308003357
1580422718.02792,-0.800549324788282,0.396246280613411,-0.0627450980392155
1580422718.06001,-0.777111467154956,0.231692988479438,-0.244876783398183
1580422718.09211,-1.02027924010071,0.201907377737086,-0.165285725185015
1580422718.1242,-1.09449912260624,0.230716411078049,-0.0441901274128327
1580422718.1563,-0.538826581216144,0.375738155184251,-0.76734569314107
1580422718.18839,-0.839612420843824,0.321049820706492,-0.665781643396658
1580422718.22049,-1.08131532768749,0.217044327458609,-0.392339971007859
1580422718.25259,-1.06471351186389,0.372808422980086,-0.249271381704432
1580422718.28468,-0.976333257038224,0.557381551842528,-0.596444647898069
1580422718.31678,-0.903089951934081,0.560799572747388,-0.682871747920958
1580422718.34887,-0.558358129243915,0.644296940566111,-0.539314869916838
1580422718.38097,-1.06569008926528,0.378667887388417,0.187747005416952
1580422718.41307,-2.14285496299687,0.0993667505912867,-0.067139696345464
1580422718.44516,-1.70241855497063,0.824963759822996,-0.041260395208667
1580422718.47726,-1.41042191195544,0.36646066987106,-0.0622568093385212
1580422718.50935,-1.25465781643397,0.558358129243917,0.449958037689782
1580422718.54145,-0.932387273975738,0.239505607690546,0.11450370031281
1580422718.57354,-0.576424811169604,0.0383306630045013,-0.220462348363469
1580422718.60564,-0.543709468223087,-0.572518501564049,-0.112062256809338
1580422718.63774,-1.26832990005341,-0.906019684138247,0.658457312886245
1580422718.66983,-0.116945143816281,0.688242923628597,-0.212649729152361
1580422718.70193,-0.472419317921721,0.80836194399939,-1.29860379949645
1580422718.73403,-1.45339131761654,0.768810559243153,-0.437750820172427
1580422718.76612,-0.027588311589227,1.53933012893874,-1.40456244754711
1580422718.79822,-1.77419699397269,-0.229739833676661,-0.157961394674601
1580422718.83031,-1.11793698023957,0.130128938735027,-0.432867933165484
1580422718.86241,-0.72877088578622,2.00564583810178,-0.557381551842527
1580422718.8945,-1.52126344701305,-0.585702296482795,0.337651636530097
1580422718.9266,-1.01588464179446,-0.511970702677958,-0.492439154650187
1580422718.9587,-1.4480201419089,0.152101930266269,-0.173586633096818
1580422718.99079,-0.963149462119478,-0.0231937132829785,-0.358159761959259
1580422719.02289,-0.969497215228504,0.354741741054397,-0.175539787899595
1580422719.05498,-0.786388952468148,0.425055313954374,0.00512703135728998
1580422719.08708,-0.851331349660487,0.113527122911421,-0.157473105973907
1580422719.11918,-1.06471351186389,0.0910658426794839,-0.220950637064163
1580422719.15127,-0.908461127641718,0.245853360799572,-0.217044327458609
1580422719.18337,-0.492927443350881,0.530037384603649,-0.563241016250858
1580422719.21546,-0.920180056458381,0.319584954604409,-0.638925764858472
1580422719.24756,-1.1320973525597,0.207766842145418,-0.349858854047456
1580422719.27972,-0.922133211261158,0.327885862516212,-0.381597619592585
1580422719.31182,-0.926527809567407,0.5085526817731,-0.785412375066759
1580422719.34392,-0.810803387502862,0.696543831540399,-0.632089723048752
1580422719.37601,-0.824963759822996,0.681895170519571,-0.318608377203022
1580422719.40811,-1.47292286564431,0.031006332494087,0.158449683375295
1580422719.4402,-1.92117189288167,0.837659266041047,-0.103273060196841
1580422719.4723,-1.71902037079423,0.359136339360646,-0.0754406042572668
1580422719.5044,-1.47536430914778,0.466071564812694,0.240970473792629
1580422719.53649,-1.10524147402151,0.418707560845348,0.114015411612115
1580422719.56859,-0.761974517433433,0.159914549477378,0.00854505226214997
1580422719.60068,-0.545662623025864,-0.0358892195010299,-0.0261234454871442
1580422719.63278,-0.616952773327229,-0.894300755321584,-0.0656748302433812
1580422719.66488,-1.12916762035553,0.500251773861297,0.980727855344472
1580422719.69697,0.368902113374531,0.477790493629357,-1.80349431601434
1580422719.72907,-0.983657587548638,0.790295262073702,0.185793850614175
1580422719.76116,-0.727794308384832,1.23659113450828,-1.41188677805753
1580422719.79326,-0.765392538338293,0.631113145647365,0.0256351567864499
1580422719.82535,-2.04568551155871,-0.570565346761272,0.237552452887769
1580422719.85745,-0.990493629358358,1.16578927290761,-1.31471732661936
1580422719.88955,-1.35817502098116,-0.218509193560692,0.450934615091171
1580422719.92164,-1.17604333562219,-0.456794079499504,-0.0393072404058898
1580422719.95374,-1.34010833905547,0.169680323491264,-0.297123674372473
1580422719.98583,-1.04420538643473,-0.101808194094758,-0.545662623025864
1580422720.01793,-0.967055771725033,0.109620813305867,-0.131105516136415
1580422720.05003,-0.859143968871596,0.418219272144654,-0.0354009308003356
1580422720.08212,-0.809826810101473,0.258060578316929,-0.342534523537042
1580422720.11422,-0.82545204852369,0.282475013351643,-0.163332570382238
1580422720.14631,-0.971938658731975,0.197024490730143,-0.0646982528419926
1580422720.17841,-1.02809185931182,0.0266117341878385,-0.187747005416952
1580422720.21051,-0.718028534370946,0.283939879453726,-0.785412375066759
1580422720.2426,-0.730724040588997,0.440192263675897,-0.624765392538338
1580422720.2747,-0.936781872281987,0.305424582284274,-0.542732890821698
1580422720.30679,-0.979751277943084,0.541268024719617,-0.547127489127947
1580422720.33889,-0.808850232700085,0.708751049057756,-0.702403295948729
1580422720.37099,-0.656015869382772,0.63843747615778,-0.614511329823758
1580422720.40308,-1.04127565423056,0.6281834134432,-0.176028076600289
1580422720.43518,-2.86747539482719,-0.32300297550927,0.3630426489662
1580422720.46727,-1.6531013962005,0.33228046082246,-0.00952162966353853
1580422720.49937,-1.45436789501793,0.2775921263447,-0.0383306630045013
1580422720.53146,-1.18483253223468,0.465094987411305,0.231692988479438
1580422720.56369,-0.928480964370184,0.34937056534676,0.11792172121767
1580422720.59579,-0.614023041123064,0.212649729152361,-0.0197756923781185
1580422720.62788,-0.573495078965438,-0.0402838178072784,0.269779507133592
1580422720.65998,-0.841077286945907,-0.604257267109178,0.460212100404362
1580422720.69208,-0.696543831540398,0.509040970473794,-0.248783093003738
1580422720.72417,-0.269779507133594,0.0920424200808725,-0.826916914625773
1580422720.75627,-1.04225223163195,0.990493629358358,-0.104737926298924
1580422720.78836,-0.41870756084535,1.93240253299764,-2.04031433585107
1580422720.82046,-0.651132982375829,0.196047913328755,-0.383062485694667
1580422720.85256,-2.39481193255512,-0.50074006256199,0.632089723048754
1580422720.88465,-0.788342107270925,0.560799572747388,-0.787365529869536
1580422720.91675,-0.933363851377127,0.87330434119173,-0.127687495231555
1580422720.94885,-2.05886930647745,-1.3029983978027,0.621835660334174
1580422720.98094,-1.06471351186389,0.297611963073166,-0.539314869916838
1580422721.01304,-1.28200198367285,-0.0417486839093613,-0.334721904325933
1580422721.04514,-1.02711528191043,-0.257084000915542,-0.262455176623179
1580422721.07723,-0.922133211261158,0.214114595254443,-0.379156176089113
1580422721.10933,-0.767833981841765,0.377691309987028,-0.0891126878767068
1580422721.14142,-0.818127718013276,0.231204699778743,-0.0900892652780954
1580422721.17352,-0.950942244602121,0.253177691309986,-0.0441901274128327
1580422721.20562,-0.991470206759747,0.190188448920424,-0.122804608224612
1580422721.23771,-0.860120546272984,0.147219043259327,-0.742931258106355
1580422721.26981,-0.738048371099412,0.51197070267796,-0.541268024719615
1580422721.30191,-1.01197833218891,0.205325398641946,-0.559334706645304
1580422721.334,-1.00172426947433,0.272709239337757,-0.733653772793163
1580422721.3661,-0.748790722514686,0.756115053025102,-0.583749141680018
1580422721.3982,-0.747325856412603,0.958266575112535,-0.599862668802929
1580422721.43029,-0.703379873350118,0.777111467154956,-0.218509193560692
1580422721.46239,-2.84843213550011,-0.0124513618677042,0.502204928664074
1580422721.49448,-1.63112840466926,0.366948958571754,-0.00219729915312428
1580422721.52658,-1.62819867246509,0.190676737621118,-0.0197756923781185
1580422721.55868,-1.19020370794232,0.444098573281451,0.126710917830167
1580422721.59077,-0.944106202792401,0.406500343327991,0.139406424048218
1580422721.62287,-0.611093308918898,0.298588540474555,-0.134035248340581
1580422721.65497,-0.55884641794461,0.204837109941252,0.134035248340581
1580422721.68706,-0.625741969939726,-0.292240787365531,0.308842603189134
1580422721.71916,-0.938735027084764,-0.144777599755855,-0.0305180437933927
1580422721.75126,-0.270756084534982,0.0695811398489354,-0.701915007248035
1580422721.78335,-0.77076371404593,1.22975509269856,-0.288334477759976
1580422721.81545,-0.662851911192492,1.31227588311589,-1.50759136339361
1580422721.84772,-0.336186770428016,0.542244602121006,-0.781506065461205
1580422721.87981,-2.47489127946899,-0.11792172121767,0.365972381170366
1580422721.91191,-0.824963759822996,0.432867933165483,-0.730235751888303
1580422721.94401,-0.853284504463264,1.44362554360265,-0.358648050659953
1580422721.9761,-1.79616998550393,-0.638925764858472,0.736583504997331
1580422722.0082,-0.901625085831999,-0.427985046158541,-0.632578011749446
1580422722.0403,-1.50319676508736,0.0349126420996413,-0.168215457389181
1580422722.07239,-0.947524223697261,0.0339360646982527,-0.362554360265507
1580422722.10449,-0.94166475928893,0.216067750057221,-0.32300297550927
1580422722.13659,-0.788342107270925,0.343511100938429,-0.100343327992675
1580422722.16869,-0.797619592584116,0.239505607690546,-0.23315785458152
1580422722.20078,-0.914808880750744,0.227298390173189,-0.0783703364614325
1580422722.23288,-1.10328831921874,0.178469520103761,-0.0627450980392155
1580422722.26498,-0.933363851377127,0.0183108262760356,-0.400640878919662
1580422722.29707,-0.649668116273746,0.467536430914777,-0.733165484092469
1580422722.32917,-0.867444876783399,0.440680552376591,-0.501228351262684
1580422722.36127,-1.07399099717708,0.166750591287098,-0.705333028152895
1580422722.39336,-0.935805294880598,0.445563439383534,-0.494880598153658
1580422722.42546,-0.69800869764248,0.871351186388953,-0.795666437781339
1580422722.45756,-0.48364995803769,0.712169069962616,-0.529060807202258
1580422722.48965,-1.0295567254139,0.449469748989088,0.0568856336308841
1580422722.52175,-2.71219958800641,-0.174074921797512,-0.269779507133594
1580422722.55385,-1.78249790188449,0.406012054627297,-0.0495613031204698
1580422722.58594,-1.61843289845121,0.172121766994735,0.0554207675288012
1580422722.61804,-1.22487220569161,0.507576104371712,0.39038681620508
1580422722.65014,-0.762462806134128,0.365972381170366,-0.041260395208667
1580422722.68224,-0.448981460288396,0.287357900358586,-0.157961394674601
1580422722.71433,-0.603768978408484,-0.0734874494544897,0.566170748455026
1580422722.74643,-0.955825131609064,-0.345952544441902,0.671641107804991
1580422722.77853,-0.284916456855116,-0.01196307316701,-0.937270160982681
1580422722.81062,-0.582284275577935,0.194094758525978,-0.733165484092469
1580422722.84272,-1.28297856107424,0.700938429846648,-0.245853360799572
1580422722.87482,-0.0266117341878385,2.10135042343786,-2.13113603418021
1580422722.90691,-1.01344319829099,0.0104982070649271,-0.273685816739148
1580422722.93901,-2.37186236362249,-0.790295262073702,0.616952773327231
1580422722.97111,-0.515388723582818,2.0290836957351,-2.2776226443885
1580422723.0032,-1.33522545204852,0.000732433051041426,0.340093080033569
1580422723.0353,-1.49098954757,-1.21950102998398,-0.0324711985961699
1580422723.0674,-1.14137483787289,0.375249866483557,-0.297611963073168
1580422723.09949,-1.20192263675898,-0.0300297550926985,-0.305912870984971
1580422723.13171,-0.919203479056993,0.0632333867399097,-0.408941786831464
1580422723.16381,-0.906996261539636,0.223880369268329,-0.0646982528419926
1580422723.19591,-0.86305027847715,0.232181277180132,-0.213138017853055
1580422723.22801,-0.952895399404898,0.139406424048218,-0.159914549477378
1580422723.2601,-1.05885404745556,0.108155947203784,-0.113038834210727
1580422723.2922,-0.928480964370184,0.110109102006561,-0.334233615625239
1580422723.3243,-0.607186999313344,0.47583733882658,-0.855237659266042
1580422723.3564,-0.804455634393836,0.500251773861297,-0.528572518501564
1580422723.38849,-1.09059281300069,0.164309147783626,-0.494880598153658
1580422723.42059,-0.928480964370184,0.412848096437017,-0.454352635996033
1580422723.45269,-0.917250324254216,0.799084458686199,-0.757091630426491
1580422723.48478,-0.645273517967498,0.622812237735562,-0.689707789730678
1580422723.51688,-0.666269932097352,0.630624856946671,-0.37769130998703
1580422723.54898,-2.29813076981766,-0.0217288471808956,0.376226443884946
1580422723.58108,-1.78835736629282,0.619394216830703,-0.33667505912871
1580422723.61317,-1.65603112840467,0.350835431448843,-0.0759288929579611
1580422723.64527,-1.40260929274434,0.552010376134891,0.274662394140535
1580422723.67737,-0.990005340657664,0.493904020752268,0.238529030289158
1580422723.70947,-0.6877546349279,0.157961394674601,0.0373540856031127
1580422723.74156,-0.561776150148775,-0.145754177157244,0.0744640268558783
1580422723.77366,-0.930922407873656,-0.878675516899367,0.368413824673837
1580422723.80576,-0.580819409475852,1.12233157854581,0.363530937666894
1580422723.83785,-0.173098344396124,0.206790264744029,-1.0129549095903
1580422723.86995,-1.02174410620279,0.797619592584116,-0.190676737621118
1580422723.90205,-0.742931258106355,1.43044174868391,-1.60671396963455
1580422723.93415,-0.491950865949493,0.478278782330051,-0.247318226901655
1580422723.96624,-2.22928206301976,-0.135500114442664,0.678965438315405
1580422723.99834,-0.77076371404593,0.435797665369648,-0.682871747920958
1580422724.03044,-1.1574883649958,1.12916762035553,0.353765163653009
1580422724.06254,-1.43190661478599,-0.85963225757229,-0.0524910353246355
1580422724.09463,-1.17067215991455,-0.0163576714732585,-0.444586861982147
1580422724.12673,-1.26540016784924,-0.0397955291065841,-0.407965209430076
1580422724.15883,-0.905043106736859,-0.0456549935149155,-0.137453269245441
1580422724.19093,-0.906996261539636,0.359136339360646,-0.195559624628061
1580422724.22302,-0.795666437781339,0.298588540474555,-0.139894712748912
1580422724.25512,-0.945571068894484,0.109132524605172,-0.135988403143358
1580422724.28722,-1.10426489662013,0.0212405584802013,0.067139696345464
1580422724.31931,-0.802014190890365,0.162355992980849,-0.349858854047456
1580422724.35141,-0.606698710612649,0.332768749523154,-0.757091630426491
1580422724.38351,-0.977798123140307,0.477790493629357,-0.601815823605707
1580422724.41571,-0.936781872281987,0.159914549477378,-0.401129167620356
1580422724.44781,-0.984145876249332,0.50171663996338,-0.32300297550927
1580422724.4799,-1.02320897230488,0.80152590218967,-0.704356450751506
1580422724.512,-0.633066300450141,0.557381551842528,-0.698985275043869
1580422724.5441,-0.740001525902189,0.698496986343176,-0.38794537270161
1580422724.5762,-2.18240634775311,0.270267795834286,0.334721904325932
1580422724.60829,-1.95437552452888,0.632578011749448,-0.259037155718319
1580422724.64039,-1.62282749675746,0.323002975509269,-0.0354009308003356
1580422724.67249,-1.20192263675898,0.568612191958497,0.156984817273212
1580422724.70459,-0.920180056458381,0.298588540474555,0.161379415579461
1580422724.73668,-0.654062714579995,0.151613641565575,0.0305180437933927
1580422724.76878,-0.508552681773098,-0.0505378805218584,-0.024170290684367
1580422724.80088,-0.835217822537576,-1.07692072938125,0.184328984512092
1580422724.83297,-1.1233081559472,0.730235751888305,0.875745784695201
1580422724.86507,-0.0422369726100555,0.368413824673837,-1.38600747692073
1580422724.89717,-0.940199893186847,0.976333257038224,-0.251712825207905
1580422724.92927,-0.830823224231327,1.36549935149157,-1.21071183337148
1580422724.96136,-0.399176012817579,0.586190585183491,-0.206790264744029
1580422724.99346,-2.34744792858778,-0.264896620126651,0.329350728618294
1580422725.02556,-0.72535286488136,0.59742122529946,-1.04957656214237
1580422725.05766,-0.99977111467155,1.38112458991379,0.133058670939192
1580422725.08975,-1.82693217364767,-1.10280003051804,0.406012054627297
1580422725.12185,-0.926527809567407,-0.099855039291981,-0.607186999313344
1580422725.15395,-1.38405432211795,0.25024795910582,-0.0832532234683754
1580422725.18605,-0.907972838941024,-0.0471198596169984,-0.290287632562753
1580422725.21814,-0.993423361562524,0.247318226901655,-0.220462348363469
1580422725.25024,-0.770275425345236,0.321538109407186,-0.0813000686655982
1580422725.28234,-0.874769207293813,0.191653315022506,-0.184817273212786
1580422725.31444,-1.07496757457847,0.0422369726100555,-0.196047913328755
1580422725.34653,-0.93482871747921,0.125246051728084,-0.31958495460441
1580422725.37863,-0.56226443884947,0.378179598687723,-0.637460898756389
1580422725.41073,-0.889417868314641,0.478278782330051,-0.578866254673075
1580422725.44282,-1.14332799267567,0.276615548943312,-0.416754406042573
1580422725.47492,-0.99293507286183,0.370366979476614,-0.31958495460441
1580422725.50702,-0.909925993743801,0.688242923628597,-0.757091630426491
1580422725.53912,-0.651132982375829,0.478278782330051,-0.77418173495079
