Timestamp_seconds,Accel_X_g,Accel_Y_g,Accel_Z_g
1580423490.04981,-0.902113374532693,-0.287846189059282,0.32202639810788
1580423490.08188,-0.90748455024033,-0.286869611657893,0.332768749523154
1580423490.11395,-0.902113374532693,-0.288822766460671,0.33569848172732
1580423490.14601,-0.892347600518807,-0.285404745555811,0.345464255741206
1580423490.17808,-0.905531395437553,-0.286869611657893,0.332768749523154
1580423490.21014,-0.916762035553521,-0.296147096971085,0.326909285114823
1580423490.24221,-0.91090257114519,-0.284428168154422,0.316655222400243
1580423490.27428,-0.91773861295491,-0.288334477759976,0.312260624093994
1580423490.30634,-0.902113374532693,-0.294682230869002,0.288822766460669
1580423490.33841,-0.905043106736859,-0.293217364766919,0.315678644998854
1580423490.37047,-0.901136797131304,-0.294682230869002,0.303959716182192
1580423490.40254,-0.906996261539636,-0.291752498664836,0.323491264209963
1580423490.43461,-0.910414282444496,-0.281010147249562,0.32202639810788
1580423490.46667,-0.912367437247273,-0.285404745555811,0.314702067597466
1580423490.49874,-0.90406652933547,-0.286869611657893,0.32202639810788
1580423490.53081,-0.915297169451438,-0.299565117875945,0.302494850080109
1580423490.56287,-0.912855725947967,-0.280033569848174,0.309330891889829
1580423490.59494,-0.907972838941024,-0.278568703746091,0.326420996414129
1580423490.62701,-0.901625085831999,-0.286869611657893,0.316166933699549
1580423490.65907,-0.90748455024033,-0.285893034256505,0.323002975509269
1580423490.69114,-0.906019684138247,-0.293705653467613,0.32202639810788
1580423490.7232,-0.905043106736859,-0.278568703746091,0.313237201495383
1580423490.75527,-0.898207064927139,-0.287846189059282,0.314702067597466
1580423490.78734,-0.913344014648661,-0.300053406576639,0.327885862516212
1580423490.8194,-0.906507972838941,-0.293217364766919,0.300053406576637
1580423490.85147,-0.913832303349356,-0.289799343862059,0.295170519569695
1580423490.88354,-0.912855725947967,-0.302494850080111,0.282475013351643
1580423490.9156,-0.919203479056993,-0.303471427481499,0.283939879453726
1580423490.94767,-0.911390859845884,-0.294682230869002,0.266361486228732
1580423490.97961,-0.917250324254216,-0.295658808270391,0.275638971541923
1580423491.01168,-0.916762035553521,-0.289799343862059,0.266849774929426
1580423491.04375,-0.913832303349356,-0.293705653467613,0.28442816815442
1580423491.07581,-0.90748455024033,-0.299565117875945,0.295170519569695
1580423491.10788,-0.910414282444496,-0.294682230869002,0.30835431448844
1580423491.13995,-0.903578240634776,-0.301518272678722,0.300541695277332
1580423491.17201,-0.915297169451438,-0.295170519569696,0.314213778896772
1580423491.20408,-0.897718776226444,-0.294682230869002,0.324956130312046
1580423491.23615,-0.892835889219501,-0.278568703746091,0.322514686808574
1580423491.26821,-0.90748455024033,-0.280033569848174,0.33228046082246
1580423491.30028,-0.917250324254216,-0.279545281147479,0.299565117875943
1580423491.33234,-0.90064850843061,-0.327397573815519,0.265873197528038
1580423491.36441,-0.891859311818113,-0.325932707713436,0.229739833676661
1580423491.39648,-0.905531395437553,-0.33325703822385,0.264408331425955
1580423491.42854,-0.943129625391013,-0.324956130312048,0.207278553444723
1580423491.46061,-0.903578240634776,-0.294193942168308,0.251224536507209
1580423491.49267,-0.90748455024033,-0.323979552910659,0.265384908827343
1580423491.52474,-0.92457465476463,-0.372808422980087,0.28784618905928
1580423491.55681,-0.963149462119478,-0.372808422980087,0.176516365300984
1580423491.58887,-0.967544060425727,-0.447028305485619,0.0837415121690697
1580423491.62094,-0.939223315785458,-0.34009308003357,0.113527122911421
1580423491.65301,-0.885023270008393,-0.287357900358588,-0.0251468680857556
1580423491.68507,-0.782970931563288,-0.325932707713436,-0.0920424200808725
1580423491.71714,-0.683360036621652,-0.410894941634242,-0.322026398107882
1580423491.74921,-0.519295033188373,-0.280521858548868,-0.366948958571756
1580423491.78127,-0.722423132677195,-0.0549324788281069,-0.272709239337759
1580423491.81334,-2.32156862745098,-0.139894712748912,0.244388494697489
1580423491.8454,-0.686778057526512,-0.742931258106355,-0.427985046158541
1580423491.87747,-0.900160219729916,-0.103761348897535,-0.368413824673839
1580423491.90954,-1.23219653620203,-0.0661631189440754,-0.278568703746091
1580423491.9416,-0.886488136110476,0.0290531776913099,-0.272220950637065
1580423491.97367,-1.02027924010071,-0.0896009765774011,-0.200930800335698
1580423492.00574,-0.89381246662089,-0.198977645532921,-0.118410009918364
1580423492.0378,-0.958266575112535,-0.321049820706493,-0.00952162966353853
1580423492.06987,-0.963149462119478,-0.256595712214848,0.0847180895704582
1580423492.10194,-0.89039444571603,-0.119874876020447,0.159426260776684
1580423492.134,-0.942153047989624,-0.0402838178072784,0.336186770428014
1580423492.16607,-0.937270160982681,0.128175783932249,0.144289311055161
1580423492.19813,-0.960708018616007,-0.0168459601739528,0.0920424200808725
1580423492.2302,-1.04859998474098,0.0700694285496297,-0.0520027466239412
1580423492.26239,-1.05836575875486,-0.0490730144197755,-0.0666514076447697
1580423492.29446,-1.08131532768749,0.163820859082932,0.118898298619058
1580423492.32652,-0.957778286411841,0.168703746089875,0.428961623559928
1580423492.35859,-1.05592431525139,0.144289311055161,0.749279011215382
1580423492.39066,-1.13600366216525,0.147219043259327,1.25514610513466
1580423492.42272,-1.76247806515602,0.485603112840465,0.544197756923783
1580423492.45479,-1.30788128480964,-0.0466315709163041,-0.800061036087587
1580423492.48686,-1.11403067063401,0.0676279850461583,-0.557869840543221
1580423492.51892,-0.579354543373769,0.677988860914017,-0.453376058594644
1580423492.55099,-1.11256580453193,0.0842298008697639,-0.143312733653772
1580423492.58306,-1.17213702601663,-0.478278782330053,-0.267826352330816
1580423492.61512,0.186770428015564,-1.49294270237278,-0.819104295414665
1580423492.64719,-0.775158312352179,-0.0896009765774011,-1.02613870450904
1580423492.67926,-0.552986953536278,-0.671641107804989,-1.24586861982147
1580423492.71132,0.221438925764858,-1.34987411306935,-1.11744869153887
1580423492.74339,-1.18727397573815,1.19899290455482,2.52127870603494
1580423492.77546,-1.21950102998398,-0.723399710078583,-0.95191882200351
1580423492.80753,-0.89381246662089,0.4143129625391,-1.2263370717937
1580423492.83959,-0.936781872281987,-1.63356984817273,-1.77956816968032
1580423492.87166,-0.709239337758449,0.623300526436257,-1.30690470740826
1580423492.90373,-1.3112993057145,0.961684596017395,-1.17164873731594
1580423492.93579,-1.52272831311513,-0.109132524605172,-0.691660944533455
1580423492.96786,-1.2776073853666,-0.268314641031511,0.178957808804455
1580423492.99993,-1.95681696803235,0.278080415045395,0.599862668802931
1580423493.03199,-1.17555504692149,-0.0690928511482412,0.957289997711147
1580423493.06406,-0.973891813534753,0.33911650263218,1.15260547798886
1580423493.09613,-1.10572976272221,0.38355077439536,1.02858014801251
1580423493.12819,-0.899183642328527,0.34253452353704,0.738048371099413
1580423493.16026,-0.969497215228504,-0.160402838178072,0.360601205462729
1580423493.19233,-1.39479667353323,0.0212405584802013,-0.607675288014038
1580423493.22439,-1.81179522392615,0.480231937132828,-0.793713282978562
1580423493.25646,-0.99977111467155,-0.0725108720531011,-0.928969253070878
1580423493.28853,-0.846936751354239,-0.658945601586938,-1.00660715648127
1580423493.3206,-0.293705653467613,-0.717051956969557,-0.959243152513924
1580423493.35266,-0.148195620660715,-0.399664301518273,-1.06861982146944
1580423493.38473,-0.455329213397421,0.206301976043335,-0.969985503929198
1580423493.4168,-1.08815136949721,0.0573739223315783,-1.07154955367361
1580423493.44886,-1.1579766536965,-0.455329213397421,-1.06471351186389
1580423493.48093,-0.511482413977264,-0.601327534905012,-0.599862668802929
1580423493.513,0.246341649500266,0.3117723353933,-0.667246509498741
1580423493.54523,-0.319096665903716,0.226810101472495,-0.405523765926604
1580423493.57729,-2.39237048905165,0.859143968871596,1.52370489051652
1580423493.60936,-0.627206836041809,-0.477302204928664,-1.10231174181735
1580423493.64143,-0.322026398107882,-0.219485770962081,-0.872327763790341
1580423493.6735,-1.23219653620203,-0.0632333867399097,-1.09596398870832
1580423493.70556,-1.14479285877775,0.118898298619058,-0.963149462119478
1580423493.73763,-1.28834973678187,0.00268558785381856,-1.21120012207217
1580423493.7697,-1.31032272831312,0.52222476539254,-1.26149385824369
1580423493.80176,-1.45143816281376,0.304448004882886,-1.15553521019303
1580423493.83383,-2.22342259861143,0.0183108262760356,-0.209719996948195
1580423493.8659,-1.75222400244144,-0.0456549935149155,1.08375677119097
1580423493.89797,-0.857679102769513,-0.421149004348822,1.64675364309148
1580423493.93003,-0.84254215304799,0.149660486762798,1.23952086671244
1580423493.9621,-0.818127718013276,0.177492942702372,0.467536430914777
1580423493.99417,-0.77076371404593,-0.132570382238498,-0.0588387884336612
1580423494.02624,-1.23512626840619,-0.000244144350347142,-0.249759670405126
1580423494.0583,-1.50270847638666,0.0681162737468526,-0.359624628061342
1580423494.09037,-1.08229190508888,0.031006332494087,-0.717540245670252
1580423494.12244,-0.925062943465324,-0.133546959639887,-0.898695353627833
1580423494.15451,-0.604745555809872,-0.237064164187075,-1.03883421072709
1580423494.18657,-0.501716639963378,-0.347417410543985,-1.14723430228122
1580423494.21864,-0.77418173495079,-0.383062485694667,-1.02272068360418
1580423494.25071,-0.789806973373008,-0.268802929732205,-0.935317006179904
1580423494.28277,-0.943617914091707,-0.0354009308003356,-1.04078736552987
1580423494.31484,-0.998794537270161,0.0617685206378269,-0.870862897688259
1580423494.34691,-0.463630121309224,-0.679942015716792,-0.524177920195315
1580423494.37898,0.0681162737468526,-0.382085908293279,-0.560311284046692
1580423494.41104,-0.00415045395590141,-0.170656900892652,-0.746349279011215
1580423494.44311,-0.441657129777981,1.27174792095827,1.77175555046922
1580423494.47518,-2.2258640421149,0.165285725185015,-1.22487220569161
1580423494.50725,-0.620370794232089,-2.20193789578088,-2.05105668726635
1580423494.53931,-0.578377965972381,0.745860990310522,-1.09303425650416
1580423494.57138,-1.15700007629511,0.320561532005797,-1.3454795147631
1580423494.60345,-1.40749217975128,0.134523537041275,-1.19557488364996
1580423494.63551,-1.05738918135348,0.140871290150301,-1.17067215991455
1580423494.66758,-1.42897688258183,0.225345235370412,-0.935805294880598
1580423494.69965,-1.81277180132754,0.116456855115587,-0.609140154116121
1580423494.73172,-1.76687266346227,0.193118181124589,0.337163347829403
1580423494.76378,-1.2776073853666,0.0617685206378269,0.896253910124361
1580423494.79585,-0.723887998779277,-0.204837109941252,1.59060044251164
1580423494.82788,-0.715587090867475,0.130617227435721,1.17213702601663
1580423494.85995,-0.698496986343175,0.00415045395590141,0.316655222400243
1580423494.89201,-0.999282825970855,-0.0139162279697871,-0.0617685206378269
1580423494.92408,-1.90359349965667,0.0593270771343555,-0.421149004348822
1580423494.95615,-1.38649576562142,0.0334477759975584,-0.481208514534218
1580423494.98822,-1.39186694132906,0.154543373769741,-0.852307927061876
1580423495.02028,-0.911879148546578,-0.0476081483176927,-0.990981918059052
1580423495.05235,-0.50415808346685,-0.309330891889831,-1.1662775616083
1580423495.08442,-0.450934615091173,-0.467536430914778,-0.981216144045167
1580423495.11649,-0.593514915693904,-0.38110933089189,-1.17262531471733
1580423495.14855,-0.666758220798046,-0.0617685206378269,-1.03981078812848
1580423495.18062,-0.513435568780041,-0.199954222934309,-1.46022735942626
1580423495.21269,-0.815686274509805,-0.374761577782865,-0.931898985275044
1580423495.24476,0.0837415121690697,-0.70826276035706,-0.69117265583276
1580423495.27682,0.110109102006561,-0.222415503166246,-0.716075379568169
1580423495.30889,-0.621835660334172,0.868421454184787,1.4997787441825
1580423495.34096,-2.03836118104829,0.249271381704432,-0.0949721522850382
1580423495.37302,0.156984817273212,-0.714610513466086,-1.34059662775616
1580423495.40509,-1.08131532768749,0.216556038757915,-1.25465781643397
1580423495.43716,-1.07301441977569,0.173586633096818,-1.17360189211871
1580423495.46923,-1.21315327687495,0.139894712748912,-1.23414969100481
1580423495.50129,-1.29713893339437,0.27417410543984,-1.16334782940413
1580423495.53336,-1.56618600747692,0.367437247272449,-0.823498893720913
1580423495.56543,-1.83913939116503,0.292240787365529,-0.230716411078049
1580423495.5975,-1.77566186007477,0.204348821240558,0.634042877851531
1580423495.62956,-0.966567483024338,-0.199954222934309,1.38942549782559
1580423495.66163,-0.823010605020219,0.148195620660715,1.6364995803769
1580423495.6937,-0.985610742351415,0.0324711985961699,0.696055542839705
1580423495.72576,-1.03102159151598,-0.130128938735027,-0.201907377737086
1580423495.75783,-1.42409399557488,0.0471198596169984,-0.227298390173189
1580423495.7899,-1.51247425040055,0.128175783932249,-0.357671473258565
1580423495.82197,-1.07106126497291,-0.0783703364614325,-0.837659266041047
1580423495.85403,-0.89723048752575,-0.141847867551689,-1.11305409323262
1580423495.8861,-0.510017547875181,-0.298588540474556,-1.08180361638819
1580423495.91817,-0.289799343862059,-0.43579766536965,-1.13063248645762
1580423495.95024,-0.604745555809872,-0.408941786831464,-1.04176394293126
1580423495.9823,-0.633554589150835,-0.388433661402305,-0.99293507286183
1580423496.01437,-0.86305027847715,-0.223880369268329,-1.19557488364996
1580423496.04644,-0.865980010681316,0.124269474326695,-1.05983062485695
1580423496.07851,-0.345464255741208,-0.668223086900129,-0.85621423666743
1580423496.11063,0.0988784618905925,-0.685801480125123,-0.81519798580911
1580423496.14269,-0.198001068131532,0.653574425879302,-0.135988403143358
1580423496.17476,-2.94218356603342,0.639414053559168,-0.0402838178072784
1580423496.20683,-0.892347600518807,-1.17946135652705,-1.4743877317464
1580423496.2389,-0.0178225375753414,0.696543831540399,-1.13893339436942
1580423496.27096,-1.38551918822004,-0.279056992446785,-1.25807583733883
1580423496.30303,-1.337666895552,-0.172610055695429,-0.976333257038224
1580423496.3351,-1.14235141527428,0.25708400091554,-1.30104524299992
1580423496.36717,-1.33522545204852,0.417242694743265,-1.13453879606317
1580423496.39924,-1.77029068436713,0.360601205462729,-0.602792401007095
1580423496.4313,-1.92605477988861,0.0954604409857325,0.33228046082246
1580423496.46337,-1.44899671931029,-0.181399252307926,1.31227588311589
1580423496.49544,-0.798596169985505,0.0632333867399097,2.15066758220798
1580423496.52751,-0.837659266041047,0.460700389105057,1.50417334248875
1580423496.55957,-0.89039444571603,0.0368657969024184,0.209719996948195
1580423496.59164,-1.18141451132982,0.0725108720531011,-0.35034714274815
1580423496.62371,-1.83376821545739,0.172121766994735,-0.392339971007859
1580423496.65578,-1.18043793392843,0.149172198062104,-0.713633936064697
1580423496.68785,-1.06031891355764,0.00854505226214997,-1.07643244068055
1580423496.71991,-0.629648279545281,-0.426520180056459,-1.11061264972915
1580423496.75198,-0.320561532005799,-0.53833829251545,-1.22145418478675
1580423496.78405,-0.427496757457847,-0.348393987945373,-1.15651178759441
1580423496.81612,-0.498298619058518,-0.11450370031281,-1.0212558175021
1580423496.84818,-0.817639429312582,-0.2434119172961,-1.23170824750133
1580423496.88025,-1.11354238193332,-0.168215457389181,-0.946059357595178
1580423496.91232,-0.284916456855116,-0.632089723048752,-0.750743877317465
1580423496.94439,0.119874876020447,-0.412359807736324,-0.785900663767453
1580423496.97646,-0.204837109941252,0.690196078431374,-0.0290531776913099
1580423497.00852,-2.76688792248417,0.681895170519571,-0.0568856336308841
1580423497.04059,-0.853772793163959,-1.4738994430457,-1.66823834592203
1580423497.07266,-0.352788586251622,1.03346303501946,-1.34254978255894
1580423497.10473,-1.27077134355688,-0.077393759060044,-1.28542000457771
1580423497.1368,-1.42800030518044,-0.0373540856031127,-1.12770275425345
1580423497.16886,-1.16578927290761,0.394781414511328,-1.22243076218814
1580423497.20093,-1.48366521705959,0.10424963759823,-0.943617914091707
1580423497.233,-1.76736095216297,0.135988403143358,-0.414312962539102
1580423497.26507,-1.67653925383383,0.128175783932249,0.289799343862057
1580423497.29713,-1.13893339436942,0.027588311589227,1.01734950789654
1580423497.3292,-0.597909514000152,0.161379415579461,1.59890135042344
1580423497.36127,-0.821545738918136,0.0544441901274126,0.857679102769513
1580423497.39343,-0.838147554741742,-0.133058670939192,0.0856946669718468
1580423497.4255,-1.30202182040131,-0.114991989013504,-0.196047913328755
1580423497.45757,-1.69411764705882,0.0075684748607614,-0.38794537270161
1580423497.48964,-1.32594796673533,-0.0817883573662925,-0.594491493095292
1580423497.5217,-1.19655146105135,0.0485847257190812,-0.860608834973679
1580423497.55377,-0.732677195391775,-0.144777599755855,-1.06617837796597
1580423497.58584,-0.408941786831464,-0.208743419546806,-1.11110093842985
1580423497.61791,-0.445075150682841,-0.261966887922485,-0.969497215228504
1580423497.64997,-0.700938429846646,-0.251712825207905,-1.04322880903334
1580423497.68204,-0.906996261539636,-0.238040741588463,-1.02760357061112
1580423497.71411,-0.566659037155718,-0.0285648889906156,-1.41188677805753
1580423497.74618,-0.851819638361182,-0.221438925764858,-0.787365529869536
1580423497.77825,0.259525444419012,-0.410894941634242,-0.861585412375067
1580423497.81031,0.0827649347676811,-0.204837109941252,-0.793713282978562
1580423497.84238,-0.822522316319525,0.891371023117419,2.11062790875105
1580423497.87445,-1.90798809796292,-0.165285725185015,-1.45387960631724
1580423497.90652,-0.520759899290455,-2.0808422980087,-1.86648355840391
1580423497.93858,-0.769787136644542,1.03541618982223,-1.27174792095827
1580423497.97065,-1.1750667582208,0.179934386205844,-1.16383611810483
1580423498.00272,-1.32350652323186,0.247806515602349,-1.09059281300069
1580423498.03479,-0.921644922560464,0.245365072098878,-1.1916685740444
1580423498.06686,-1.37233539330129,0.172121766994735,-1.00904859998474
1580423498.09892,-1.75466544594492,-0.0549324788281069,-0.442145418478676
1580423498.13099,-1.84255741206989,-0.0134279392690928,0.0461432822156098
1580423498.16306,-1.60378423743038,0.0930189974822611,0.725841153582056
1580423498.19513,-0.50415808346685,0.351323720149537,1.4822003509575
1580423498.22719,-0.349858854047456,0.2775921263447,1.7219501029984
1580423498.25926,-0.79468986037995,0.135988403143358,0.859143968871596
1580423498.29133,-1.12623788815137,-0.0476081483176927,-0.175051499198901
1580423498.3234,-2.00564583810178,-0.0227054245822842,-0.326909285114825
1580423498.35547,-1.46022735942626,-0.0896009765774011,-0.468513008316167
1580423498.38753,-1.25368123903258,0.161379415579461,-0.795666437781339
1580423498.4196,-0.823498893720913,-0.0559090562294955,-0.966079194323644
1580423498.45167,-0.470466163118944,-0.228763256275272,-1.18971541924163
1580423498.48374,-0.399664301518273,-0.36060120546273,-1.11842526894026
1580423498.5158,-0.566170748455024,-0.424567025253682,-0.99977111467155
1580423498.54787,-0.493415732051576,-0.426520180056459,-1.03395132372015
1580423498.57994,-0.594491493095292,-0.309330891889831,-1.1916685740444
1580423498.61201,-0.795666437781339,0.384039063096054,-1.14235141527428
1580423498.64407,-0.594491493095292,-0.279056992446785,-0.815686274509805
1580423498.6763,0.041260395208667,-0.979751277943084,-0.903578240634776
1580423498.70837,0.034424353398947,0.157473105973907,-0.712169069962615
1580423498.74044,-2.41092545967803,0.146730754558632,0.360601205462729
1580423498.7725,-1.00465400167849,-1.45583276112001,-1.14137483787289
1580423498.80457,-0.273197528038454,0.601815823605708,-1.04420538643473
1580423498.83664,-1.17994964522774,0.0632333867399097,-0.959243152513924
1580423498.86871,-0.991958495460441,0.58033112077516,-1.13502708476387
1580423498.90078,-1.24684519722286,0.219485770962081,-1.2263370717937
1580423498.93285,-1.31715877012284,0.0173342488746471,-0.968520637827115
1580423498.96491,-1.56667429617761,0.0607919432364383,-0.78101777676051
1580423498.99698,-1.70876630807965,0.185305561913481,-0.203372243839169
1580423499.02905,-1.67458609903105,0.165774013885709,0.320073243305103
1580423499.06112,-0.90406652933547,0.0300297550926985,1.20485236896315
1580423499.09319,-0.454352635996033,0.195071335927366,1.75906004425116
1580423499.12525,-0.752208743419548,0.31860837720302,1.30348668650339
1580423499.15732,-0.839612420843824,0.041260395208667,0.27075608453498
1580423499.18939,-1.46071564812696,-0.0075684748607614,-0.322026398107882
1580423499.22146,-2.13943694209201,0.0593270771343555,-0.319096665903716
1580423499.25353,-1.50563820859083,0.193118181124589,-0.791760128175785
1580423499.2856,-1.18727397573815,-0.112062256809338,-0.922621499961853
1580423499.31766,-0.731212329289692,-0.578377965972381,-1.08326848249027
1580423499.34973,-0.217532616159303,-0.49048599984741,-1.02613870450904
1580423499.3818,-0.474372472724498,-0.364995803768979,-1.10768291752499
1580423499.41387,-0.587167162584878,-0.037842374303807,-0.966079194323644
1580423499.44594,-0.829358358129245,-0.323979552910659,-1.3371786068513
1580423499.47801,-0.887953002212559,-0.388433661402305,-1.01100175478752
1580423499.51007,-0.0803234912642097,-0.290287632562753,-0.849866483558404
1580423499.54214,0.0261234454871442,-0.379156176089113,-0.862561989776456
1580423499.57421,-0.490974288548104,0.444098573281451,1.45387960631723
1580423499.60628,-2.47586785687037,0.619394216830703,-0.902601663233387
1580423499.63835,-0.443610284580759,-1.39772640573739,-1.83523308155947
1580423499.67042,-0.73218890669108,0.825940337224385,-1.25905241474022
1580423499.70248,-1.26442359044785,0.096437018387121,-1.0036774242771
1580423499.73455,-1.22194247348745,-0.0358892195010299,-1.06959639887083
1580423499.76662,-0.993423361562524,0.308842603189134,-1.06324864576181
1580423499.79869,-1.20973525597009,0.28784618905928,-0.997329671168078
1580423499.83076,-1.63015182726787,0.0539559014267184,-0.720469977874417
1580423499.86282,-1.67556267643244,0.246341649500266,-0.00317387655451284
1580423499.89489,-1.6023193713283,0.136476691844052,0.552010376134891
1580423499.92696,-0.980239566643778,-0.201907377737086,1.072526131075
1580423499.95926,-0.88014038300145,0.0158693827725642,1.51931029221027
1580423499.99133,-0.875257495994507,0.284916456855115,1.06227206836042
1580423500.02339,-0.904554818036164,0.0466315709163041,-0.0075684748607614
1580423500.05546,-1.63503471427481,0.181399252307926,-0.462653543907836
1580423500.08753,-1.46266880292973,-0.276127260242619,-0.472419317921721
1580423500.1196,-1.19264515144579,0.0402838178072784,-0.768810559243153
1580423500.15167,-0.85963225757229,-0.0896009765774011,-0.971450370031281
1580423500.18374,-0.450934615091173,-0.273685816739148,-1.04615854123751
1580423500.2158,-0.338139925230793,-0.378179598687725,-0.954848554207675
1580423500.24787,-0.567635614557107,-0.453864347295339,-0.939711604486153
1580423500.27994,-0.793713282978562,-0.201419089036392,-0.853284504463264
1580423500.31201,-0.960219729915313,-0.124269474326695,-1.01734950789654
1580423500.34408,-0.786388952468148,-0.0104982070649271,-0.805432211795225
1580423500.37615,-0.301029983978028,-0.805920500495919,-0.879163805600061
1580423500.40821,-0.037842374303807,-0.00952162966353853,-0.680430304417486
1580423500.44028,-0.314213778896773,0.707774471656368,0.710215915159839
1580423500.47235,-2.71708247501335,0.440192263675897,-0.667246509498741
1580423500.50442,-0.503181506065461,-1.13649195086595,-1.69118791485466
1580423500.53649,-0.685801480125123,0.402594033722437,-1.06129549095903
1580423500.56855,-1.40749217975128,0.173586633096818,-1.10035858701457
1580423500.60062,-1.20143434805829,0.12475776302739,-0.990005340657664
1580423500.63269,-0.971450370031281,0.218020904859998,-1.26393530174716
1580423500.66476,-1.32448310063325,0.310307469291217,-1.01930266269932
1580423500.69683,-1.64870679789425,0.182375829709315,-0.598397802700847
1580423500.7289,-1.78298619058518,0.0827649347676811,0.0148928053711757
1580423500.76096,-1.49050125886931,0.146730754558632,0.583260852979326
1580423500.79303,-0.885999847409781,-0.122804608224612,1.04274052033265
1580423500.8251,-0.845471885252156,0.0861829556725411,1.39137865262837
1580423500.85717,-0.824475471122302,0.190676737621118,1.03395132372015
1580423500.88924,-0.760021362630656,0.10766765850309,0.0437018387121384
1580423500.92131,-1.37282368200198,0.151613641565575,-0.614511329823758
1580423500.95337,-1.71511406118868,-0.190676737621118,-0.256107423514154
1580423500.98544,-1.14674601358053,-0.0354009308003356,-0.693614099336232
1580423501.01751,-1.01490806439307,-0.131105516136415,-0.968520637827115
1580423501.04958,-0.726329442282749,-0.359624628061342,-1.03053330281529
1580423501.08165,-0.601815823605707,-0.36401922636759,-0.912855725947967
1580423501.11372,-0.824963759822996,-0.37427328908217,-0.753673609521631
1580423501.14578,-0.823498893720913,-0.34351110093843,-0.91773861295491
1580423501.17785,-0.830823224231327,-0.294682230869002,-0.975356679636835
1580423501.20992,-0.537361715114061,0.0192874036774242,-1.0378576333257
1580423501.24179,-0.620859082932784,-0.223392080567635,-0.915785458152133
1580423501.27386,0.128664072632944,-0.679453727016098,-0.994399938963912
1580423501.30593,0.00122072175173571,-0.0793469138628211,-1.08522163729305
1580423501.33799,-2.53397421225299,0.497810330357822,0.242923628595406
1580423501.37006,-0.699473563744563,-0.841565575646602,-1.48513008316167
1580423501.40213,-0.397222858014802,0.765392538338293,-0.908461127641718
1580423501.4342,-1.23659113450828,-0.229251544975966,-1.18092622262913
1580423501.46627,-1.149187457084,-0.0544441901274126,-1.14576943617914
1580423501.49834,-1.27077134355688,0.223880369268329,-1.17213702601663
1580423501.53041,-1.38747234302281,0.126710917830167,-1.00660715648127
1580423501.56247,-1.661890592813,0.181887541008621,-0.629648279545281
1580423501.59454,-1.86257724879835,0.151125352864881,0.176028076600289
1580423501.62661,-1.27174792095827,-0.024170290684367,0.77759975585565
1580423501.65868,-0.696543831540398,-0.112550545510032,1.34450293736171
1580423501.69075,-0.681895170519569,0.117433432516975,1.53835355153735
1580423501.72281,-0.72877088578622,0.0271000228885327,0.841077286945907
1580423501.75488,-0.885511558709087,-0.120851453421835,-0.0280766002899213
1580423501.78695,-1.96658274204623,0.134035248340581,-0.425055313954376
1580423501.81902,-1.42702372777905,-0.0832532234683754,-0.679453727016098
1580423501.85109,-1.44655527580682,-0.00219729915312428,-0.888929579613947
1580423501.88315,-1.02174410620279,-0.265873197528039,-1.07594415197986
1580423501.91522,-0.544686045624475,-0.297611963073168,-1.11842526894026
1580423501.94729,-0.349858854047456,-0.118410009918364,-1.05836575875486
1580423501.97936,-0.516853589684901,-0.270756084534982,-0.997817959868772
1580423502.01143,-0.590096894789044,-0.347417410543985,-1.00611886778058
1580423502.0435,-0.6877546349279,-0.429938200961319,-1.19411001754787
1580423502.07556,-0.793224994277868,0.096437018387121,-1.18532082093538
1580423502.10763,-0.496833752956436,-0.137941557946135,-0.824963759822996
1580423502.1397,0.0173342488746471,-0.888441290913253,-0.913344014648661
1580423502.17177,-0.0822766460669868,0.435309376668954,-0.00219729915312428
1580423502.20384,-2.51688410772869,0.922621499961853,1.16432440680552
1580423502.23591,-0.890882734416724,-0.461188677805753,-0.158937972075989
1580423502.26797,0.0104982070649271,-0.277103837644008,-1.00465400167849
1580423502.30004,-1.18629739833677,0.0661631189440754,-1.07350270847639
1580423502.33211,-1.23659113450828,0.0969253070878153,-1.08668650339513
1580423502.36418,-1.13600366216525,0.238040741588463,-1.05641260395209
1580423502.39625,-1.23366140230411,0.191653315022506,-1.1150072480354
1580423502.42832,-1.55007248035401,0.130128938735027,-0.681895170519569
1580423502.46038,-1.76882581826505,0.145754177157244,-0.163820859082932
1580423502.49245,-1.74392309452964,0.11108567940795,0.58033112077516
1580423502.52463,-1.0808270389868,-0.00805676356145568,1.41774624246586
1580423502.5567,-0.420172426947433,0.114991989013504,1.70046540016785
1580423502.58876,-0.891859311818113,0.282475013351643,0.841077286945907
1580423502.62083,-0.808850232700085,0.126710917830167,0.044678416113527
1580423502.6529,-1.40651560234989,0.0905775539787896,-0.481696803234913
1580423502.68497,-1.88064393072404,-0.00415045395590141,-0.302006561379416
1580423502.71704,-1.26637674525063,0.145754177157244,-0.819104295414665
1580423502.74911,-1.07594415197986,-0.0905775539787896,-0.981704432745861
1580423502.78118,-0.686289768825818,-0.488044556343938,-1.08424505989166
1580423502.81325,-0.234134431982909,-0.554451819638361,-1.04420538643473
1580423502.84531,-0.579354543373769,-0.339604791332876,-0.943617914091707
1580423502.87738,-0.595468070496681,-0.166262302586404,-0.875257495994507
1580423502.90945,-0.655039291981383,-0.164797436484321,-1.1833676661326
1580423502.94152,-0.84596017395285,-0.239017318989852,-1.08180361638819
1580423502.97359,-0.344975967040513,-0.529060807202258,-0.874769207293813
1580423503.00566,-0.0319829098954756,-0.349858854047456,-0.778576333257039
1580423503.03773,-0.101319905394064,0.736583504997331,-0.363530937666896
1580423503.0698,-2.9861295490959,0.354253452353703,-0.32983901731899
1580423503.10186,-0.645761806668192,-1.37428854810407,-1.2859082932784
1580423503.13393,-0.456794079499504,0.697520408941788,-1.19264515144579
1580423503.166,-1.49098954757,-0.169192034790569,-1.03248645761807
1580423503.19807,-1.16188296330205,0.0827649347676811,-1.11598382543679
1580423503.23014,-1.06324864576181,0.419684138246737,-1.18043793392843
1580423503.26221,-1.44411383230335,0.146242465857938,-0.978286411841001
1580423503.29428,-1.70193026626993,0.106691081101701,-0.50415808346685
1580423503.32635,-1.73171587701228,0.275150682841229,0.271732661936369
1580423503.35841,-1.320088502327,0.165774013885709,0.760509651331351
1580423503.39048,-0.74927901121538,0.0285648889906156,1.39333180743114
1580423503.42255,-0.657969024185549,0.158449683375295,1.26930647745479
1580423503.45462,-0.78101777676051,0.0593270771343555,0.760509651331351
1580423503.48669,-0.854261081864653,-0.0866712443732354,-0.0817883573662925
1580423503.51876,-1.49684901197833,-0.0124513618677042,-0.533455405508507
1580423503.55083,-1.50026703288319,-0.158449683375295,-0.35718318455787
1580423503.5829,-1.35524528877699,0.152590218966964,-0.832776379034105
1580423503.61496,-1.03932249942779,0.0202639810788128,-0.942641336690318
1580423503.64703,-0.885999847409781,-0.267826352330816,-1.06861982146944
1580423503.6791,-0.740978103303577,-0.53833829251545,-0.96217288471809
1580423503.71117,-0.720469977874417,-0.495857175555047,-0.761974517433433
1580423503.74324,-0.704356450751506,0.00317387655451284,-0.863538567177844
1580423503.77531,-0.895277332722973,0.0676279850461583,-1.10426489662013
1580423503.80743,-0.293705653467613,-0.362554360265507,-1.22536049439231
1580423503.8395,-0.285893034256505,-0.570077058060578,-1.16920729381247
1580423503.87157,0.357183184557869,-0.42554360265507,-1.15358205539025
1580423503.90364,-0.286869611657893,0.700938429846648,0.565682459754331
1580423503.93571,-3.9431754024567,1.61403830014496,-0.48706797894255
1580423503.96778,-0.215579461356526,-1.4314183260853,-2.24197756923781
1580423503.99985,-1.00465400167849,0.519783321889069,-1.54079499504082
1580423504.03191,-1.1745784695201,-0.12133974212253,-1.12770275425345
1580423504.06398,-1.27223620965896,0.440680552376591,-1.09254596780346
1580423504.09605,-1.04420538643473,0.261478599221789,-1.12574959945067
1580423504.12812,-1.28786144808118,0.212649729152361,-0.972915236133364
1580423504.16019,-1.78298619058518,0.217044327458609,-0.473884184023804
1580423504.19226,-1.79421683070115,0.114015411612115,0.258548867017623
1580423504.22433,-1.39577325093462,0.110109102006561,0.906019684138247
1580423504.2564,-0.696543831540398,0.0954604409857325,1.4826886396582
1580423504.28847,-0.616952773327229,0.203372243839169,1.243427176318
1580423504.32053,-0.664805065995269,0.0827649347676811,0.340581368734263
1580423504.3526,-0.869398031586176,0.126710917830167,-0.144777599755855
1580423504.38467,-1.55690852216373,0.268314641031509,-0.596932936598764
1580423504.41674,-1.46803997863737,-0.156496528572518,-0.544197756923781
1580423504.44881,-1.38356603341726,-0.0427252613107498,-0.780041199359122
1580423504.48088,-0.94508278019379,-0.170168612191958,-0.93824673838407
1580423504.51295,-0.639902342259861,-0.447516594186313,-1.01490806439307
1580423504.54501,-0.630624856946669,-0.481208514534218,-0.846448462653544
1580423504.57708,-0.717540245670252,-0.34692912184329,-0.815686274509805
1580423504.60915,-0.773205157549402,-0.159914549477378,-0.871351186388953
1580423504.64122,-0.834241245136187,0.125246051728084,-1.13551537346456
1580423504.67329,-0.509529259174487,-0.214114595254443,-1.17653162432288
1580423504.70536,-0.404547188525216,-0.697520408941786,-1.1067063401236
1580423504.73743,0.168215457389181,-0.578866254673075,-1.01100175478752
1580423504.7695,-0.281986724650951,0.463630121309222,-0.556893263141832
1580423504.80156,-3.70293736171511,0.436285954070343,-0.348882276646068
1580423504.83363,-0.654062714579995,-2.35672541390097,-1.17116044861524
1580423504.8657,-0.0236820019836728,0.843518730449379,-1.06520180056458
1580423504.89777,-1.42507057297627,0.163820859082932,-1.09889372091249
1580423504.92984,-1.21071183337148,0.0212405584802013,-0.988540474555581
1580423504.96191,-0.99977111467155,0.212161440451666,-1.12672617685206
1580423504.99398,-1.31471732661936,0.186770428015564,-0.996841382467384
1580423505.02604,-1.59597161821927,-0.0441901274128327,-0.957289997711147
1580423505.05811,-1.92117189288167,0.0651865415426869,-0.251712825207905
1580423505.09039,-1.69216449225605,0.177492942702372,0.811291676203556
1580423505.12246,-0.889417868314641,0.311284046692606,1.45339131761654
1580423505.15453,-0.41187151903563,0.176516365300984,1.91580071717403
1580423505.1866,-0.749767299916074,0.263431754024566,1.33620202944991
1580423505.21867,-0.910414282444496,0.0852063782711525,0.120363164721141
1580423505.25074,-1.56081483176928,0.0222171358815899,-0.906507972838941
1580423505.2828,-1.90554665445945,-0.144289311055161,-0.379644464789807
1580423505.31487,-1.21559472037842,0.185793850614175,-0.85621423666743
1580423505.34694,-0.81861600671397,0.0734874494544897,-0.978774700541695
1580423505.37901,-0.669687953002212,-0.233646143282215,-1.12819104295415
1580423505.41108,-0.447028305485619,-0.498298619058518,-0.999282825970855
1580423505.44315,-0.556893263141832,-0.515388723582818,-0.942641336690318
1580423505.47522,-0.563241016250858,-0.32300297550927,-1.04957656214237
1580423505.50729,-0.606698710612649,-0.0261234454871442,-1.16920729381247
1580423505.53936,-0.683848325322346,0.0104982070649271,-1.29860379949645
1580423505.57142,-0.641367208361943,-0.307377737087053,-0.905531395437553
1580423505.60349,0.0383306630045013,-1.09108110170138,-0.873792629892424
1580423505.63556,-0.0183108262760356,0.0651865415426869,-0.11792172121767
1580423505.66763,-2.19803158617533,0.240970473792629,0.348882276646066
1580423505.6997,-1.08375677119097,-1.90847638666362,-0.978286411841001
1580423505.73177,0.257572289616235,0.0690928511482412,-1.13502708476387
1580423505.76384,-1.30592813000687,0.453376058594642,-1.13893339436942
1580423505.7959,-1.26540016784924,0.385015640497443,-1.1408865491722
1580423505.82797,-1.14479285877775,0.101319905394064,-1.14235141527428
1580423505.86004,-1.33864347295338,0.161379415579461,-1.01686121919585
1580423505.89211,-1.64919508659495,-0.143801022354467,-0.753673609521631
1580423505.92418,-1.79519340810254,-0.0407721065079727,-0.0642099641412983
1580423505.95625,-1.63747615777829,0.00805676356145568,0.587655451285574
1580423505.98832,-0.756603341725796,0.303959716182192,1.26930647745479
1580423506.02039,-0.462165255207141,0.404547188525214,1.44460212100404
1580423506.05245,-0.848889906157016,0.269779507133592,0.892347600518807
1580423506.08452,-0.885999847409781,0.112550545510032,0.077393759060044
1580423506.11659,-1.44216067750057,0.187258716716258,-0.42896162355993
1580423506.14866,-1.92117189288167,-0.128175783932249,-0.404058899824522
1580423506.18073,-1.21364156557565,0.0354009308003356,-1.0207675288014
1580423506.2128,-0.969497215228504,-0.0046387426565957,-1.03883421072709
1580423506.24487,-0.717540245670252,-0.284428168154422,-1.04078736552987
1580423506.27694,-0.424078736552987,-0.477790493629358,-1.0295567254139
1580423506.309,-0.559822995345998,-0.410894941634242,-0.805920500495919
1580423506.34107,-0.665293354695963,-0.320561532005799,-0.943617914091707
1580423506.37335,-0.850354772259099,-0.38794537270161,-0.97584496833753
1580423506.40542,-0.71168078126192,-0.164797436484321,-1.22389562829023
1580423506.43749,-0.642832074464026,-0.420172426947433,-0.944106202792401
1580423506.46956,0.0334477759975584,-0.332768749523156,-0.764904249637599
1580423506.50163,-0.0407721065079727,-0.470954451819638,-0.74586099031052
1580423506.53369,-0.404547188525216,1.18776226443885,1.34303807125963
1580423506.56576,-2.48319218738079,-0.0622568093385212,-1.72048523689631
1580423506.59783,-0.587167162584878,-1.82009613183795,-1.6531013962005
1580423506.6299,-0.855725947966736,0.844495307850767,-1.47829404135195
1580423506.66197,-1.15895323109789,0.213138017853055,-0.927016098268101
1580423506.69404,-1.06227206836042,0.116456855115587,-1.07985046158541
1580423506.72611,-1.01490806439307,0.0842298008697639,-1.08131532768749
1580423506.75818,-1.24489204242008,0.0187991149767299,-1.04322880903334
1580423506.79024,-1.50710307469291,-0.0202639810788128,-0.873792629892424
1580423506.82231,-1.93679713130388,0.0837415121690697,-0.23999389639124
1580423506.85438,-1.87038986800946,0.51538872358282,0.851331349660487
1580423506.88645,-0.799572747386893,-0.320561532005799,1.3283894102388
1580423506.91852,-0.706797894254978,-0.0578622110322726,1.60134279392691
1580423506.95059,-0.861097123674373,0.440680552376591,0.788342107270925
1580423506.98266,-0.859143968871596,0.0803234912642097,0.0100099183642328
1580423507.01473,-1.47731746395056,0.0305180437933927,-0.516365300984207
1580423507.04679,-1.64773022049287,-0.203860532539863,-0.40503547722591
1580423507.07886,-1.11989013504234,0.080811779964904,-0.80836194399939
1580423507.11093,-0.900160219729916,-0.0539559014267184,-1.00758373388266
1580423507.143,-0.689219501029983,-0.275150682841231,-1.01588464179446
1580423507.17507,-0.475349050125887,-0.456794079499504,-0.949477378500038
1580423507.20714,-0.629648279545281,-0.440192263675899,-0.703379873350118
1580423507.23921,-0.672617685206378,-0.283451590753033,-0.889906157015336
1580423507.27128,-0.947035934996567,-0.2434119172961,-0.937270160982681
1580423507.30334,-0.657969024185549,0.0915541313801782,-1.03883421072709
1580423507.33541,-0.561776150148775,-0.361089494163425,-0.928969253070878
1580423507.36748,0.135988403143358,-0.884534981307699,-1.14869916838331
1580423507.39955,-0.0222171358815899,-0.0407721065079727,-0.816662851911193
1580423507.43162,-1.57253376058595,1.39772640573739,1.81179522392615
1580423507.46369,-0.81519798580911,-0.918715190356298,-0.213138017853055
1580423507.49576,0.251224536507209,-0.428473334859236,-1.16188296330205
1580423507.52783,-1.3371786068513,0.615487907225148,-0.858167391470207
1580423507.5599,-1.03590447852293,0.28442816815442,-1.05836575875486
1580423507.59196,-1.10768291752499,-0.0505378805218584,-1.14283970397497
1580423507.62403,-1.09938200961318,0.0920424200808725,-1.19459830624857
1580423507.65607,-1.57741664759289,0.187747005416952,-0.952407110704204
1580423507.68814,-1.85574120698863,0.201907377737086,-0.229739833676661
1580423507.7202,-1.86355382619974,0.305912870984969,0.611581597619594
1580423507.75227,-0.937270160982681,0.0305180437933927,1.35671015487907
1580423507.78434,-0.540779736018921,0.166262302586404,1.49831387808041
1580423507.81641,-0.918715190356298,0.167238879987792,0.789806973373008
1580423507.84848,-0.882093537804227,0.101808194094758,0.205325398641946
1580423507.88055,-1.41774624246586,0.127687495231555,-0.736583504997329
1580423507.91262,-1.83767452506294,-0.0910658426794839,-0.32983901731899
1580423507.94469,-1.28346684977493,-0.177981231403066,-0.775158312352179
1580423507.97676,-0.936781872281987,-0.139406424048218,-0.930434119172961
1580423508.00883,-0.652597848477912,-0.340581368734265,-0.991958495460441
1580423508.0409,-0.48706797894255,-0.406988632028687,-0.943617914091707
1580423508.07297,-0.482185091935607,-0.431403067063401,-0.783947508964676
1580423508.10503,-0.699961852445258,-0.43237964446479,-1.02906843671321
1580423508.1371,-0.877698939497979,-0.35718318455787,-0.901136797131304
1580423508.16917,-0.736095216296635,0.168703746089875,-1.23121995880064
1580423508.20124,-0.731212329289692,-0.0700694285496297,-0.972915236133364
1580423508.23331,0.0798352025635154,-0.659433890287632,-0.979751277943084
1580423508.26538,0.0393072404058898,-0.589608606088349,-1.12135500114443
1580423508.29745,-0.623788815136949,0.734142061493859,1.65212481879912
1580423508.32952,-2.01394674601358,0.234134431982909,0.454840924696725
1580423508.36159,0.197512779430838,-0.474372472724498,-1.45192645151446
1580423508.39366,-1.16774242771038,0.523689631494623,-1.14821087968261
1580423508.42573,-1.04469367513542,0.142336156252384,-0.947035934996567
1580423508.4578,-1.17848477912566,0.178957808804455,-1.0378576333257
1580423508.48987,-1.20094605935759,0.0876478217746239,-1.10182345311665
1580423508.52193,-1.34254978255894,0.134035248340581,-0.816662851911193
1580423508.554,-1.7219501029984,0.177981231403066,-0.283451590753033
1580423508.58607,-1.78347447928588,0.156984817273212,0.388433661402303
1580423508.61814,-1.2175478751812,0.0461432822156098,1.08375677119097
1580423508.65021,-0.430426489662013,0.384039063096054,1.72585641260395
1580423508.68228,-0.617441062027924,0.203372243839169,1.27272449835965
1580423508.71435,-0.901136797131304,0.0373540856031127,0.835217822537576
1580423508.74642,-1.16090638590066,0.115480277714198,-0.122316319523918
1580423508.77849,-1.96658274204623,0.114015411612115,-0.703868162050812
1580423508.81056,-1.4055390249485,-0.144289311055161,-0.675547417410543
1580423508.84263,-1.10133516441596,0.0866712443732354,-0.968520637827115
1580423508.8747,-0.71509880216678,-0.251224536507211,-1.0383459220264
1580423508.90677,-0.392828259708553,-0.429938200961319,-1.01539635309377
1580423508.93909,-0.216067750057221,-0.395757991912719,-0.934340428778516
1580423508.97116,-0.430914778362707,-0.342534523537042,-0.847425040054933
1580423509.00323,-0.564705882352941,-0.202883955138475,-0.935805294880598
1580423509.0353,-0.854261081864653,-0.0617685206378269,-0.974380102235447
1580423509.06737,-1.01197833218891,0.150148775463492,-1.06324864576181
1580423509.09944,-0.37085526817731,-0.537361715114061,-0.953871976806287
1580423509.13151,0.0583504997329669,-0.492439154650187,-0.872327763790341
1580423509.16358,-0.164309147783626,0.519295033188374,0.219485770962081
1580423509.19565,-3.18486305027848,0.698496986343176,-0.376226443884947
1580423509.22772,-0.778088044556345,-1.26491187914855,-1.27418936446174
1580423509.25979,-0.256595712214848,0.287357900358586,-1.01197833218891
1580423509.29186,-1.36110475318532,0.118410009918364,-1.01441977569238
1580423509.32393,-1.38063630121309,0.401129167620354,-0.993423361562524
1580423509.356,-0.930922407873656,0.198977645532921,-1.18922713054093
1580423509.38807,-1.30836957351034,0.114991989013504,-0.986587319752804
1580423509.42014,-1.77566186007477,0.0837415121690697,-0.594003204394598
1580423509.45221,-1.81081864652476,0.177004654001678,0.0568856336308841
1580423509.48428,-1.55495536736095,0.0588387884336612,0.882093537804227
1580423509.51635,-0.732677195391775,0.158937972075989,1.57253376058595
1580423509.54842,-0.544197756923781,0.120851453421835,1.35524528877699
1580423509.58049,-0.984145876249332,0.0393072404058898,0.865003433279927
1580423509.61256,-0.954848554207675,0.0817883573662925,0.109132524605172
1580423509.64463,-1.77419699397269,0.301029983978026,-0.782970931563288
1580423509.6767,-1.48805981536584,0.00415045395590141,-0.527595941100175
1580423509.70877,-1.29909208819715,0.116456855115587,-0.91773861295491
1580423509.74084,-0.80494392309453,-0.0983901731898982,-1.10817120622568
1580423509.77291,-0.611093308918898,-0.46314183260853,-1.13307392996109
1580423509.80498,-0.460700389105059,-0.683360036621652,-1.02418554970626
1580423509.83705,-0.462165255207141,-0.457282368200199,-0.761486228732739
1580423509.86912,-0.608163576714732,-0.104737926298924,-1.11012436102846
1580423509.90119,-1.08229190508888,0.0690928511482412,-1.07887388418402
1580423509.93326,-0.426031891355764,-0.342534523537042,-1.39870298313878
1580423509.96533,-0.77076371404593,-0.649668116273746,-0.981216144045167
1580423509.9974,0.307377737087052,-0.044678416113527,-0.785412375066759
1580423510.02947,-0.273197528038454,0.000732433051041426,0.112550545510032
1580423510.06154,-2.593057145037,0.836194399938964,1.06178377965972
1580423510.09361,-1.00758373388266,-1.02858014801251,-1.62087434195468
1580423510.12568,-0.136964980544747,0.177004654001678,-0.854749370565347
1580423510.15775,-1.34450293736172,-0.027588311589227,-1.23805600061036
1580423510.18982,-1.3112993057145,0.198977645532921,-1.1237964446479
1580423510.22211,-0.901136797131304,0.121828030823224,-1.1579766536965
1580423510.25418,-1.26588845654994,0.245853360799572,-1.11451895933471
1580423510.28625,-1.661890592813,0.0988784618905925,-0.79127183947509
1580423510.31832,-1.6535896849012,0.080811779964904,-0.228274967574578
1580423510.35039,-1.82595559624628,0.00122072175173571,0.438727397573814
1580423510.38246,-1.14283970397497,0.0822766460669868,1.33522545204852
1580423510.41453,-0.393316548409247,0.286869611657892,1.71511406118868
1580423510.4466,-0.942641336690318,-0.0656748302433812,0.85279621576257
1580423510.47867,-0.821545738918136,-0.0715342946517126,0.268802929732203
1580423510.51075,-1.36501106279088,0.185793850614175,-0.621835660334172
1580423510.54282,-2.00906385900664,-0.0163576714732585,-0.317631799801633
1580423510.57489,-1.36647592889296,-0.00122072175173571,-0.763439383535516
1580423510.60696,-1.13551537346456,0.0153810940718699,-1.01930266269932
1580423510.63903,-0.672129396505683,-0.304448004882888,-1.03590447852293
1580423510.6711,-0.465094987411307,-0.42896162355993,-0.919691767757687
1580423510.70317,-0.527595941100175,-0.431891355764096,-0.747814145113297
1580423510.73524,-0.632578011749446,-0.360112916762036,-0.976333257038224
1580423510.76731,-0.789318684672313,-0.118898298619058,-0.945571068894484
1580423510.79939,-0.620370794232089,0.0500495918211641,-1.44655527580682
1580423510.83146,-0.89723048752575,-0.376714732585642,-0.934340428778516
1580423510.86353,0.0813000686655982,-0.893324177920196,-0.902601663233387
1580423510.8956,0.0153810940718699,0.0515144579232469,-1.00318913557641
1580423510.92767,-0.434332799267567,1.225848783093,1.84792858777752
1580423510.95974,-2.53934538796063,-0.327397573815519,-0.582772564278629
1580423510.99181,-0.527107652399481,-1.25123979552911,-1.51100938429847
1580423511.02388,-0.591561760891127,1.06617837796597,-1.22682536049439
1580423511.05596,-1.11940184634165,0.297611963073166,-0.924086366063936
1580423511.08803,-1.29567406729229,0.0451667048142212,-1.02174410620279
1580423511.1201,-1.09889372091249,0.24682993820096,-1.02565041580835
1580423511.15217,-1.31081101701381,0.00170901045242999,-0.887953002212559
1580423511.18424,-1.71902037079423,-0.0407721065079727,-0.55542839703975
1580423511.21631,-1.74636453803311,0.202883955138475,0.114991989013504
1580423511.24838,-1.41676966506447,0.181399252307926,0.887953002212559
1580423511.28045,-0.695567254139009,0.01196307316701,1.23268482490272
1580423511.31252,-0.703379873350118,0.130128938735027,1.10524147402151
1580423511.3446,-0.907972838941024,0.153566796368352,0.851331349660487
1580423511.37667,-0.979751277943084,0.144777599755855,0.32544441901274
1580423511.40874,-1.79421683070115,0.0456549935149155,-0.572518501564049
1580423511.44081,-1.58815899900816,-0.0305180437933927,-0.724376287479972
1580423511.47288,-1.35329213397421,0.111573968108644,-0.86988632028687
1580423511.50507,-0.90064850843061,-0.0949721522850382,-1.06324864576181
1580423511.53714,-0.597421225299458,-0.560799572747387,-1.0637369344625
1580423511.56921,-0.506599526970321,-0.629648279545281,-0.865980010681316
1580423511.60128,-0.38794537270161,-0.362066071564813,-0.81177996490425
1580423511.63335,-0.51441214618143,-0.142336156252384,-0.919203479056993
1580423511.66542,-0.753673609521631,0.0905775539787896,-1.09254596780346
1580423511.69749,-0.632578011749446,-0.336186770428016,-1.31276417181659
1580423511.72957,-0.586190585183489,-0.785412375066759,-0.966079194323644
1580423511.76164,-0.031006332494087,-0.048096437018387,-0.683848325322346
1580423511.79371,-0.0471198596169984,0.567635614557108,-0.257084000915542
1580423511.82578,-2.89579613946746,-0.178469520103761,-0.0202639810788128
1580423511.85785,-0.84937819485771,-1.62185091935607,-0.954848554207675
1580423511.88993,0.0627450980392155,0.810803387502862,-0.860120546272984
1580423511.922,-1.32350652323186,0.240970473792629,-1.14381628137636
1580423511.95407,-1.24831006332494,-0.169192034790569,-1.072526131075
1580423511.98614,-0.922621499961853,0.164797436484321,-1.10914778362707
1580423512.01821,-1.24196231021591,0.313237201495383,-1.00904859998474
1580423512.05028,-1.49587243457694,-0.138918135347524,-0.951430533302815
1580423512.08235,-1.60036621652552,0.116945143816281,-0.368413824673839
1580423512.11443,-1.75954833295186,0.375738155184251,0.276127260242617
1580423512.1465,-1.21364156557565,0.300053406576637,1.09205767910277
1580423512.17857,-0.594003204394598,-0.0075684748607614,1.76198977645533
1580423512.21064,-0.833264667734799,0.0861829556725411,1.19752803845273
1580423512.24271,-1.02760357061112,0.0686045624475469,0.588143739986268
1580423512.27478,-1.3542687113756,0.297611963073166,-0.244876783398183
1580423512.30685,-1.88357366292821,0.24682993820096,-0.251224536507211
1580423512.33893,-1.45632104982071,0.123292896925307,-0.89039444571603
1580423512.371,-1.08766308079652,0.0236820019836728,-1.0124666208896
1580423512.40307,-0.772716868848708,-0.438239108873121,-1.11940184634165
1580423512.43514,-0.443121995880064,-0.663340199893186,-1.03443961242084
1580423512.46721,-0.506599526970321,-0.467536430914778,-0.897718776226444
1580423512.49928,-0.559822995345998,-0.226810101472495,-1.00611886778058
1580423512.53136,-0.766369115739682,-0.159914549477378,-1.00465400167849
1580423512.56343,-0.51099412527657,-0.520271610589761,-1.43044174868391
1580423512.5955,-0.56568245975433,-0.576424811169604,-1.1403982604715
1580423512.62757,0.108644235904478,-0.274662394140536,-0.925551232166018
1580423512.65964,-0.0607919432364383,0.682871747920959,-0.0646982528419926
1580423512.69171,-2.96513313496605,0.515877012283514,0.833752956435493
1580423512.72379,-0.674570840009155,-1.01832608529793,-0.49732204165713
1580423512.75586,0.276615548943312,0.201419089036392,-1.09010452429999
1580423512.78809,-1.38307774471656,0.425543602655068,-1.14332799267567
1580423512.82016,-1.23024338139925,-0.361577782864119,-0.993911650263218
1580423512.85223,-1.05934233615625,0.146730754558632,-1.1150072480354
1580423512.8843,-1.15260547798886,0.364019226367589,-1.12574959945067
1580423512.91637,-1.44753185320821,-0.0192874036774242,-0.895765621423667
1580423512.94845,-1.84841687647822,-0.0568856336308841,-0.345464255741208
1580423512.98052,-1.81960784313726,0.206301976043335,0.3972228580148
1580423513.01259,-1.15260547798886,0.129152361333638,1.12574959945067
1580423513.04466,-0.313237201495385,0.229251544975966,1.67360952162966
1580423513.07673,-0.580331120775158,0.236087586785686,1.01734950789654
1580423513.10881,-0.936293583581293,0.249759670405126,0.519295033188374
1580423513.14088,-1.36501106279088,0.223880369268329,-0.351323720149539
1580423513.17295,-2.1487144274052,0.125734340428778,-0.155519951171129
1580423513.20502,-1.58669413290608,-0.0935072861829553,-0.78101777676051
1580423513.23709,-1.16920729381247,-0.0852063782711525,-1.00172426947433
1580423513.26917,-0.744884412909132,-0.381597619592585,-0.988052185854887
1580423513.30124,-0.491950865949493,-0.45972381170367,-0.894789044022279
1580423513.33331,-0.621835660334172,-0.439703974975204,-0.844007019150073
1580423513.36538,-0.718028534370946,-0.135988403143358,-0.933852140077821
1580423513.39745,-0.969985503929198,-0.0974135957885096,-0.897718776226444
1580423513.42953,-0.488044556343938,-0.373296711680782,-1.26442359044785
1580423513.4616,-0.604257267109178,-0.365484092469673,-0.969497215228504
1580423513.49367,0.194583047226672,-0.442145418478676,-0.855725947966736
1580423513.52574,0.0129396505683985,0.177492942702372,-0.308842603189136
1580423513.55781,-2.10916304264897,0.414801251239794,0.271732661936369
1580423513.58989,-1.05836575875486,-1.22487220569161,-1.25026321812772
1580423513.62196,-0.138918135347524,-0.0485847257190812,-0.785412375066759
1580423513.65403,-1.10865949492637,0.237552452887769,-1.25075150682841
1580423513.6861,-1.26491187914855,-0.0612802319371326,-1.24635690852216
1580423513.71818,-1.04127565423056,0.0178225375753414,-1.27907225146868
1580423513.75025,-1.25270466163119,0.325932707713434,-1.13942168307011
1580423513.78232,-1.51247425040055,0.0158693827725642,-0.813733119707027
1580423513.81439,-1.74978255893797,-0.00708018616006711,-0.268314641031511
1580423513.84646,-1.69851224536507,0.30493629358358,0.379156176089111
1580423513.87854,-1.09059281300069,0.323491264209963,0.86305027847715
1580423513.91061,-0.468513008316167,0.0852063782711525,1.45778591592279
1580423513.94268,-0.735118638895246,0.037842374303807,1.09156939040207
1580423513.97475,-0.775646601052873,0.00219729915312428,0.716563668268865
1580423514.00682,-1.25026321812772,0.0329594872968642,-0.294682230869002
1580423514.0389,-2.11306935225452,0.099855039291981,-0.298588540474556
1580423514.07107,-1.41872281986725,-0.231692988479438,-0.885999847409781
1580423514.10315,-1.22096589608606,-0.0261234454871442,-1.01881437399863
1580423514.13522,-0.758556496528573,-0.131105516136415,-1.12672617685206
1580423514.16729,-0.503669794766155,-0.298100251773862,-1.10182345311665
1580423514.19936,-0.459235523002976,-0.547615777828641,-0.952407110704204
1580423514.23144,-0.561776150148775,-0.642832074464026,-0.989028763256275
1580423514.26351,-0.599374380102235,-0.332768749523156,-0.861097123674373
1580423514.29558,-0.693125810635538,-0.0534676127260241,-1.09742885481041
1580423514.32765,-0.677012283512626,-0.260013733119708,-1.19703974975204
1580423514.35973,-0.127199206530861,-0.675547417410543,-1.08424505989166
1580423514.3918,0.0163576714732585,-0.443610284580759,-0.903578240634776
1580423514.42387,-0.210208285648889,0.940199893186847,0.350835431448843
1580423514.45595,-3.45732814526589,0.138918135347524,-0.837170977340353
1580423514.48802,-0.464118410009918,-2.40311284046693,-1.63454642557412
1580423514.52009,-0.410894941634242,0.906019684138247,-1.14723430228122
1580423514.55216,-1.42555886167697,0.187747005416952,-0.943617914091707
1580423514.58424,-1.15065232318608,-0.114015411612115,-1.07692072938125
1580423514.61631,-1.0036774242771,0.128175783932249,-1.17799649042496
1580423514.64838,-1.26784161135271,0.33911650263218,-1.13649195086595
1580423514.68045,-1.54714274814984,0.126710917830167,-0.785412375066759
1580423514.71253,-1.74831769283589,0.0822766460669868,-0.172610055695429
1580423514.7446,-1.75124742504006,0.173586633096818,0.523201342793929
1580423514.77667,-1.25026321812772,0.289799343862057,1.44167238879988
1580423514.80874,-0.298588540474556,0.077393759060044,1.7136491950866
1580423514.84082,-0.803967345693142,-0.0148928053711757,0.98609903105211
1580423514.87289,-1.06178377965972,0.108155947203784,0.188723582818341
1580423514.90496,-1.6877698939498,0.362554360265506,-0.629648279545281
1580423514.93703,-1.67751583123522,0.0549324788281069,-0.32300297550927
1580423514.96911,-1.23024338139925,0.150148775463492,-0.766369115739682
1580423515.00118,-0.96559090562295,-0.0456549935149155,-0.957778286411841
1580423515.03325,-0.640390630960555,-0.337163347829405,-1.09010452429999
1580423515.06532,-0.439703974975204,-0.438239108873121,-1.0295567254139
1580423515.0974,-0.607186999313344,-0.363042648966202,-0.917250324254216
1580423515.12947,-0.659433890287632,-0.220950637064163,-0.872327763790341
1580423515.16154,-0.884534981307699,-0.0324711985961699,-1.11842526894026
1580423515.19361,-0.580331120775158,-0.422613870450904,-1.36110475318532
1580423515.22569,-0.451422903791867,-0.592538338292515,-1.16139467460136
1580423515.25776,0.0222171358815899,-0.412848096437019,-0.968032349126421
1580423515.28983,-0.0627450980392155,0.660410467689022,-0.197024490730143
1580423515.3219,-3.2688487067979,0.2434119172961,-0.45972381170367
1580423515.35403,-0.708751049057755,-1.43044174868391,-1.37380025940337
1580423515.38611,-0.397711146715496,0.915297169451438,-1.13746852826734
1580423515.41818,-1.26979476615549,-0.0354009308003356,-1.16871900511177
1580423515.45025,-1.22291905088884,-0.0720225833524069,-1.10182345311665
1580423515.48232,-1.08424505989166,0.340581368734263,-1.12916762035553
1580423515.5144,-1.28981460288396,0.161379415579461,-1.08815136949721
1580423515.54647,-1.63503471427481,0.0871595330739297,-0.567635614557107
1580423515.57854,-1.80642404821851,0.238529030289158,-0.027588311589227
1580423515.61061,-1.69118791485466,0.152590218966964,0.584725719081408
1580423515.64269,-0.731212329289692,0.277103837644006,1.38112458991379
1580423515.67476,-0.344487678339819,0.177004654001678,1.72487983520256
1580423515.70683,-0.828381780727856,0.110109102006561,0.865491721980622
1580423515.7389,-0.923109788662547,0.0461432822156098,0.0573739223315783
1580423515.77098,-1.58669413290608,0.201907377737086,-0.594979781795987
1580423515.80305,-1.85574120698863,-0.102784771496147,-0.324467841611353
1580423515.83512,-1.42360570687419,0.128175783932249,-0.923109788662547
1580423515.86719,-0.970473792629893,0.01196307316701,-0.937758449683376
1580423515.89927,-0.695078965438315,-0.386968795300222,-1.11158922713054
1580423515.93134,-0.421149004348822,-0.515877012283513,-0.983657587548638
1580423515.96341,-0.498786907759213,-0.442145418478676,-0.862073701075762
1580423515.99548,-0.593026626993209,-0.272220950637065,-0.98268101014725
1580423516.02756,-0.628183413443198,-0.197512779430838,-1.18776226443885
1580423516.05963,-0.32300297550927,-0.386968795300222,-1.37575341420615
1580423516.0917,-0.594003204394598,-0.392828259708553,-1.11598382543679
1580423516.12378,0.0207522697795071,-0.335698481727322,-0.757579919127185
1580423516.15585,-0.0754406042572668,0.482185091935605,-0.40161745632105
1580423516.18792,-3.26054779888609,-0.272220950637065,0.0959487296864268
1580423516.21999,-0.838147554741742,-1.59304188601511,-1.14332799267567
1580423516.25206,-0.150637064164187,0.756603341725796,-1.26149385824369
1580423516.28414,-1.19801632715343,-0.0939955748836496,-1.0979171435111
1580423516.31621,-1.31667048142214,0.0686045624475469,-1.12623788815137
1580423516.34828,-1.0720378423743,0.197024490730143,-1.15211718928817
1580423516.38035,-1.33327229724575,-0.0407721065079727,-1.09059281300069
1580423516.41243,-1.53249408712901,-0.0187991149767299,-0.653086137178606
1580423516.4445,-1.68923476005188,0.29810025177386,-0.230716411078049
1580423516.47657,-1.55397878995956,0.379156176089111,0.605722133211263
1580423516.50865,-0.760997940032045,0.293705653467612,1.36745250629435
1580423516.54072,-0.292729076066225,0.223880369268329,1.36061646448463
1580423516.57279,-0.606210421911955,0.162355992980849,1.02467383840696
1580423516.60486,-0.993911650263218,0.161867704280155,0.735606927595942
1580423516.63699,-1.42897688258183,0.143801022354467,-0.266361486228734
1580423516.66907,-2.06717021438926,0.248294804303043,-0.457770656900893
1580423516.70114,-1.65749599450675,0.109132524605172,-0.955825131609064
1580423516.73321,-1.17311360341802,-0.108155947203784,-1.07740901808194
1580423516.76529,-0.723887998779277,-0.460212100404364,-1.12916762035553
1580423516.79736,-0.441168841077287,-0.51099412527657,-1.00563057907988
1580423516.82943,-0.406012054627299,-0.55884641794461,-0.906996261539636
1580423516.8615,-0.454840924696727,-0.409918364232853,-0.757091630426491
1580423516.89358,-0.643808651865415,-0.253177691309988,-0.816174563210499
1580423516.92565,-0.84937819485771,-0.0744640268558783,-1.19703974975204
1580423516.95772,-0.607186999313344,-0.0783703364614325,-1.22438391699092
1580423516.9898,-0.204348821240558,-0.663828488593881,-1.11354238193332
1580423517.02187,0.0759288929579611,-0.413336385137713,-0.963149462119478
1580423517.05394,-0.266361486228734,0.898695353627833,0.420172426947431
1580423517.08601,-3.49590295262074,-0.0744640268558783,-1.25758754863813
1580423517.11809,-0.652597848477912,-1.57595178149081,-1.65261310749981
1580423517.15016,-0.467536430914778,0.855237659266042,-1.27418936446174
1580423517.18223,-1.1921568627451,0.140383001449607,-1.10035858701457
1580423517.21431,-1.20143434805829,0.125734340428778,-1.0212558175021
1580423517.24638,-0.988052185854887,0.207278553444723,-1.1745784695201
1580423517.27845,-1.32301823453117,-0.0153810940718699,-1.20192263675898
1580423517.31053,-1.70339513237201,0.0236820019836728,-0.799572747386893
1580423517.3426,-1.88747997253376,0.312260624093994,-0.0803234912642097
1580423517.37467,-1.69509422446021,0.418219272144654,0.830823224231327
1580423517.40675,-0.710704203860532,0.154543373769741,1.33669031815061
1580423517.43882,-0.345952544441902,0.0822766460669868,1.28737315938048
1580423517.47089,-0.838635843442436,0.308842603189134,0.888929579613947
1580423517.50296,-0.84937819485771,0.0427252613107498,0.189700160219729
1580423517.53504,-1.66091401541161,0.0715342946517126,-0.40845349813077
1580423517.56711,-1.86501869230182,0.096437018387121,-0.530037384603647
1580423517.59918,-1.3625696192874,0.0656748302433812,-0.707286182955672
1580423517.63126,-1.04225223163195,-0.261966887922485,-0.943129625391013
1580423517.66333,-0.678477149614709,-0.376714732585642,-1.10328831921874
1580423517.6954,-0.378667887388419,-0.206301976043335,-0.998306248569467
1580423517.72748,-0.477790493629358,-0.322514686808576,-0.94508278019379
1580423517.75955,-0.635019455252918,-0.408941786831464,-1.0471351186389
1580423517.79162,-0.862073701075762,-0.359624628061342,-1.05201800564584
1580423517.82369,-0.371831845578699,-0.108155947203784,-1.58278782330053
1580423517.85577,-0.948989089799344,-0.160891126878766,-0.896742198825056
1580423517.88784,0.201419089036392,-0.929457541771573,-0.913344014648661
1580423517.91998,-0.102296482795452,0.294682230869,-0.320073243305105
1580423517.95206,-2.32547493705654,0.683360036621654,0.786388952468148
1580423517.98413,-1.02174410620279,-0.597909514000152,-0.647714961470969
1580423518.0162,-0.33667505912871,0.11792172121767,-0.982192721446555
1580423518.04827,-1.09840543221179,0.338139925230792,-1.07838559548333
1580423518.08035,-1.26735332265202,-0.00610360875867855,-0.879163805600061
1580423518.11242,-0.980727855344472,-0.0173342488746471,-1.1320973525597
1580423518.14449,-1.11793698023957,0.0681162737468526,-1.17360189211871
1580423518.17657,-1.51589227130541,0.00170901045242999,-0.998794537270161
1580423518.20864,-1.82107270923934,0.218509193560692,-0.377203021286336
1580423518.24071,-1.92898451209278,0.220462348363469,0.537361715114063
1580423518.27279,-1.25368123903258,0.0139162279697871,1.20192263675898
1580423518.30486,-0.437262531471733,-0.0251468680857556,1.54470130464637
1580423518.33693,-0.744884412909132,0.402594033722437,0.954848554207675
1580423518.369,-0.985122453650721,0.334721904325932,0.454352635996031
1580423518.40108,-1.11842526894026,0.210696574349583,-0.164797436484321
1580423518.43315,-1.8923628595407,0.231204699778743,-0.37085526817731
1580423518.46522,-1.38405432211795,0.0222171358815899,-0.756115053025102
1580423518.4973,-1.04518196383612,-0.131593804837109,-0.858655680170902
1580423518.52937,-0.626718547341115,-0.355718318455787,-1.08180361638819
1580423518.56144,-0.458747234302281,-0.47681391622797,-1.00856031128405
1580423518.59352,-0.573495078965438,-0.535896849011978,-0.85963225757229
1580423518.62559,-0.713633936064697,-0.479743648432136,-0.768810559243153
1580423518.65766,-0.722911421377889,-0.325932707713436,-0.975356679636835
1580423518.68973,-0.687266346227206,0.0905775539787896,-1.2092469672694
1580423518.72181,-0.713145647364003,-0.171633478294041,-1.17262531471733
1580423518.75388,-0.394293125810636,-0.809338521400779,-0.920668345159076
1580423518.78595,0.0686045624475469,-0.328862439917602,-0.708751049057755
1580423518.81803,0.0349126420996413,0.276127260242617,-0.527595941100175
1580423518.8501,-1.39235523002976,1.42409399557488,1.56472114137484
1580423518.88217,-1.07936217288472,-1.26295872434577,0.186282139314869
1580423518.91425,0.640878919661251,-0.0769054703593497,-1.16237125200275
1580423518.94632,-1.2771190966659,0.690684367132068,-1.30446326390478
1580423518.97839,-1.40163271534295,-0.604257267109178,-0.926039520866713
1580423519.01046,-0.985122453650721,0.0212405584802013,-1.03395132372015
1580423519.04254,-1.21315327687495,0.514412146181431,-1.01539635309377
1580423519.07461,-1.36989394979782,0.116945143816281,-0.922133211261158
1580423519.10668,-1.67214465552758,-0.00561532005798426,-0.443121995880064
1580423519.13876,-1.7820096131838,0.219974059662775,0.261966887922483
1580423519.17083,-1.32692454413672,0.325932707713434,0.983169298847944
1580423519.20303,-0.574959945067521,-0.0075684748607614,1.45192645151446
1580423519.23511,-0.937758449683376,-0.048096437018387,1.18434424353399
1580423519.26718,-0.89381246662089,-0.0466315709163041,0.78443579766537
1580423519.29925,-1.15065232318608,-0.0046387426565957,-0.284916456855116
1580423519.33133,-1.98953231097887,-0.00854505226214997,-0.222415503166246
1580423519.3634,-1.3454795147631,-0.0466315709163041,-0.698496986343175
1580423519.39547,-1.08424505989166,0.119386587319752,-0.977309834439613
1580423519.42755,-0.723399710078583,-0.129152361333638,-1.11256580453193
1580423519.45962,-0.495368886854353,-0.309819180590525,-1.1750667582208
1580423519.49169,-0.331792172121768,-0.481208514534218,-0.990493629358358
1580423519.52377,-0.499275196459907,-0.280033569848174,-0.906507972838941
1580423519.55584,-0.74927901121538,-0.180910963607232,-0.927504386968796
1580423519.58791,-0.957778286411841,-0.0402838178072784,-1.21168841077287
1580423519.61999,-0.867444876783399,-0.0559090562294955,-0.884046692607004
1580423519.65206,-0.0681162737468526,-0.499275196459907,-1.00709544518196
1580423519.68414,0.149660486762798,-0.617441062027924,-1.11940184634165
1580423519.71621,-0.36743724727245,0.514900434882126,0.493415732051574
1580423519.74828,-3.08281071183337,0.613046463721677,-0.772228580148013
1580423519.78036,-0.703868162050812,-1.88747997253376,-1.57204547188525
1580423519.81243,-0.261478599221791,0.831799801632716,-1.29030289158465
1580423519.8445,-1.46901655603876,0.165285725185015,-1.21705958648051
1580423519.87658,-1.32497138933394,0.211673151750972,-1.14869916838331
1580423519.90865,-1.01149004348821,0.193118181124589,-1.18825055313954
1580423519.94072,-1.3454795147631,0.135988403143358,-1.02320897230488
1580423519.9728,-1.76784924086366,0.110109102006561,-0.546639200427252
1580423520.00487,-1.7473411154345,0.0656748302433812,-0.00366216525520713
1580423520.03694,-1.52663462272068,0.0349126420996413,0.593026626993211
1580423520.06902,-0.77418173495079,0.155519951171129,1.20827038986801
1580423520.10109,-0.44263370717937,0.0427252613107498,1.33131914244297
1580423520.13316,-0.877210650797284,-0.0607919432364383,0.866956588082704
1580423520.16524,-0.805920500495919,0.0837415121690697,0.189211871519035
1580423520.19731,-1.55007248035401,0.261478599221789,-0.551033798733501
1580423520.22938,-1.93044937819486,-0.00952162966353853,-0.299565117875945
1580423520.26146,-1.36061646448463,-0.0563973449301898,-0.830823224231327
1580423520.29353,-1.04225223163195,-0.0539559014267184,-1.03541618982223
1580423520.3256,-0.562752727550164,-0.290775921263448,-1.05201800564584
1580423520.35768,-0.436285954070344,-0.31958495460441,-1.05836575875486
1580423520.38975,-0.704356450751506,-0.446540016784924,-0.807873655298696
1580423520.42183,-0.688242923628595,-0.307866025787748,-1.11940184634165
1580423520.4539,-0.906996261539636,-0.161867704280155,-0.915297169451438
1580423520.48602,-0.819592584115359,-0.235599298084992,-1.14576943617914
1580423520.5181,-0.73560692759594,-0.644785229266803,-0.973403524834058
1580423520.55017,0.00122072175173571,-0.0744640268558783,-0.898207064927139
1580423520.58224,0.256107423514152,-0.461676966506447,-1.05983062485695
1580423520.61432,-0.640878919661249,0.778088044556345,1.07789730678263
1580423520.64639,-2.60868238345922,0.0402838178072784,-0.452399481193256
1580423520.67847,-0.55542839703975,-1.63894102388037,-1.65749599450675
1580423520.71054,-0.413336385137713,1.35573357747768,-1.1750667582208
1580423520.74261,-1.38503089951934,-0.0109864957656214,-1.04176394293126
1580423520.77469,-1.31569390402075,-0.166750591287098,-1.10963607232776
1580423520.80676,-0.934340428778516,0.392828259708551,-1.12770275425345
1580423520.83884,-1.3972381170367,-0.0158693827725642,-1.149187457084
1580423520.87091,-1.88894483863584,-0.163820859082932,-0.693125810635538
1580423520.90298,-1.89675745784695,0.450934615091171,0.156984817273212
1580423520.93506,-1.396749828336,0.281498435950255,1.03346303501946
1580423520.96713,-0.585702296482795,0.112550545510032,1.53054093232624
1580423520.99921,-0.551522087434195,0.38355077439536,1.1579766536965
1580423521.03128,-0.782970931563288,0.155519951171129,0.588632028686963
1580423521.06335,-1.00025940337224,-0.107179369802395,0.109132524605172
1580423521.09543,-1.84841687647822,-0.0510261692225527,-0.320073243305105
1580423521.1275,-1.60427252613107,0.0461432822156098,-0.657969024185549
1580423521.15958,-1.25807583733883,0.133546959639887,-0.926527809567407
1580423521.19165,-0.930434119172961,-0.263920042725262,-1.05445944914931
1580423521.22372,-0.629159990844586,-0.53492027161059,-1.09401083390555
1580423521.2558,-0.434821087968261,-0.307866025787748,-0.962661173418784
1580423521.28787,-0.461676966506447,-0.248783093003738,-0.864026855878539
1580423521.31995,-0.588143739986267,-0.320073243305105,-0.896742198825056
1580423521.35202,-0.68091859311818,-0.177492942702372,-1.03541618982223
1580423521.38409,-0.642343785763332,0.00561532005798426,-1.13698023956664
1580423521.41617,-0.33667505912871,-0.421149004348822,-1.06080720225834
1580423521.44824,0.119386587319752,-0.265384908827345,-0.849866483558404
1580423521.48032,-0.199465934233615,0.663340199893188,0.0173342488746471
1580423521.51239,-3.72491035324636,-0.213138017853055,-0.876234073395896
1580423521.54446,-0.572518501564049,-1.81765468833448,-1.87038986800946
1580423521.57654,-0.553963530937667,0.802502479591059,-1.11305409323262
1580423521.60861,-1.23170824750133,0.278080415045395,-1.15065232318608
1580423521.64069,-1.2600289921416,0.00366216525520713,-1.01149004348821
1580423521.67276,-1.06813153276875,0.208743419546806,-1.15846494239719
1580423521.70483,-1.31520561532006,-0.0690928511482412,-1.07594415197986
1580423521.73691,-1.75661860074769,-0.00219729915312428,-0.631601434348058
1580423521.76904,-1.82790875104906,0.26733806363012,-0.0427252613107498
1580423521.80112,-1.4485084306096,0.0583504997329669,1.0637369344625
1580423521.83319,-0.49048599984741,0.0676279850461583,1.40456244754711
1580423521.86526,-0.375249866483559,0.278568703746089,1.1067063401236
1580423521.89734,-0.78785381857023,0.298588540474555,0.912855725947967
1580423521.92941,-0.940688181887541,0.0407721065079727,0.586678873884185
1580423521.96149,-1.49050125886931,0.0568856336308841,-0.561776150148775
1580423521.99356,-1.94802777141985,0.213626306553749,-0.656504158083466
1580423522.02563,-1.62380407415885,0.113038834210727,-1.00807202258335
1580423522.05771,-1.07692072938125,-0.169192034790569,-1.1579766536965
1580423522.08978,-0.710215915159838,-0.512947280079347,-1.18190280003052
1580423522.12186,-0.385015640497445,-0.213138017853055,-1.02272068360418
1580423522.15393,-0.339116502632182,-0.383062485694667,-0.915297169451438
1580423522.186,-0.470466163118944,-0.626718547341115,-0.992446784161135
1580423522.21808,-0.492439154650187,-0.546150911726558,-0.993911650263218
1580423522.25015,-0.437262531471733,-0.157473105973907,-1.3034866865034
1580423522.28223,-0.585702296482795,0.0192874036774242,-1.08229190508888
1580423522.3143,0.10766765850309,-0.923598077363241,-1.0554360265507
1580423522.34637,-0.027588311589227,0.385015640497443,-0.282475013351645
1580423522.37845,-2.10818646524758,0.492927443350879,1.08863965819791
1580423522.41052,-0.861097123674373,-1.19508659494926,-0.534431982909895
1580423522.4426,-0.0261234454871442,-0.0324711985961699,-1.08180361638819
1580423522.47467,-1.17701991302357,0.0202639810788128,-1.17897306782635
1580423522.50674,-1.17653162432288,0.208743419546806,-1.0979171435111
1580423522.53882,-1.07350270847639,0.0339360646982527,-1.18239108873121
1580423522.57089,-1.13405050736248,0.154543373769741,-1.18776226443885
1580423522.60297,-1.35329213397421,-0.0104982070649271,-1.03150988021668
1580423522.63504,-1.85085831998169,0.00561532005798426,-0.465094987411307
1580423522.66711,-1.85671778439002,0.319096665903714,0.285404745555809
1580423522.69919,-1.21364156557565,0.442633707179368,1.2688181887541
1580423522.73126,-0.248294804303043,0.0295414663920042,1.67702754253452
1580423522.76334,-0.612558175020981,0.220462348363469,1.17750820172427
1580423522.79541,-1.01539635309377,0.262943465323872,0.692149233234151
1580423522.82748,-1.19557488364996,0.161379415579461,-0.0817883573662925
1580423522.85956,-2.02517738612955,0.199465934233615,-0.608651865415426
1580423522.89163,-1.54958419165331,0.0251468680857556,-0.736095216296635
1580423522.92371,-1.13112077515831,0.0280766002899213,-0.898207064927139
1580423522.95578,-0.733653772793163,-0.266849774929428,-1.05201800564584
1580423522.98785,-0.604745555809872,-0.277592126344702,-0.898695353627833
1580423523.01993,-0.317143511100939,-0.450934615091173,-0.960708018616007
1580423523.05203,-0.421149004348822,-0.451911192492561,-1.07057297627222
1580423523.08411,-0.762951094834822,0.067139696345464,-0.939223315785458
1580423523.11618,-0.712657358663309,0.0920424200808725,-1.52565804531929
1580423523.14825,-0.947035934996567,-0.518318455786984,-1.02272068360418
1580423523.18033,0.293217364766917,-0.571541924162661,-0.987563897154192
1580423523.2124,-0.00952162966353853,-0.0222171358815899,-0.702891584649423
1580423523.24448,-1.5510490577554,0.122316319523918,1.80837720302129
1580423523.27655,-1.09449912260624,-0.193118181124589,-0.83228809033341
1580423523.30862,-0.577889677271687,-0.324467841611353,-1.39137865262837
1580423523.3407,-0.985610742351415,0.184817273212786,-1.31618219272145
1580423523.37277,-1.243427176318,0.196047913328755,-0.972915236133364
1580423523.40485,-1.24391546501869,0.156984817273212,-1.06276035706111
1580423523.43692,-1.26100556954299,0.112062256809338,-0.985122453650721
1580423523.46899,-1.66482032501717,-0.00659189745937283,-0.612558175020981
1580423523.50107,-1.83474479285878,0.226810101472495,-0.0476081483176927
1580423523.53314,-1.67653925383383,0.279056992446783,0.578866254673077
1580423523.56522,-0.833264667734799,0.310307469291217,1.72878614480812
1580423523.59729,-0.179446097505149,0.326420996414129,1.72634470130465
1580423523.62936,-1.00563057907988,0.0793469138628211,0.882093537804227
1580423523.66144,-0.848889906157016,-0.0500495918211641,0.125734340428778
1580423523.69351,-1.41969939726864,0.106691081101701,-0.523689631494621
1580423523.72559,-2.12478828107118,0.00952162966353853,-0.527107652399481
1580423523.75766,-1.24245059891661,0.0842298008697639,-0.915785458152133
1580423523.78973,-0.970473792629893,0.0197756923781185,-1.00270084687572
1580423523.82181,-0.534431982909895,-0.307866025787748,-1.09498741130693
1580423523.85388,-0.344975967040513,-0.518318455786984,-1.10768291752499
1580423523.88595,-0.539803158617532,-0.405523765926604,-0.915785458152133
1580423523.91803,-0.630136568245975,-0.249271381704432,-1.06861982146944
1580423523.9501,-0.783947508964676,0.00170901045242999,-1.15211718928817
1580423523.98218,-0.685313191424429,-0.0871595330739297,-1.28786144808118
1580423524.01425,-0.602792401007095,-0.69800869764248,-1.09840543221179
1580423524.04632,-0.037842374303807,-0.312748912794691,-0.871351186388953
1580423524.0784,-0.0949721522850382,-0.0500495918211641,-0.350835431448845
1580423524.11047,-1.16969558251316,0.727306019684139,1.97732509346151
1580423524.14255,-1.46315709163043,-0.344975967040513,-0.298100251773862
1580423524.17462,-0.196536202029449,-0.460212100404364,-1.25123979552911
1580423524.20669,-1.00172426947433,0.51880674448768,-1.25905241474022
1580423524.23877,-1.15651178759441,0.0271000228885327,-0.844983596551462
1580423524.27084,-1.1233081559472,0.163332570382238,-1.06129549095903
1580423524.30292,-1.05690089265278,0.130128938735027,-1.14235141527428
1580423524.33505,-1.44997329671168,0.0158693827725642,-1.04322880903334
1580423524.36713,-1.91335927367056,0.129640650034332,-0.462165255207141
1580423524.3992,-2.02420080872816,0.286869611657892,0.42114900434882
1580423524.43127,-1.23366140230411,0.0988784618905925,1.42018768596933
1580423524.46335,-0.475837338826581,-0.204348821240558,1.79568169680324
1580423524.49542,-0.792736705577173,0.0734874494544897,1.25612268253605
1580423524.5275,-0.823987182421607,0.144289311055161,0.562264438849471
1580423524.55957,-1.22145418478675,0.153078507667658,-0.393804837109942
1580423524.59165,-1.88210879682612,0.0744640268558783,-0.42896162355993
1580423524.62372,-1.33864347295338,0.114015411612115,-0.73560692759594
1580423524.6558,-0.995864805065995,0.203372243839169,-0.848889906157016
1580423524.68787,-0.665781643396658,-0.135011825741969,-1.10182345311665
1580423524.71995,-0.473884184023804,-0.274174105439842,-1.02906843671321
1580423524.75202,-0.48364995803769,-0.365484092469673,-1.04322880903334
1580423524.78409,-0.709239337758449,-0.493415732051576,-1.02760357061112
1580423524.81617,-0.818127718013276,-0.238529030289158,-1.15553521019303
1580423524.84824,-0.498298619058518,-0.100343327992675,-1.45534447241932
1580423524.88032,-0.873792629892424,-0.0583504997329669,-1.07594415197986
1580423524.91239,0.0529793240253298,-0.963637750820173,-0.923598077363241
1580423524.94447,-0.0256351567864499,0.0622568093385212,-0.757091630426491
1580423524.97654,-0.44605172808423,0.82887006942855,1.22682536049439
1580423525.00862,-2.91923399710079,-0.0861829556725411,-0.820080872816053
1580423525.04069,-0.570565346761272,-0.896742198825056,-1.46755168993668
1580423525.07276,-0.573495078965438,1.08229190508888,-1.20680552376593
1580423525.10484,-1.27467765316243,-0.364507515068285,-0.98609903105211
1580423525.13691,-1.21412985427634,0.0920424200808725,-1.08570992599374
1580423525.16899,-1.15944151979858,0.260013733119706,-1.07057297627222
1580423525.20106,-1.44313725490196,-0.044678416113527,-0.961684596017395
1580423525.23314,-1.70388342107271,0.0183108262760356,-0.628183413443198
1580423525.26521,-1.71950865949493,0.212649729152361,0.241947051194018
1580423525.29729,-1.32594796673533,0.398199435416188,1.10035858701457
1580423525.32936,-0.707774471656366,0.191165026321812,1.5681391622797
1580423525.36143,-0.646738384069581,0.144289311055161,1.13258564126039
1580423525.39351,-0.841077286945907,0.177004654001678,0.900160219729916
1580423525.42558,-0.886488136110476,-0.0583504997329669,0.202395666437781
1580423525.45766,-1.96853589684901,0.134523537041275,-0.484138246738384
1580423525.48973,-1.63454642557412,0.0764171816586554,-0.69117265583276
1580423525.52181,-1.24098573281453,0.101319905394064,-1.09742885481041
1580423525.55388,-0.964126039520867,-0.590096894789044,-1.22047760738537
1580423525.58596,-0.511970702677958,-0.746837567711909,-1.21022354467079
1580423525.61804,-0.234134431982909,-0.448493171587701,-1.02906843671321
1580423525.65012,-0.445563439383536,-0.416266117341879,-0.925062943465324
1580423525.68219,-0.527595941100175,-0.282963302052339,-0.964614328221561
1580423525.71426,-0.648203250171663,-0.274174105439842,-1.36403448538949
1580423525.74634,-0.486579690241856,-0.385503929198139,-1.36012817578393
1580423525.77841,-0.292240787365531,-0.289311055161365,-1.04371709773404
1580423525.81049,0.0915541313801782,-0.41528953994049,-0.881605249103533
1580423525.84256,-0.139894712748912,0.600350957503625,-0.159914549477378
1580423525.87464,-3.5501029983978,0.855237659266042,1.15895323109789
1580423525.90671,-0.808850232700085,-1.44264896620127,-0.55201037613489
1580423525.93879,0.137453269245441,0.226810101472495,-1.15016403448539
1580423525.97086,-1.17701991302357,0.212161440451666,-1.25758754863813
1580423526.00293,-1.31471732661936,-0.149172198062104,-1.00660715648127
1580423526.03501,-0.95191882200351,0.0754406042572668,-1.11403067063401
1580423526.06708,-1.08815136949721,0.201907377737086,-1.10133516441596
1580423526.09916,-1.43337148088808,-0.034424353398947,-1.00660715648127
1580423526.13123,-1.71218432898451,0.0954604409857325,-0.518318455786984
1580423526.16331,-1.82693217364767,0.32544441901274,0.368413824673837
1580423526.19538,-1.27028305485618,0.389410238803691,1.21608300907912
1580423526.22746,-0.568123903257801,-0.0280766002899213,1.60866712443732
1580423526.25953,-0.780529488059816,0.176516365300984,1.17799649042496
1580423526.2916,-0.950453955901427,0.232181277180132,0.813244831006333
1580423526.32368,-1.22194247348745,0.199954222934309,-0.275638971541925
1580423526.35575,-1.88162050812543,0.0490730144197755,-0.351323720149539
1580423526.38783,-1.34352635996033,-0.0583504997329669,-0.811291676203556
1580423526.4199,-0.971450370031281,0.0876478217746239,-0.953383688105593
1580423526.45198,-0.69459067673762,-0.237552452887769,-1.0383459220264
1580423526.48405,-0.399176012817579,-0.478767071030747,-1.04176394293126
1580423526.51613,-0.402105745021744,-0.512458991378653,-0.914808880750744
1580423526.5482,-0.602304112306401,-0.343999389639125,-1.11647211413748
1580423526.58027,-0.77759975585565,0.0207522697795071,-0.923109788662547
1580423526.61235,-0.620370794232089,-0.119386587319752,-1.59157701991302
1580423526.64442,-0.891371023117419,-0.452399481193256,-1.05299458304723
1580423526.6765,0.0261234454871442,-0.84596017395285,-0.952895399404898
1580423526.70857,-0.111573968108644,0.204837109941252,-0.927016098268101
1580423526.74065,-0.615487907225146,1.23952086671244,1.57985809109636
1580423526.77272,-1.80154116121157,-0.584725719081407,-0.614511329823758
1580423526.8048,-0.248294804303043,-0.520271610589761,-1.36794079499504
1580423526.83687,-1.13453879606317,0.693614099336234,-1.2517280842298
1580423526.86894,-1.1320973525597,0.077393759060044,-0.958266575112535
1580423526.90106,-1.13600366216525,-0.189700160219729,-1.11940184634165
1580423526.93314,-1.16969558251316,0.289799343862057,-1.08619821469444
1580423526.96521,-1.50319676508736,0.162844281681544,-0.718028534370946
1580423526.99729,-1.78738078889143,0.108644235904478,-0.287846189059282
1580423527.02936,-1.74636453803311,0.2434119172961,0.318120088502326
1580423527.06144,-1.17750820172427,0.150637064164187,1.21461814297703
1580423527.09351,-0.452399481193256,0.0598153658350498,1.65261310749981
1580423527.12559,-0.850354772259099,0.0949721522850382,0.976333257038224
1580423527.15766,-0.851819638361182,0.034424353398947,0.216067750057221
1580423527.18974,-1.31374074921798,0.116945143816281,-0.578377965972381
1580423527.22181,-1.88503852903029,-0.0656748302433812,-0.253665980010682
1580423527.25389,-1.18873884184024,-0.0822766460669868,-0.772228580148013
1580423527.28596,-1.12233157854581,0.0905775539787896,-0.856702525368124
1580423527.31804,-0.6877546349279,-0.128175783932249,-1.05006485084306
1580423527.35011,-0.498298619058518,-0.50415808346685,-1.07692072938125
1580423527.38219,-0.615487907225146,-0.378667887388419,-0.913832303349356
1580423527.41426,-0.673594262607766,-0.201419089036392,-1.07057297627222
1580423527.44633,-0.929457541771573,0.0227054245822842,-0.924086366063936
1580423527.47841,-0.54517433432517,-0.221438925764858,-1.38942549782559
1580423527.51048,-0.737560082398717,-0.525154497596704,-1.15602349889372
1580423527.54256,0.0397955291065841,-0.32983901731899,-0.96900892652781
1580423527.57464,-0.0046387426565957,0.155519951171129,-0.542244602121004
1580423527.60671,-0.949965667200733,-0.0666514076447697,1.97097734035248
1580423527.63878,-1.47048142214084,-0.114991989013504,-0.144777599755855
1580423527.67086,-0.402594033722439,-0.538826581216144,-1.32936598764019
1580423527.70293,-0.862073701075762,0.530525673304343,-1.21657129777981
1580423527.73501,-1.26637674525063,0.249271381704432,-1.10377660791943
1580423527.76708,-1.23121995880064,0.177004654001678,-1.16578927290761
1580423527.79916,-1.19703974975204,0.340093080033569,-0.971938658731975
1580423527.83123,-1.52907606622415,0.108644235904478,-0.616464484626535
1580423527.86331,-1.84011596856642,0.0290531776913099,-0.136964980544747
1580423527.89538,-1.63405813687343,-0.0324711985961699,0.463630121309222
1580423527.92746,-0.992446784161135,-0.0114747844663157,1.17555504692149
1580423527.95953,-0.377203021286336,0.413824673838405,1.6189211871519
1580423527.99161,-0.864026855878539,0.152590218966964,0.940688181887541
1580423528.02368,-0.883070115205616,0.177004654001678,0.134523537041275
1580423528.05576,-1.48610666056306,0.272709239337757,-0.540291447318227
1580423528.08783,-1.97048905165179,-0.0114747844663157,-0.173586633096818
1580423528.11991,-1.41579308766308,0.0153810940718699,-0.777111467154956
1580423528.15198,-1.17213702601663,0.0305180437933927,-1.0207675288014
1580423528.18408,-0.805432211795225,-0.096437018387121,-1.10963607232776
1580423528.21616,-0.441168841077287,-0.492927443350881,-1.16823071641108
1580423528.24823,-0.597421225299458,-0.478278782330053,-1.00123598077363
1580423528.28031,-0.649179827573052,-0.288334477759976,-0.968520637827115
1580423528.31238,-0.82203402761883,-0.0832532234683754,-1.08424505989166
1580423528.34446,-0.758556496528573,-0.0285648889906156,-1.12428473334859
1580423528.37653,-0.257084000915542,-0.602304112306401,-1.03150988021668
1580423528.40861,0.0754406042572668,-0.766857404440376,-1.05836575875486
1580423528.44068,-0.0793469138628211,0.740978103303579,-0.174074921797512
1580423528.47276,-3.16728465705348,0.971938658731975,-0.152101930266269
1580423528.50483,-0.653574425879301,-1.15309376668955,-1.53884184023804
1580423528.53691,-0.489509422446021,0.403082322423131,-1.16969558251316
1580423528.56898,-1.45778591592279,-0.063721675440604,-1.05690089265278
1580423528.60106,-1.17848477912566,0.199465934233615,-1.15455863279164
1580423528.63313,-1.15162890058747,0.219974059662775,-1.22243076218814
1580423528.66521,-1.43190661478599,0.114015411612115,-0.85963225757229
1580423528.69728,-1.66775005722133,0.135011825741969,-0.478278782330053
1580423528.72935,-1.58132295719844,0.143312733653772,0.135011825741969
1580423528.76143,-1.27077134355688,-0.0778820477607383,0.524666208896011
1580423528.7935,-0.698985275043869,0.0935072861829553,1.16676585030899
1580423528.82558,-0.463630121309224,0.3459525444419,1.38600747692073
1580423528.85765,-0.600839246204318,0.0236820019836728,0.898695353627833
1580423528.88973,-0.814221408407722,0.0451667048142212,0.425055313954374
1580423528.9218,-1.70095368886854,0.474372472724497,-0.67750057221332
1580423528.95388,-1.80105287251087,-0.00122072175173571,-0.416266117341879
1580423528.98595,-1.56911573968109,-0.135988403143358,-0.834729533836882
1580423529.01803,-1.12965590905623,-0.139894712748912,-0.964614328221561
1580423529.0501,-0.803967345693142,-0.573983367666132,-1.0295567254139
1580423529.08218,-0.523201342793927,-0.392339971007859,-0.929945830472267
1580423529.11425,-0.474372472724498,-0.0495613031204698,-0.779552910658428
1580423529.14633,-0.667734798199435,-0.231692988479438,-1.03443961242084
1580423529.1784,-1.07985046158541,-0.436285954070344,-0.96217288471809
1580423529.21048,-0.465583276112001,-0.421149004348822,-1.38063630121309
1580423529.24255,-0.681895170519569,-0.113527122911421,-1.07643244068055
1580423529.27463,0.25366598001068,-0.254154268711376,-1.26198214694438
1580423529.3067,-0.0397955291065841,-0.256107423514154,-0.762951094834822
1580423529.33878,-1.47927061875334,1.09449912260624,1.21998931868467
1580423529.37085,-1.11891355764095,-0.323979552910659,-0.618417639429312
1580423529.40293,-0.332768749523156,-0.485114824139773,-1.17897306782635
1580423529.435,-1.12281986724651,0.417242694743265,-1.17946135652705
1580423529.4671,-1.13356221866178,0.0451667048142212,-1.05641260395209
1580423529.49918,-1.20582894636454,0.102296482795452,-1.13258564126039
1580423529.53125,-1.21364156557565,0.175051499198901,-1.08278019378958
1580423529.56333,-1.55837338826581,0.0461432822156098,-0.674570840009155
1580423529.5954,-1.82790875104906,0.174563210498206,-0.0876478217746239
1580423529.62748,-1.60427252613107,0.215091172655832,0.414801251239794
1580423529.65955,-0.987563897154192,0.135500114442664,1.32106507972839
1580423529.69163,-0.373296711680782,0.374761577782863,1.69948882276646
1580423529.7237,-0.877698939497979,0.100343327992675,1.0212558175021
1580423529.75578,-0.94508278019379,0.0339360646982527,0.331792172121766
1580423529.78785,-1.47341115434501,0.150148775463492,-0.544686045624475
1580423529.81993,-2.03640802624552,0.000732433051041426,-0.287357900358588
1580423529.852,-1.35329213397421,0.158449683375295,-0.810803387502862
1580423529.88408,-0.973403524834058,0.000732433051041426,-0.960708018616007
1580423529.91615,-0.608163576714732,-0.287357900358588,-1.09987029831388
1580423529.94823,-0.329350728618296,-0.395269703212024,-1.0466468299382
1580423529.9803,-0.455329213397421,-0.334721904325933,-0.852307927061876
1580423530.01237,-0.813733119707027,-0.250247959105822,-1.11256580453193
1580423530.04445,-0.980239566643778,-0.0876478217746239,-0.976821545738918
1580423530.07652,-0.498298619058518,-0.110597390707255,-1.33278400854505
1580423530.1086,-0.706797894254978,-0.302494850080111,-1.03199816891737
1580423530.14067,-0.0910658426794839,-0.766857404440376,-0.944594491493095
1580423530.17275,-0.0144045166704814,0.041260395208667,-0.543221179522392
1580423530.20482,-2.12088197146563,0.379644464789806,0.649668116273748
1580423530.2369,-0.906019684138247,-0.815686274509805,-0.442145418478676
1580423530.26898,-0.352300297550928,-0.149172198062104,-0.972915236133364
1580423530.30105,-1.1320973525597,0.23657587548638,-0.921644922560464
1580423530.33312,-1.05201800564584,0.296635385671777,-0.988540474555581
1580423530.3652,-1.21412985427634,0.0046387426565957,-1.09694056610971
1580423530.39727,-1.20094605935759,0.0847180895704582,-1.02027924010071
1580423530.42935,-1.6189211871519,-0.0168459601739528,-0.754650186923019
1580423530.46142,-1.79763485160601,0.0383306630045013,-0.234622720683603
1580423530.4935,-1.58083466849775,0.264408331425955,0.392828259708551
1580423530.52557,-1.01734950789654,0.247806515602349,1.09205767910277
1580423530.55765,-0.284916456855116,0.12475776302739,1.73562218661784
1580423530.58972,-0.702403295948729,0.0505378805218584,1.01002517738613
1580423530.6218,-0.924086366063936,0.147219043259327,0.579842832074466
1580423530.65387,-1.16188296330205,0.132082093537804,-0.508552681773098
1580423530.68595,-2.26443884946975,0.172121766994735,-0.151125352864881
1580423530.71802,-1.4572976272221,-0.0212405584802013,-0.809338521400779
1580423530.75012,-1.27467765316243,-0.0168459601739528,-0.928480964370184
1580423530.7822,-0.821057450217442,-0.288334477759976,-1.02760357061112
1580423530.81427,-0.519295033188373,-0.351812008850233,-1.11354238193332
1580423530.84635,-0.621835660334172,-0.385503929198139,-0.918715190356298
1580423530.87842,-0.714122224765392,-0.312260624093996,-1.01197833218891
1580423530.9105,-0.857190814068819,-0.49390402075227,-0.899183642328527
1580423530.94257,-0.468024719615473,-0.174563210498206,-1.44557869840543
1580423530.97465,-0.540779736018921,0.0144045166704814,-1.1916685740444
1580423531.00672,0.0192874036774242,-0.940688181887541,-1.1233081559472
1580423531.0388,-0.0432135500114441,-0.186770428015564,-0.827893492027162
1580423531.07087,-0.633554589150835,0.771252002746625,1.55642023346304
1580423531.10295,-1.82595559624628,-0.175051499198901,-0.345952544441902
1580423531.13502,-0.0109864957656214,-0.361577782864119,-1.2859082932784
1580423531.1671,-1.10524147402151,0.044678416113527,-1.12623788815137
1580423531.19917,-0.986587319752804,0.443610284580757,-1.13649195086595
1580423531.23125,-1.34108491645686,0.0319829098954756,-1.16237125200275
1580423531.26332,-1.20827038986801,-0.034424353398947,-1.02711528191043
1580423531.29539,-1.49196612497139,0.0329594872968642,-0.729747463187609
1580423531.32747,-1.65163653009842,0.0466315709163041,-0.277103837644008
1580423531.35954,-1.46364538033112,0.34253452353704,0.269291218432897
1580423531.39162,-1.05201800564584,0.210696574349583,0.785412375066759
1580423531.42369,-0.628183413443198,0.0471198596169984,1.45485618371862
1580423531.45577,-0.709727626459143,-0.0207522697795071,1.1408865491722
1580423531.48784,-0.998794537270161,0.0129396505683985,0.764904249637599
1580423531.51992,-1.15162890058747,0.0539559014267184,-0.252201113908599
1580423531.552,-1.96462958724346,0.0920424200808725,-0.382085908293279
1580423531.58407,-1.57790493629358,-0.217044327458609,-0.765392538338293
1580423531.61614,-1.21071183337148,0.0456549935149155,-0.974380102235447
1580423531.64822,-0.81177996490425,-0.0891126878767068,-1.07301441977569
1580423531.68029,-0.496833752956436,-0.190676737621118,-1.0979171435111
1580423531.71237,-0.344975967040513,-0.438727397573816,-0.905043106736859
1580423531.74444,-0.52466620889601,-0.314213778896773,-0.937270160982681
1580423531.77652,-0.790783550774396,-0.199954222934309,-0.740001525902189
1580423531.80859,-0.754650186923019,-0.147219043259327,-1.10280003051804
1580423531.84067,-0.547615777828641,-0.301518272678722,-1.04322880903334
1580423531.87274,0.139894712748912,-0.518806744487678,-1.16432440680552
1580423531.90482,-0.00170901045242999,-0.0554207675288012,-0.801037613488976
1580423531.93689,-2.01052872510872,-0.105226214999618,1.53737697413596
1580423531.96897,-0.779552910658428,-0.575448233768215,-0.938735027084764
1580423532.00104,-0.0729991607537954,0.207766842145418,-1.04908827344167
1580423532.03317,-1.46706340123598,-0.43579766536965,-1.17311360341802
1580423532.06525,-1.14821087968261,0.118410009918364,-1.0554360265507
1580423532.09732,-1.15553521019303,0.196047913328755,-1.19606317235065
1580423532.1294,-1.25368123903258,0.0837415121690697,-1.10035858701457
1580423532.16147,-1.48708323796445,0.0158693827725642,-0.648691538872358
1580423532.19355,-1.74099336232547,0.259037155718318,-0.0686045624475469
1580423532.22563,-1.40456244754711,0.207278553444723,0.527107652399483
1580423532.2577,-0.922133211261158,0.127199206530861,1.07350270847639
1580423532.28977,-0.530037384603647,0.357671473258563,1.5339589532311
1580423532.32185,-0.673594262607766,0.230228122377355,1.11549553673609
1580423532.35393,-0.948989089799344,-0.00903334096284425,0.63501945525292
1580423532.386,-1.337666895552,0.0754406042572668,-0.478278782330053
1580423532.41808,-1.87771419851988,0.0700694285496297,-0.328862439917602
1580423532.45015,-1.41823453116655,-0.0441901274128327,-0.655039291981383
1580423532.48223,-1.18434424353399,0.159914549477378,-0.885511558709087
1580423532.5143,-0.882093537804227,-0.272220950637065,-1.10914778362707
1580423532.54638,-0.635019455252918,-0.458747234302281,-0.941176470588236
1580423532.57845,-0.674570840009155,-0.284916456855116,-0.864026855878539
1580423532.61053,-0.654062714579995,-0.163332570382238,-0.912367437247273
1580423532.6426,-0.892347600518807,0.0407721065079727,-0.862073701075762
1580423532.67468,-0.680430304417486,-0.152101930266269,-1.4055390249485
1580423532.70676,-0.895765621423667,-0.991470206759747,-0.90748455024033
1580423532.73883,0.196536202029449,-0.119874876020447,-1.03150988021668
1580423532.77091,0.0822766460669868,-0.168703746089875,-0.620859082932784
1580423532.80298,-0.703868162050812,0.499763485160599,1.32057679102769
1580423532.83506,-2.33133440146487,-0.222415503166246,-0.76734569314107
1580423532.86713,-0.447028305485619,-0.704356450751506,-1.68386358434424
1580423532.89921,-0.803479056992447,0.721446555275808,-1.40505073624781
1580423532.93128,-1.3288776989395,-0.0920424200808725,-0.990005340657664
1580423532.96336,-1.23121995880064,0.161379415579461,-1.0896162355993
1580423532.99543,-1.17164873731594,0.319584954604409,-1.02711528191043
1580423533.02751,-1.42409399557488,0.0749523155565726,-0.788830395971619
1580423533.05958,-1.68581673914702,-0.0363775082017241,-0.277103837644008
1580423533.09166,-1.66384374761578,-0.00708018616006711,0.183840695811398
1580423533.12374,-1.32790112153811,0.165285725185015,0.930922407873656
1580423533.15581,-0.519783321889067,0.52906080720226,1.69948882276646
1580423533.18789,-0.416266117341879,0.150637064164187,1.18825055313954
1580423533.21996,-1.02418554970626,0.0349126420996413,0.712657358663311
1580423533.25204,-1.16774242771038,0.159426260776684,-0.195071335927366
1580423533.28411,-2.04373235675593,0.249759670405126,-0.291264209964142
1580423533.31622,-1.39382009613184,-0.218020904859998,-0.68433661402304
1580423533.3483,-1.20485236896315,-0.116945143816281,-1.01197833218891
1580423533.38037,-0.719493400473029,-0.376226443884947,-1.07106126497291
1580423533.41245,-0.415777828641184,-0.314213778896773,-1.15700007629511
1580423533.44452,-0.383550774395362,-0.350835431448845,-1.06471351186389
1580423533.4766,-0.605722133211261,-0.340581368734265,-0.903089951934081
1580423533.50867,-0.684824902723735,-0.252689402609294,-0.86988632028687
1580423533.54075,-0.948012512397955,-0.343022812237736,-1.08766308079652
1580423533.57283,-0.689219501029983,-0.096437018387121,-1.00172426947433
1580423533.6049,-0.238040741588463,-0.286381322957199,-1.10524147402151
1580423533.63698,-0.0251468680857556,-0.237552452887769,-0.941176470588236
1580423533.66905,-0.446540016784924,0.373785000381474,0.914808880750744
1580423533.70113,-2.20779736018921,0.295170519569695,-0.561287861448081
1580423533.7332,-0.587655451285572,-1.06959639887083,-1.54274814984359
1580423533.76528,-0.727794308384832,0.384527351796748,-1.00221255817502
1580423533.79735,-1.20485236896315,0.164797436484321,-1.06813153276875
1580423533.82943,-1.15162890058747,0.0456549935149155,-1.11061264972915
1580423533.86151,-0.981216144045167,0.0607919432364383,-1.14821087968261
1580423533.89358,-1.26979476615549,0.201419089036392,-1.03102159151598
1580423533.92565,-1.51979858091096,0.147219043259327,-0.685801480125123
1580423533.95773,-1.73952849622339,0.248294804303043,-0.128175783932249
1580423533.98981,-1.56374456397345,0.218020904859998,0.54956893263142
1580423534.02188,-0.91773861295491,0.117433432516975,1.26344701304646
1580423534.05396,-0.666269932097352,0.163332570382238,1.72585641260395
1580423534.08603,-0.966567483024338,0.285893034256503,1.02174410620279
1580423534.11811,-1.09205767910277,0.208743419546806,0.337651636530097
1580423534.15018,-1.59450675211719,0.0993667505912867,-0.635507743953612
1580423534.18226,-1.74587624933242,-0.0563973449301898,-0.352788586251622
1580423534.21433,-1.44899671931029,0.285404745555809,-0.869398031586176
1580423534.24641,-1.05348287174792,-0.228274967574578,-1.04469367513542
1580423534.27848,-0.776623178454262,-0.688242923628595,-1.00514229037919
1580423534.31056,-0.460212100404364,-0.663340199893186,-0.96900892652781
1580423534.34264,-0.505622949568933,-0.272220950637065,-0.851331349660487
1580423534.37471,-0.818127718013276,-0.191653315022506,-0.599862668802929
1580423534.40679,-0.74244296940566,-0.121828030823224,-1.44460212100404
1580423534.43886,-0.72535286488136,-0.34009308003357,-1.30006866559854
1580423534.47094,0.158449683375295,-0.67750057221332,-1.34450293736172
1580423534.50301,-0.0417486839093613,-0.0373540856031127,-0.926039520866713
1580423534.53509,-0.738048371099412,0.848401617456322,1.36940566109712
1580423534.56716,-1.52419317921721,0.229251544975966,-0.136964980544747
1580423534.59927,-0.187747005416952,-0.130617227435721,-0.796154726482033
1580423534.63135,-1.11012436102846,0.0427252613107498,-1.25123979552911
1580423534.66342,-1.04811169604028,0.232669565880826,-1.00660715648127
1580423534.6955,-1.17994964522774,-0.0695811398489354,-1.15162890058747
1580423534.72758,-1.26735332265202,0.0900892652780954,-1.05299458304723
1580423534.75965,-1.31374074921798,0.0935072861829553,-0.783459220263982
1580423534.79173,-1.69118791485466,0.0930189974822611,-0.376226443884947
1580423534.8238,-1.81130693522545,0.173098344396124,0.227298390173189
1580423534.85588,-1.1921568627451,0.133058670939192,0.82203402761883
1580423534.88796,-0.634531166552224,-0.0788586251621268,1.42311741817349
1580423534.92003,-0.802990768291753,0.120851453421835,1.18971541924163
1580423534.95211,-0.91432059205005,0.265384908827343,0.828381780727856
1580423534.98418,-1.23170824750133,0.115968566414892,-0.304448004882888
1580423535.01626,-2.02468909742885,0.155031662470435,-0.368902113374533
1580423535.04834,-1.46266880292973,-0.108644235904478,-0.656992446784161
1580423535.08041,-1.10963607232776,-0.0158693827725642,-0.896253910124361
1580423535.11249,-0.766369115739682,-0.263920042725262,-0.998794537270161
1580423535.14456,-0.509529259174487,-0.35376516365301,-0.990005340657664
1580423535.17664,-0.407965209430076,-0.495368886854353,-0.843518730449379
1580423535.20871,-0.563729304951552,-0.32983901731899,-0.909437705043107
1580423535.24079,-0.772716868848708,0.0393072404058898,-0.782970931563288
1580423535.27287,-0.657969024185549,-0.161867704280155,-1.44411383230335
1580423535.30494,-0.806408789196613,-0.700938429846646,-0.952895399404898
1580423535.33702,0.226321812771801,-0.363042648966202,-1.08180361638819
1580423535.36909,-0.0373540856031127,0.0686045624475469,-0.716563668268863
1580423535.40117,-1.96755931944762,-0.180422674906538,1.05690089265278
1580423535.43325,-0.652109559777218,-0.475837338826581,-0.865980010681316
1580423535.46532,-0.258060578316931,-0.0417486839093613,-1.00904859998474
1580423535.4974,-1.243427176318,0.0207522697795071,-1.21168841077287
1580423535.52947,-1.20680552376593,0.123781185626001,-1.0554360265507
1580423535.56155,-1.1062180514229,0.301029983978026,-1.20485236896315
1580423535.59363,-1.36745250629435,0.251224536507209,-1.11354238193332
1580423535.6257,-1.70681315327687,-0.041260395208667,-0.699473563744563
1580423535.65778,-1.85378805218586,0.281986724650949,-0.0187991149767299
1580423535.68985,-1.49538414587625,0.067139696345464,0.613534752422371
1580423535.72193,-0.768810559243153,0.266849774929426,1.64333562218662
1580423535.754,-0.456794079499504,0.351812008850231,1.55349050125887
1580423535.78608,-0.865003433279927,0.0935072861829553,0.867444876783399
1580423535.81816,-1.05934233615625,0.0437018387121384,0.158937972075989
1580423535.85023,-1.59743648432135,0.156496528572518,-0.327885862516213
1580423535.88223,-1.60866712443732,-0.23315785458152,-0.454352635996033
1580423535.91431,-1.2517280842298,-0.0744640268558783,-0.991470206759747
1580423535.94638,-0.870374608987564,-0.109132524605172,-1.02272068360418
1580423535.97846,-0.456794079499504,-0.226321812771801,-1.15065232318608
1580423536.01054,-0.302494850080111,-0.507087815671015,-0.983169298847944
1580423536.04261,-0.685801480125123,-0.547127489127947,-0.917250324254216
1580423536.07469,-0.81519798580911,-0.341069657434959,-0.86305027847715
1580423536.10676,-0.780529488059816,0.0358892195010299,-1.22536049439231
1580423536.13884,-0.598886091401541,-0.119386587319752,-1.04420538643473
1580423536.17091,-0.150148775463492,-0.600350957503624,-1.07057297627222
1580423536.20299,-0.0876478217746239,-0.0651865415426869,-0.886488136110476
1580423536.23507,-0.489509422446021,0.31860837720302,0.988540474555581
1580423536.26714,-2.72098878461891,0.253177691309986,-0.684824902723735
1580423536.29922,-0.597909514000152,-1.0466468299382,-1.73318074311437
1580423536.3313,-0.714610513466086,0.588632028686963,-1.5163805600061
1580423536.36337,-1.26344701304646,0.229251544975966,-0.966079194323644
1580423536.39545,-1.35085069047074,0.0280766002899213,-1.05934233615625
1580423536.42752,-1.09547570000763,0.210208285648889,-1.17164873731594
1580423536.4596,-1.28346684977493,0.0930189974822611,-0.92799267566949
1580423536.49167,-1.96804760814832,0.119386587319752,-0.267826352330816
1580423536.52375,-1.70974288548104,-0.0212405584802013,0.356694895857174
1580423536.55583,-1.14332799267567,-0.048096437018387,1.05397116044862
1580423536.5879,-0.543221179522392,0.325932707713434,1.59108873121233
1580423536.61998,-0.655039291981383,0.281498435950255,1.18385595483329
1580423536.65205,-0.949477378500038,0.0939955748836496,0.436774242771037
1580423536.68413,-1.42946517128252,0.00170901045242999,-0.53833829251545
1580423536.7162,-2.00808728160525,-0.0402838178072784,-0.347417410543985
1580423536.74828,-1.32692454413672,0.151125352864881,-0.760509651331351
1580423536.78036,-1.09742885481041,0.0383306630045013,-0.906507972838941
1580423536.81243,-0.691660944533455,-0.277592126344702,-0.99293507286183
1580423536.84451,-0.41187151903563,-0.237064164187075,-0.997329671168078
1580423536.87659,-0.495857175555047,0.0441901274128327,-0.968520637827115
1580423536.90866,-0.761486228732739,-0.0314946211947813,-0.92457465476463
1580423536.94074,-1.02027924010071,-0.0246585793850613,-0.972915236133364
1580423536.97281,-0.357671473258565,-0.573495078965438,-1.414328221561
1580423537.00489,-0.665293354695963,0.139894712748912,-0.990493629358358
1580423537.03696,-0.0715342946517126,-0.693614099336232,-1.09449912260624
1580423537.06904,-0.11792172121767,-0.0935072861829553,-0.706309605554283
1580423537.10112,-1.07692072938125,0.549080643930726,1.40944533455405
1580423537.13319,-1.59841306172274,-0.776134889753568,-0.690196078431372
1580423537.16519,-0.291752498664836,0.0471198596169984,-1.03932249942779
1580423537.19727,-1.01686121919585,-0.0271000228885327,-1.33522545204852
1580423537.22934,-1.21998931868467,0.430426489662011,-1.01441977569238
1580423537.26142,-1.23170824750133,0.555428397039751,-1.13698023956664
1580423537.29349,-1.38356603341726,0.293217364766917,-0.896742198825056
1580423537.32557,-1.72585641260395,0.139894712748912,-0.405523765926604
1580423537.35765,-1.84353398947128,0.141847867551689,0.28101014724956
1580423537.38972,-1.34645609216449,-0.191653315022506,0.896742198825056
1580423537.4218,-0.750255588616771,-0.245365072098878,1.60866712443732
1580423537.45387,-0.74244296940566,0.23657587548638,1.20534065766384
1580423537.48595,-0.823498893720913,0.175539787899595,0.47925535973144
1580423537.51803,-1.13551537346456,0.10083161669337,-0.413824673838407
1580423537.5501,-1.64773022049287,0.0388189517051956,-0.373296711680782
1580423537.58218,-1.3718471046006,0.148683909361409,-0.663828488593881
1580423537.61425,-1.27956054016938,0.206301976043335,-0.827405203326467
1580423537.64633,-0.933363851377127,-0.0686045624475469,-1.10719462882429
1580423537.67841,-0.485603112840467,-0.35718318455787,-1.11891355764095
1580423537.71048,-0.514900434882124,-0.390386816205082,-1.0036774242771
1580423537.74256,-0.753185320820936,-0.35376516365301,-1.13990997177081
1580423537.77463,-0.936293583581293,-0.143312733653772,-0.891859311818113
1580423537.80671,-0.547615777828641,0.0495613031204698,-1.38210116731518
1580423537.83878,-0.772228580148013,-0.485114824139773,-0.921644922560464
1580423537.87086,0.210208285648889,-0.359136339360647,-1.07643244068055
1580423537.90294,0.0549324788281069,-0.407476920729382,-1.00123598077363
1580423537.93501,-0.496833752956436,0.995864805065995,1.79324025329976
1580423537.96709,-2.15066758220798,0.0612802319371326,-0.903089951934081
1580423537.99916,-0.738536659800106,-1.70876630807965,-2.30643167772946
1580423538.03124,-0.761486228732739,0.865003433279927,-1.42214084077211
1580423538.06332,-1.11549553673609,0.192141603723201,-0.98609903105211
1580423538.09539,-1.26832990005341,0.30151827267872,-1.15309376668955
1580423538.12747,-1.06276035706111,0.153078507667658,-1.11061264972915
1580423538.15954,-1.49343099107347,0.060303654535744,-1.00221255817502
1580423538.19162,-1.7903105210956,0.137941557946135,-0.427985046158541
1580423538.2237,-1.69655909056229,0.170656900892652,0.158937972075989
1580423538.25577,-1.20827038986801,0.0700694285496297,0.852307927061876
1580423538.28785,-0.620859082932784,0.118898298619058,1.52028686961166
1580423538.31992,-0.655039291981383,0.237552452887769,1.21559472037842
1580423538.352,-0.779552910658428,0.10424963759823,0.719981689173725
1580423538.38407,-1.04371709773404,0.0104982070649271,0.196536202029449
1580423538.41615,-2.04129091325246,0.443610284580757,-0.656015869382772
1580423538.44815,-1.63308155947204,-0.0983901731898982,-0.699961852445258
1580423538.48023,-1.28834973678187,-0.0363775082017241,-1.09401083390555
1580423538.5123,-0.84596017395285,-0.408941786831464,-1.21364156557565
1580423538.54438,-0.616952773327229,-0.56568245975433,-1.16823071641108
1580423538.57645,-0.386480506599527,-0.38452735179675,-0.94508278019379
1580423538.60853,-0.499763485160601,-0.309819180590525,-1.01930266269932
1580423538.64061,-0.583260852979324,-0.305424582284276,-0.96900892652781
1580423538.67268,-0.576424811169604,-0.408941786831464,-1.29909208819715
1580423538.70476,-0.826916914625773,-0.0490730144197755,-0.973403524834058
1580423538.73683,-0.126710917830167,-0.398687724116884,-0.849866483558404
1580423538.76891,0.174074921797512,-0.232669565880826,-0.874769207293813
1580423538.80098,-0.388433661402305,0.672129396505685,0.98268101014725
1580423538.83306,-3.27519645990692,0.38355077439536,-0.538826581216144
1580423538.86514,-0.923598077363241,-1.63308155947204,-1.78103303578241
1580423538.89721,-0.242435339894712,1.09352254520485,-1.31422903791867
1580423538.92929,-1.25514610513466,0.284916456855115,-0.938735027084764
1580423538.96136,-1.42995345998322,-0.0397955291065841,-1.13990997177081
1580423538.99344,-1.23854428931105,0.116945143816281,-1.03102159151598
1580423539.02552,-1.35085069047074,0.0988784618905925,-0.773205157549402
1580423539.05759,-1.63064011596857,0.0197756923781185,-0.310307469291219
1580423539.08967,-1.72732127870603,0.174563210498206,0.247318226901655
1580423539.12174,-1.31422903791867,0.111573968108644,0.950942244602121
1580423539.15382,-0.53492027161059,0.0935072861829553,1.64235904478523
1580423539.1859,-0.653086137178606,0.207766842145418,1.2771190966659
1580423539.21797,-0.921644922560464,0.178957808804455,0.877698939497979
1580423539.25005,-1.03736934462501,0.0354009308003356,0.245853360799572
1580423539.28212,-1.82937361715114,0.223392080567635,-0.653574425879301
1580423539.3142,-1.47292286564431,0.0534676127260241,-0.798596169985505
1580423539.34627,-1.29860379949645,0.0388189517051956,-1.03981078812848
1580423539.37835,-0.863538567177844,-0.276615548943314,-1.24586861982147
1580423539.41043,-0.44946974898909,-0.551522087434195,-1.01588464179446
1580423539.4425,-0.393804837109942,-0.689707789730678,-0.791760128175785
1580423539.47458,-0.648203250171663,-0.396734569314107,-0.838635843442436
1580423539.50665,-0.765392538338293,-0.186282139314869,-0.7048447394522
1580423539.53873,-0.727794308384832,0.187747005416952,-1.24831006332494
1580423539.57081,-0.680430304417486,-0.359624628061342,-1.02662699320974
1580423539.60288,0.0734874494544897,-0.619394216830701,-1.15211718928817
1580423539.63496,0.0837415121690697,0.285893034256503,-1.0471351186389
1580423539.66703,-0.508552681773098,0.52906080720226,1.34645609216449
1580423539.69911,-2.37479209582666,-0.152590218966964,-0.862561989776456
1580423539.73163,-0.949477378500038,-1.52224002441443,-2.0295719844358
1580423539.7637,-0.451422903791867,0.908461127641718,-1.20143434805829
1580423539.79578,-1.12672617685206,0.165285725185015,-0.985610742351415
1580423539.82786,-1.32643625543603,0.204837109941252,-1.15114061188678
1580423539.85993,-1.09059281300069,0.157961394674601,-1.11061264972915
1580423539.89201,-1.39479667353323,-0.0642099641412983,-1.03688105592432
1580423539.92408,-1.80300602731365,0.0075684748607614,-0.542732890821698
1580423539.95616,-1.92019531548028,0.187258716716258,0.174074921797512
1580423539.98823,-1.36549935149157,0.0861829556725411,1.26832990005341
1580423540.02031,-0.37085526817731,0.177492942702372,1.83376821545739
1580423540.05239,-0.513923857480735,0.609628442816817,1.39821469443809
1580423540.08446,-1.0129549095903,0.222903791866941,0.884046692607004
1580423540.11654,-1.16432440680552,0.0568856336308841,-0.0246585793850613
1580423540.14861,-1.76980239566644,0.0798352025635154,-0.46997787441825
1580423540.18069,-1.54177157244221,-0.113038834210727,-0.686289768825818
1580423540.21277,-1.13844510566873,0.0510261692225527,-0.96900892652781
1580423540.24484,-0.757579919127185,-0.177492942702372,-1.19899290455482
1580423540.27692,-0.415777828641184,-0.450934615091173,-1.12819104295415
1580423540.30899,-0.453864347295339,-0.527107652399481,-0.875745784695201
1580423540.34107,-0.578377965972381,-0.51783016708629,-1.06129549095903
1580423540.37315,-0.782970931563288,-0.229739833676661,-0.971938658731975
1580423540.40522,-0.645761806668192,-0.108155947203784,-1.40407415884642
1580423540.4373,-0.670664530403601,-0.301518272678722,-0.933363851377127
1580423540.46937,0.0842298008697639,-0.702403295948729,-0.927016098268101
1580423540.50145,-0.0109864957656214,0.130128938735027,-0.610605020218204
1580423540.53352,-0.783459220263982,0.489021133745325,0.871351186388953
1580423540.5656,-1.88601510643168,-0.36743724727245,-0.758556496528573
1580423540.59768,-0.448493171587701,-0.461676966506447,-1.42897688258183
1580423540.62975,-0.95191882200351,0.272709239337757,-1.20485236896315
1580423540.66183,-1.01881437399863,-0.0793469138628211,-1.11061264972915
1580423540.6939,-1.33424887464714,0.106691081101701,-1.08863965819791
1580423540.72598,-1.18971541924163,0.286869611657892,-1.07008468757153
1580423540.75806,-1.48854810406653,0.0144045166704814,-0.916762035553521
1580423540.79013,-1.75320057984283,0.0866712443732354,-0.210696574349583
1580423540.82221,-1.7649195086595,0.131593804837109,0.374273289082169
1580423540.85428,-1.07789730678263,0.0793469138628211,1.08180361638819
1580423540.88636,-0.449958037689784,0.517830167086291,1.71657892729076
1580423540.91844,-0.792736705577173,0.106691081101701,0.984634164950027
1580423540.95051,-0.898207064927139,-0.0383306630045013,0.47241931792172
1580423540.98259,-1.11940184634165,-0.127687495231555,-0.272709239337759
1580423541.01477,-1.76980239566644,0.0837415121690697,-0.409430075532159
1580423541.04685,-1.46266880292973,-0.0832532234683754,-0.639414053559166
1580423541.07892,-1.225848783093,-0.134035248340581,-1.10377660791943
1580423541.111,-0.745372701609826,-0.281010147249562,-1.1579766536965
1580423541.14308,-0.328374151216908,-0.345464255741208,-1.09938200961318
1580423541.17515,-0.417242694743267,-0.495857175555047,-0.92799267566949
1580423541.20723,-0.573006790264744,-0.596932936598764,-0.900160219729916
1580423541.23931,-0.697520408941786,-0.244388494697489,-0.781994354161899
1580423541.27138,-0.937758449683376,0.119874876020447,-1.22487220569161
1580423541.30346,-0.78785381857023,-0.220462348363469,-1.00221255817502
1580423541.33553,-0.215579461356526,-0.850354772259099,-1.0466468299382
1580423541.36761,0.0471198596169984,-0.140871290150301,-0.93824673838407
1580423541.39969,-0.219974059662775,0.525154497596706,0.219485770962081
1580423541.43176,-2.9011673151751,0.538338292515451,-0.077393759060044
1580423541.46384,-0.990981918059052,-1.83669794766156,-1.06471351186389
1580423541.49592,-0.070557717250324,0.209719996948195,-1.2346379797055
1580423541.52799,-1.33278400854505,0.327397573815517,-1.11207751583123
1580423541.56007,-1.31715877012284,0.0861829556725411,-1.05348287174792
1580423541.59214,-1.03688105592432,0.153566796368352,-1.15455863279164
1580423541.62422,-1.20582894636454,0.144289311055161,-1.03590447852293
1580423541.6563,-1.50563820859083,-0.0173342488746471,-0.751232166018159
1580423541.68837,-1.6706797894255,0.137941557946135,-0.175051499198901
1580423541.72045,-1.59206530861372,0.156496528572518,0.433356221866177
1580423541.75253,-0.998306248569467,0.2775921263447,1.18239108873121
1580423541.7846,-0.464606698710613,0.289799343862057,1.64138246738384
1580423541.81668,-0.834729533836882,0.144777599755855,1.07106126497291
1580423541.84875,-1.10768291752499,0.130128938735027,0.570565346761274
1580423541.88083,-1.73220416571298,0.202883955138475,-0.128664072632944
1580423541.91291,-1.89187457084001,0.183352407110704,-0.852307927061876
1580423541.94498,-1.55788509956512,-0.0305180437933927,-0.923598077363241
1580423541.97706,-1.04420538643473,-0.0920424200808725,-1.27858396276799
1580423542.00914,-0.39819943541619,-0.424567025253682,-1.2517280842298
1580423542.04121,-0.048096437018387,-0.6877546349279,-1.09449912260624
1580423542.07329,-0.231204699778743,-0.566659037155718,-0.839612420843824
1580423542.10537,-0.219485770962081,-0.251224536507211,-1.01002517738613
1580423542.13744,-0.600839246204318,0.208255130846112,-0.972915236133364
1580423542.16952,-0.867933165484093,-0.0422369726100555,-1.6194094758526
1580423542.20159,-0.871839475089647,-1.04859998474098,-0.922133211261158
1580423542.23367,0.00805676356145568,-0.347417410543985,-0.805920500495919
1580423542.26575,0.00268558785381856,0.134523537041275,-0.341557946135653
1580423542.29803,-1.45632104982071,0.600350957503625,1.50222018768597
1580423542.33011,-1.49538414587625,-0.297611963073168,-0.970962081330587
1580423542.36219,-0.613046463721675,-0.705333028152895,-1.77663843747616
1580423542.39427,-0.913832303349356,0.760997940032045,-1.243427176318
1580423542.42634,-1.22145418478675,-0.146730754558632,-0.888441290913253
1580423542.45842,-1.21412985427634,0.135011825741969,-1.04029907682918
1580423542.4905,-1.17604333562219,0.37329671168078,-1.03297474631876
1580423542.52257,-1.48464179446098,0.200442511635003,-0.74586099031052
1580423542.55465,-1.85476462958724,0.0075684748607614,-0.176516365300984
1580423542.58673,-1.60036621652552,0.0607919432364383,0.540779736018923
1580423542.61881,-0.994399938963912,0.0651865415426869,1.35280384527352
1580423542.65088,-0.458258945601587,0.352300297550926,1.7307392996109
1580423542.68296,-0.945571068894484,0.0676279850461583,0.929945830472267
1580423542.71504,-0.975356679636835,-0.0744640268558783,0.396734569314106
1580423542.74712,-1.35573357747768,0.0554207675288012,-0.598886091401541
1580423542.77919,-1.93630884260319,0.119386587319752,-0.231692988479438
1580423542.81127,-1.28395513847562,0.0104982070649271,-0.797619592584116
1580423542.84335,-1.06031891355764,-0.0368657969024184,-1.06617837796597
1580423542.87543,-0.614999618524452,-0.251712825207905,-1.14576943617914
1580423542.9075,-0.356206607156482,-0.553963530937667,-1.12721446555276
1580423542.93958,-0.624765392538338,-0.664316777294575,-0.93482871747921
1580423542.97166,-0.668711375600823,-0.257572289616236,-0.924086366063936
1580423543.00373,-0.759044785229268,0.218997482261386,-1.00172426947433
1580423543.03581,-0.751720454718853,-0.197512779430838,-1.13405050736248
1580423543.06789,-0.404058899824522,-0.882581826504921,-1.06031891355764
1580423543.09997,0.0842298008697639,-0.180910963607232,-1.04567025253681
1580423543.13204,-0.073975738155184,0.187747005416952,-0.298588540474556
1580423543.16412,-2.65360494392309,0.159426260776684,0.370366979476614
1580423543.1962,-0.763439383535516,-1.66579690241855,-0.960708018616007
1580423543.22828,-0.0139162279697871,0.860608834973679,-1.26442359044785
1580423543.26035,-1.40749217975128,0.070557717250324,-1.17018387121385
