Timestamp_seconds,Gyro_X_s,Gyro_Y_s,Gyro_Z_s
1580423490.01927,0.0305180437933359,1.43434805828952,0.823987182421661
1580423490.02326,0.0305180437933359,1.49538414587619,0.823987182421661
1580423490.02725,0.0305180437933359,1.55642023346309,0.762951094834762
1580423490.03124,0.091554131380235,1.67849240863666,0.70191500724809
1580423490.03524,0.213626306553806,1.73952849622333,0.70191500724809
1580423490.03923,0.335698481727377,1.8616006713969,0.823987182421661
1580423490.04323,0.396734569314049,1.73952849622333,0.640878919661191
1580423490.04722,0.274662394140478,1.43434805828952,0.396734569314049
1580423490.05121,0.274662394140478,1.19020370794237,0.274662394140478
1580423490.05521,0.152590218966907,1.0681315327688,0.213626306553806
1580423490.0592,0.152590218966907,0.823987182421661,0.091554131380235
1580423490.06319,0.274662394140478,0.762951094834762,0.152590218966907
1580423490.06719,0.396734569314049,0.640878919661191,0.091554131380235
1580423490.07118,0.274662394140478,0.70191500724809,0.0305180437933359
1580423490.07517,0.335698481727377,0.70191500724809,-0.0305180437933359
1580423490.07917,0.457770656900948,0.762951094834762,-0.0305180437933359
1580423490.08316,0.457770656900948,0.823987182421661,-0.152590218966907
1580423490.08715,0.579842832074519,0.762951094834762,-0.091554131380235
1580423490.09115,0.457770656900948,0.762951094834762,-0.213626306553806
1580423490.09514,0.51880674448762,0.762951094834762,-0.213626306553806
1580423490.09913,0.640878919661191,0.823987182421661,-0.274662394140478
1580423490.10313,0.885023270008332,1.0070954451819,-0.274662394140478
1580423490.10715,0.885023270008332,1.19020370794237,-0.274662394140478
1580423490.11114,1.0681315327688,1.37331197070262,-0.152590218966907
1580423490.11513,1.25123979552905,1.55642023346309,-0.091554131380235
1580423490.11913,1.19020370794237,1.43434805828952,0.0305180437933359
1580423490.12312,1.19020370794237,1.49538414587619,0.091554131380235
1580423490.12711,1.0681315327688,1.67849240863666,0.152590218966907
1580423490.13111,0.579842832074519,1.73952849622333,0.335698481727377
1580423490.1351,0.213626306553806,1.8616006713969,0.457770656900948
1580423490.13909,-0.152590218966907,1.9226367589838,0.640878919661191
1580423490.14309,-0.457770656900948,2.10574502174404,0.579842832074519
1580423490.14708,-0.640878919661191,2.10574502174404,0.579842832074519
1580423490.15107,-0.640878919661191,2.22781719691761,0.70191500724809
1580423490.15507,-0.70191500724809,2.16678110933094,0.640878919661191
1580423490.15906,-0.70191500724809,2.04470893415737,0.640878919661191
1580423490.16306,-0.70191500724809,1.9226367589838,0.579842832074519
1580423490.16705,-0.823987182421661,1.8616006713969,0.579842832074519
1580423490.17104,-1.12916762035547,1.73952849622333,0.70191500724809
1580423490.17504,-1.43434805828952,1.61745632104976,0.640878919661191
1580423490.17903,-1.49538414587619,1.55642023346309,0.579842832074519
1580423490.18302,-1.8616006713969,1.43434805828952,0.457770656900948
1580423490.18701,-1.9226367589838,1.31227588311594,0.335698481727377
1580423490.191,-1.8616006713969,1.12916762035547,0.152590218966907
1580423490.195,-1.9226367589838,0.946059357595232,0.0305180437933359
1580423490.19899,-1.8616006713969,0.70191500724809,-0.152590218966907
1580423490.20298,-1.9226367589838,0.51880674448762,-0.091554131380235
1580423490.20698,-1.98367284657047,0.457770656900948,-0.0305180437933359
1580423490.21097,-1.98367284657047,0.274662394140478,-0.0305180437933359
1580423490.21497,-1.9226367589838,0.152590218966907,-0.0305180437933359
1580423490.21896,-2.04470893415737,0.152590218966907,-0.152590218966907
1580423490.22295,-2.16678110933094,0.152590218966907,-0.091554131380235
1580423490.22695,-2.47196154726475,0.152590218966907,-0.213626306553806
1580423490.23094,-2.53299763485165,0.213626306553806,-0.335698481727377
1580423490.23493,-2.59403372243833,0.213626306553806,-0.335698481727377
1580423490.23893,-2.83817807278547,0.152590218966907,-0.335698481727377
1580423490.24292,-2.83817807278547,0.091554131380235,-0.335698481727377
1580423490.24691,-2.83817807278547,0.0305180437933359,-0.335698481727377
1580423490.25091,-2.7771419851988,0.0305180437933359,-0.152590218966907
1580423490.2549,-2.7771419851988,-0.091554131380235,0.0305180437933359
1580423490.25889,-2.59403372243833,-0.091554131380235,0.274662394140478
1580423490.26289,-2.28885328450451,0.0305180437933359,0.274662394140478
1580423490.26688,-2.04470893415737,0.091554131380235,0.213626306553806
1580423490.27087,-1.9226367589838,0.091554131380235,0.213626306553806
1580423490.27486,-1.61745632104976,0.152590218966907,0.396734569314049
1580423490.27886,-1.49538414587619,0.0305180437933359,0.396734569314049
1580423490.28285,-1.37331197070262,0.091554131380235,0.213626306553806
1580423490.28684,-1.0681315327688,-0.0305180437933359,0.091554131380235
1580423490.29084,-0.762951094834762,-0.091554131380235,0.091554131380235
1580423490.29483,-0.396734569314049,-0.0305180437933359,0.152590218966907
1580423490.29882,0.091554131380235,0.0305180437933359,0.152590218966907
1580423490.30282,0.213626306553806,0.0305180437933359,0.091554131380235
1580423490.30681,0.396734569314049,-0.091554131380235,0.091554131380235
1580423490.3108,0.457770656900948,-0.152590218966907,-0.0305180437933359
1580423490.3148,0.579842832074519,-0.274662394140478,-0.213626306553806
1580423490.31879,0.579842832074519,-0.396734569314049,-0.152590218966907
1580423490.32278,0.457770656900948,-0.457770656900948,-0.152590218966907
1580423490.32678,0.213626306553806,-0.640878919661191,-0.213626306553806
1580423490.33077,0.0305180437933359,-0.457770656900948,-0.0305180437933359
1580423490.33477,-0.274662394140478,-0.457770656900948,-0.152590218966907
1580423490.33876,-0.51880674448762,-0.274662394140478,-0.091554131380235
1580423490.34275,-0.762951094834762,-0.213626306553806,0.0305180437933359
1580423490.3468,-0.946059357595232,-0.0305180437933359,0.0305180437933359
1580423490.3508,-0.946059357595232,0.091554131380235,0.0305180437933359
1580423490.35479,-0.762951094834762,0.091554131380235,0.152590218966907
1580423490.35878,-0.640878919661191,0.213626306553806,0.274662394140478
1580423490.36277,-0.396734569314049,0.457770656900948,0.335698481727377
1580423490.36677,-0.0305180437933359,0.70191500724809,0.579842832074519
1580423490.37076,0.335698481727377,0.823987182421661,0.640878919661191
1580423490.37476,0.579842832074519,1.12916762035547,0.70191500724809
1580423490.37875,0.70191500724809,1.19020370794237,0.885023270008332
1580423490.38274,0.640878919661191,1.37331197070262,1.0681315327688
1580423490.38674,0.579842832074519,1.43434805828952,1.19020370794237
1580423490.39073,0.51880674448762,1.37331197070262,1.25123979552905
1580423490.39472,0.640878919661191,1.37331197070262,1.31227588311594
1580423490.39872,0.823987182421661,1.12916762035547,1.0681315327688
1580423490.40271,0.946059357595232,1.0070954451819,1.19020370794237
1580423490.4067,1.0070954451819,0.823987182421661,1.12916762035547
1580423490.4107,0.946059357595232,0.762951094834762,1.0681315327688
1580423490.41469,1.0681315327688,0.579842832074519,0.885023270008332
1580423490.41868,1.0070954451819,0.457770656900948,0.762951094834762
1580423490.42268,0.946059357595232,0.51880674448762,0.762951094834762
1580423490.42667,0.946059357595232,0.335698481727377,0.579842832074519
1580423490.43066,0.946059357595232,0.457770656900948,0.51880674448762
1580423490.43465,0.762951094834762,0.579842832074519,0.335698481727377
1580423490.43865,0.51880674448762,0.396734569314049,0.335698481727377
1580423490.44264,0.213626306553806,0.396734569314049,0.274662394140478
1580423490.44663,0.213626306553806,0.335698481727377,0.152590218966907
1580423490.45063,0.0305180437933359,0.396734569314049,0.091554131380235
1580423490.45462,0.0305180437933359,0.396734569314049,0.091554131380235
1580423490.45861,0.0305180437933359,0.274662394140478,0.091554131380235
1580423490.46261,0.091554131380235,0.091554131380235,-0.0305180437933359
1580423490.4666,0.274662394140478,0.091554131380235,-0.0305180437933359
1580423490.47059,0.274662394140478,0.152590218966907,-0.152590218966907
1580423490.47459,0.457770656900948,0.091554131380235,0.0305180437933359
1580423490.47858,0.640878919661191,0.0305180437933359,0.0305180437933359
1580423490.48257,0.762951094834762,0.213626306553806,0.152590218966907
1580423490.48657,1.0070954451819,0.213626306553806,0.274662394140478
1580423490.49056,1.25123979552905,0.274662394140478,0.274662394140478
1580423490.49456,1.49538414587619,0.396734569314049,0.396734569314049
1580423490.49855,1.67849240863666,0.396734569314049,0.457770656900948
1580423490.50254,1.80056458381023,0.396734569314049,0.579842832074519
1580423490.50656,2.04470893415737,0.457770656900948,0.640878919661191
1580423490.51055,2.16678110933094,0.335698481727377,0.70191500724809
1580423490.51455,2.41092545967808,0.396734569314049,0.762951094834762
1580423490.51854,2.53299763485165,0.213626306553806,0.885023270008332
1580423490.52253,2.7771419851988,0.274662394140478,0.762951094834762
1580423490.52653,2.65506981002522,0.274662394140478,0.762951094834762
1580423490.53052,2.59403372243833,0.213626306553806,0.823987182421661
1580423490.53451,2.41092545967808,0.091554131380235,0.70191500724809
1580423490.53851,2.22781719691761,0.0305180437933359,0.70191500724809
1580423490.5425,2.04470893415737,-0.0305180437933359,0.640878919661191
1580423490.5465,1.80056458381023,-0.091554131380235,0.51880674448762
1580423490.55049,1.73952849622333,-0.335698481727377,0.51880674448762
1580423490.55448,1.55642023346309,-0.335698481727377,0.51880674448762
1580423490.55848,1.55642023346309,-0.396734569314049,0.274662394140478
1580423490.56247,1.49538414587619,-0.396734569314049,0.396734569314049
1580423490.56646,1.37331197070262,-0.396734569314049,0.335698481727377
1580423490.57046,1.61745632104976,-0.335698481727377,0.335698481727377
1580423490.57445,1.67849240863666,-0.457770656900948,0.396734569314049
1580423490.57844,1.67849240863666,-0.579842832074519,0.396734569314049
1580423490.58244,1.67849240863666,-0.70191500724809,0.152590218966907
1580423490.58642,1.73952849622333,-0.579842832074519,0.213626306553806
1580423490.59042,1.73952849622333,-0.70191500724809,0.213626306553806
1580423490.59441,1.9226367589838,-0.823987182421661,0.152590218966907
1580423490.59841,2.04470893415737,-0.70191500724809,0.213626306553806
1580423490.6024,2.10574502174404,-0.823987182421661,0.274662394140478
1580423490.60639,2.28885328450451,-0.640878919661191,0.396734569314049
1580423490.61039,2.34988937209118,-0.640878919661191,0.457770656900948
1580423490.61438,2.41092545967808,-0.579842832074519,0.457770656900948
1580423490.61837,2.41092545967808,-0.70191500724809,0.51880674448762
1580423490.62237,2.47196154726475,-0.51880674448762,0.579842832074519
1580423490.62636,2.59403372243833,-0.335698481727377,0.70191500724809
1580423490.63035,2.47196154726475,-0.457770656900948,0.640878919661191
1580423490.63435,2.47196154726475,-0.396734569314049,0.640878919661191
1580423490.63834,2.34988937209118,-0.213626306553806,0.640878919661191
1580423490.64233,2.28885328450451,-0.335698481727377,0.70191500724809
1580423490.64633,2.16678110933094,-0.335698481727377,0.70191500724809
1580423490.65032,2.16678110933094,-0.274662394140478,0.640878919661191
1580423490.65431,2.22781719691761,-0.335698481727377,0.70191500724809
1580423490.65831,2.04470893415737,-0.213626306553806,0.70191500724809
1580423490.6623,2.04470893415737,-0.396734569314049,0.579842832074519
1580423490.66629,2.04470893415737,-0.457770656900948,0.457770656900948
1580423490.67028,1.80056458381023,-0.762951094834762,0.457770656900948
1580423490.67428,1.73952849622333,-0.946059357595232,0.457770656900948
1580423490.67827,1.67849240863666,-1.19020370794237,0.213626306553806
1580423490.68226,1.55642023346309,-1.37331197070262,0.152590218966907
1580423490.68626,1.43434805828952,-1.43434805828952,-0.0305180437933359
1580423490.69025,1.55642023346309,-1.67849240863666,0.0305180437933359
1580423490.69424,1.55642023346309,-1.61745632104976,-0.152590218966907
1580423490.69824,1.49538414587619,-1.67849240863666,-0.091554131380235
1580423490.70223,1.55642023346309,-1.73952849622333,-0.213626306553806
1580423490.70622,1.67849240863666,-1.67849240863666,-0.0305180437933359
1580423490.71022,1.8616006713969,-1.61745632104976,-0.091554131380235
1580423490.71421,1.98367284657047,-1.55642023346309,0.091554131380235
1580423490.71821,2.41092545967808,-1.55642023346309,0.0305180437933359
1580423490.7222,2.65506981002522,-1.43434805828952,0.152590218966907
1580423490.72619,2.7161058976119,-1.37331197070262,0.274662394140478
1580423490.73019,2.7161058976119,-1.37331197070262,0.274662394140478
1580423490.73418,2.7771419851988,-1.25123979552905,0.457770656900948
1580423490.73817,2.53299763485165,-1.19020370794237,0.457770656900948
1580423490.74217,2.41092545967808,-1.19020370794237,0.335698481727377
1580423490.74618,2.22781719691761,-1.31227588311594,0.274662394140478
1580423490.75018,2.04470893415737,-1.31227588311594,0.335698481727377
1580423490.75417,1.67849240863666,-1.37331197070262,0.274662394140478
1580423490.75816,1.49538414587619,-1.37331197070262,0.091554131380235
1580423490.76216,1.25123979552905,-1.25123979552905,0.152590218966907
1580423490.76615,1.19020370794237,-1.31227588311594,0.213626306553806
1580423490.77015,1.25123979552905,-1.31227588311594,0.091554131380235
1580423490.77414,1.19020370794237,-1.49538414587619,0.152590218966907
1580423490.77813,1.0070954451819,-1.43434805828952,0.091554131380235
1580423490.78213,0.823987182421661,-1.61745632104976,0.0305180437933359
1580423490.78612,0.70191500724809,-1.73952849622333,0.0305180437933359
1580423490.79011,0.457770656900948,-2.04470893415737,0.0305180437933359
1580423490.79411,0.457770656900948,-2.28885328450451,-0.213626306553806
1580423490.7981,0.335698481727377,-2.53299763485165,-0.213626306553806
1580423490.80209,0.152590218966907,-2.89921416037237,-0.274662394140478
1580423490.80609,0.0305180437933359,-3.38750286106665,-0.457770656900948
1580423490.81008,-0.213626306553806,-3.57061112382689,-0.51880674448762
1580423490.81407,-0.396734569314049,-3.99786373693451,-0.579842832074519
1580423490.81807,-0.396734569314049,-4.36408026245522,-0.51880674448762
1580423490.82206,-0.51880674448762,-4.60822461280236,-0.51880674448762
1580423490.82605,-0.396734569314049,-4.8523689631495,-0.51880674448762
1580423490.83004,-0.213626306553806,-4.7913328755626,-0.51880674448762
1580423490.83404,-0.152590218966907,-4.7913328755626,-0.457770656900948
1580423490.83803,-0.213626306553806,-4.66926070038903,-0.335698481727377
1580423490.84202,-0.274662394140478,-4.60822461280236,-0.152590218966907
1580423490.84602,-0.335698481727377,-4.42511635004189,-0.213626306553806
1580423490.85001,-0.274662394140478,-4.11993591210808,-0.091554131380235
1580423490.854,-0.0305180437933359,-3.93682764934761,0.0305180437933359
1580423490.858,0.0305180437933359,-3.57061112382689,-0.0305180437933359
1580423490.86199,0.213626306553806,-3.50957503624022,0.091554131380235
1580423490.86598,0.579842832074519,-3.26543068589308,0.152590218966907
1580423490.86998,0.885023270008332,-3.26543068589308,0.091554131380235
1580423490.87397,1.19020370794237,-3.63164721141379,0.213626306553806
1580423490.87796,1.37331197070262,-3.63164721141379,0.0305180437933359
1580423490.88196,1.49538414587619,-3.75371938658736,0.152590218966907
1580423490.88595,1.55642023346309,-3.93682764934761,0.0305180437933359
1580423490.88995,1.67849240863666,-3.93682764934761,0.091554131380235
1580423490.89394,1.61745632104976,-3.93682764934761,-0.0305180437933359
1580423490.89793,1.61745632104976,-3.99786373693451,-0.091554131380235
1580423490.90193,1.43434805828952,-3.93682764934761,-0.152590218966907
1580423490.90594,1.19020370794237,-3.93682764934761,-0.396734569314049
1580423490.90994,1.19020370794237,-3.99786373693451,-0.579842832074519
1580423490.91393,1.19020370794237,-4.11993591210808,-0.762951094834762
1580423490.91792,1.31227588311594,-4.11993591210808,-0.823987182421661
1580423490.92192,1.31227588311594,-4.24200808728165,-0.762951094834762
1580423490.92591,1.55642023346309,-4.18097199969475,-0.762951094834762
1580423490.92991,1.43434805828952,-4.18097199969475,-0.70191500724809
1580423490.9339,1.49538414587619,-4.11993591210808,-0.70191500724809
1580423490.93789,1.61745632104976,-3.99786373693451,-0.70191500724809
1580423490.94189,1.55642023346309,-3.99786373693451,-0.640878919661191
1580423490.94588,1.49538414587619,-3.75371938658736,-0.70191500724809
1580423490.94987,1.37331197070262,-3.69268329900046,-0.762951094834762
1580423490.95387,1.43434805828952,-3.63164721141379,-0.640878919661191
1580423490.95786,1.37331197070262,-3.38750286106665,-0.457770656900948
1580423490.96185,1.31227588311594,-3.32646677347975,-0.579842832074519
1580423490.96585,1.12916762035547,-3.14335851071951,-0.51880674448762
1580423490.96984,1.0681315327688,-2.89921416037237,-0.396734569314049
1580423490.97383,1.12916762035547,-2.59403372243833,-0.335698481727377
1580423490.97783,1.19020370794237,-2.34988937209118,-0.152590218966907
1580423490.98182,1.37331197070262,-2.04470893415737,-0.091554131380235
1580423490.98581,1.55642023346309,-1.80056458381023,-0.091554131380235
1580423490.9898,1.73952849622333,-1.55642023346309,0.091554131380235
1580423490.9938,1.8616006713969,-1.37331197070262,0.213626306553806
1580423490.99779,2.22781719691761,-1.12916762035547,0.335698481727377
1580423491.00178,2.28885328450451,-0.946059357595232,0.396734569314049
1580423491.00578,2.59403372243833,-0.762951094834762,0.579842832074519
1580423491.00977,2.65506981002522,-0.579842832074519,0.70191500724809
1580423491.01376,2.65506981002522,-0.579842832074519,0.762951094834762
1580423491.01776,2.53299763485165,-0.579842832074519,0.762951094834762
1580423491.02175,2.47196154726475,-0.579842832074519,0.70191500724809
1580423491.02574,2.47196154726475,-0.396734569314049,0.640878919661191
1580423491.02974,2.41092545967808,-0.213626306553806,0.70191500724809
1580423491.03373,2.53299763485165,-0.091554131380235,0.579842832074519
1580423491.03772,2.53299763485165,-0.0305180437933359,0.457770656900948
1580423491.04172,2.53299763485165,0.0305180437933359,0.274662394140478
1580423491.04571,2.47196154726475,0.274662394140478,0.274662394140478
1580423491.04971,2.10574502174404,0.457770656900948,0.396734569314049
1580423491.0537,1.98367284657047,0.579842832074519,0.335698481727377
1580423491.05769,1.80056458381023,0.885023270008332,0.213626306553806
1580423491.06169,1.73952849622333,1.12916762035547,0.091554131380235
1580423491.0657,1.73952849622333,1.19020370794237,0.213626306553806
1580423491.0697,1.80056458381023,1.31227588311594,0.335698481727377
1580423491.07369,1.73952849622333,1.37331197070262,0.213626306553806
1580423491.07768,1.43434805828952,1.31227588311594,0.335698481727377
1580423491.08168,1.37331197070262,1.31227588311594,0.274662394140478
1580423491.08567,1.19020370794237,1.25123979552905,0.274662394140478
1580423491.08966,1.19020370794237,1.25123979552905,0.396734569314049
1580423491.09366,1.12916762035547,1.19020370794237,0.335698481727377
1580423491.09765,1.25123979552905,1.19020370794237,0.579842832074519
1580423491.10165,1.37331197070262,1.25123979552905,0.457770656900948
1580423491.10564,1.43434805828952,1.19020370794237,0.335698481727377
1580423491.10963,1.43434805828952,1.25123979552905,0.579842832074519
1580423491.11363,1.25123979552905,1.25123979552905,0.579842832074519
1580423491.11762,1.19020370794237,1.25123979552905,0.579842832074519
1580423491.12161,1.19020370794237,1.31227588311594,0.70191500724809
1580423491.12561,1.19020370794237,1.19020370794237,0.885023270008332
1580423491.1296,1.0681315327688,1.0070954451819,0.823987182421661
1580423491.13359,0.885023270008332,1.0070954451819,0.823987182421661
1580423491.13759,0.885023270008332,0.946059357595232,0.885023270008332
1580423491.14158,0.885023270008332,0.762951094834762,0.762951094834762
1580423491.14557,0.885023270008332,0.640878919661191,0.762951094834762
1580423491.14956,0.946059357595232,0.457770656900948,0.70191500724809
1580423491.15355,1.0070954451819,0.335698481727377,0.640878919661191
1580423491.15755,1.0070954451819,0.396734569314049,0.579842832074519
1580423491.16154,0.885023270008332,0.335698481727377,0.396734569314049
1580423491.16554,0.51880674448762,0.335698481727377,0.274662394140478
1580423491.16953,0.152590218966907,0.091554131380235,0.091554131380235
1580423491.17352,-0.152590218966907,-0.091554131380235,0.0305180437933359
1580423491.17752,-0.457770656900948,-0.274662394140478,-0.0305180437933359
1580423491.18151,-0.51880674448762,-0.457770656900948,0.0305180437933359
1580423491.1855,-0.335698481727377,-0.762951094834762,-0.0305180437933359
1580423491.1895,0.213626306553806,-1.25123979552905,0.091554131380235
1580423491.19349,1.0070954451819,-1.8616006713969,0.091554131380235
1580423491.19748,2.10574502174404,-2.7161058976119,0.335698481727377
1580423491.20148,3.08232242313261,-3.87579156176093,0.457770656900948
1580423491.20547,3.75371938658736,-4.91340505073617,0.51880674448762
1580423491.20947,3.75371938658736,-5.58480201419093,0.762951094834762
1580423491.21346,3.20439459830618,-6.19516289005878,0.885023270008332
1580423491.21745,2.59403372243833,-6.19516289005878,0.885023270008332
1580423491.22144,1.73952849622333,-5.76791027695117,0.70191500724809
1580423491.22543,1.31227588311594,-5.40169375143046,0.457770656900948
1580423491.22943,1.43434805828952,-5.27962157625689,0.274662394140478
1580423491.23342,1.43434805828952,-5.27962157625689,0.0305180437933359
1580423491.23741,1.12916762035547,-5.03547722590974,0.213626306553806
1580423491.24141,0.335698481727377,-4.54718852521546,0.335698481727377
1580423491.2454,-0.762951094834762,-4.05889982452118,0.579842832074519
1580423491.24939,-2.22781719691761,-3.81475547417404,0.885023270008332
1580423491.25339,-3.50957503624022,-3.75371938658736,1.19020370794237
1580423491.25738,-4.54718852521546,-3.81475547417404,1.12916762035547
1580423491.26137,-4.91340505073617,-4.11993591210808,1.19020370794237
1580423491.26537,-5.09651331349664,-4.60822461280236,1.37331197070262
1580423491.26936,-5.03547722590974,-4.73029678797593,1.37331197070262
1580423491.27336,-5.03547722590974,-4.8523689631495,1.55642023346309
1580423491.27735,-5.27962157625689,-5.15754940108332,1.80056458381023
1580423491.28134,-5.76791027695117,-5.52376592660403,1.98367284657047
1580423491.28534,-6.31723506523235,-5.7068741893645,2.04470893415737
1580423491.28933,-6.62241550316617,-5.7068741893645,2.22781719691761
1580423491.29332,-6.43930724040592,-5.95101853971164,2.41092545967808
1580423491.29732,-5.95101853971164,-6.31723506523235,2.65506981002522
1580423491.30131,-5.09651331349664,-6.62241550316617,3.02128633554594
1580423491.30533,-4.36408026245522,-6.74448767833974,3.50957503624022
1580423491.30932,-3.99786373693451,-6.56137941557949,3.99786373693451
1580423491.31331,-4.30304417486832,-6.19516289005878,4.73029678797593
1580423491.31731,-5.03547722590974,-5.40169375143046,5.58480201419093
1580423491.3213,-6.25619897764545,-4.7913328755626,6.56137941557949
1580423491.3253,-7.47692072938116,-4.48615243762879,7.47692072938116
1580423491.32929,-8.33142595559616,-4.66926070038903,8.02624551766235
1580423491.33328,-8.81971465629044,-5.40169375143046,8.45349813076973
1580423491.33728,-8.69764248111687,-6.43930724040592,8.6366063935302
1580423491.34127,-7.66002899214163,-7.7821011673152,8.5755703059433
1580423491.34526,-5.46272983901736,-9.30800335698473,8.45349813076973
1580423491.34926,-2.22781719691761,-10.7118333714809,8.45349813076973
1580423491.35325,0.70191500724809,-11.9325551232166,8.69764248111687
1580423491.35724,2.28885328450451,-12.7260242618447,8.88075074387734
1580423491.36124,2.83817807278547,-13.214312962539,9.24696726939806
1580423491.36523,3.38750286106665,-14.3129625391011,9.85732814526591
1580423491.36922,4.66926070038903,-15.7167925535973,10.1014724956131
1580423491.37322,7.04966811627378,-17.5478751812009,10.2235446707866
1580423491.37721,10.0404364080262,-19.501029983978,10.0404364080262
1580423491.3812,13.3974212252995,-21.3931486991683,9.36903944457163
1580423491.38519,16.1440451667047,-23.1021591515982,8.14831769283592
1580423491.38919,18.2803082322423,-24.4449530785075,6.62241550316617
1580423491.39318,19.8062104219118,-25.2384222171358,4.91340505073617
1580423491.39717,20.8438239108873,-25.7267109178301,2.96025024795904
1580423491.40117,22.1255817502097,-26.1539635309375,1.19020370794237
1580423491.40516,23.7125200274661,-26.6422522316318,-0.152590218966907
1580423491.40915,25.5436026550697,-27.1305409323261,-1.31227588311594
1580423491.41315,27.191577019913,-27.8019378957808,-2.47196154726475
1580423491.41714,28.1071183337147,-28.7785152971694,-3.32646677347975
1580423491.42113,28.1681544213016,-29.9382009613182,-4.48615243762879
1580423491.42513,27.8629739833675,-30.9147783627068,-5.82894636453807
1580423491.42912,27.8019378957808,-31.4641031509882,-7.23277637903402
1580423491.43312,28.6564431219958,-31.8913557640956,-8.81971465629044
1580423491.43711,30.3654535744258,-32.1965362020296,-9.91836423285258
1580423491.4411,32.6237888151368,-32.928969253071,-10.7118333714809
1580423491.44509,35.0041962310215,-33.7224383916991,-10.955977721828
1580423491.44909,36.6521705958646,-34.4548714427406,-10.7118333714809
1580423491.45308,37.5677119096665,-35.187304493782,-9.79629205767901
1580423491.45708,37.8728923476003,-35.8587014572367,-8.6366063935302
1580423491.46107,37.6897840848401,-36.6521705958648,-7.59899290455473
1580423491.46509,37.5677119096665,-37.2625314717327,-6.80552376592664
1580423491.46908,37.7508201724268,-37.750820172427,-6.19516289005878
1580423491.47307,38.4222171358815,-38.4222171358817,-5.58480201419093
1580423491.47707,39.3377584496832,-39.1546501869232,-4.97444113832307
1580423491.48106,40.0701915007246,-40.0091554131382,-4.30304417486832
1580423491.48505,40.0701915007246,-41.0467689021134,-3.69268329900046
1580423491.48905,39.093614099336,-42.023346303502,-3.20439459830618
1580423491.49304,37.2014953841458,-42.877851529717,-2.59403372243833
1580423491.49704,34.7600518806744,-43.8544289311055,-1.8616006713969
1580423491.50103,32.1965362020294,-44.6478980697339,-0.823987182421661
1580423491.50502,29.755092698558,-45.1361867704281,0.152590218966907
1580423491.50902,26.9474326695658,-45.8075837338827,1.12916762035547
1580423491.51301,23.773556115053,-47.1503776607919,2.10574502174404
1580423491.517,20.2334630350194,-49.0424963759824,3.08232242313261
1580423491.521,16.4492256046387,-51.1177233539331,3.75371938658736
1580423491.52499,12.7260242618447,-53.437094682231,3.99786373693451
1580423491.52898,9.4300755321583,-55.5123216601817,3.69268329900046
1580423491.53298,7.23277637903402,-57.0382238498512,2.7161058976119
1580423491.53697,5.95101853971164,-58.1979095140002,1.80056458381023
1580423491.54096,5.40169375143046,-59.7848477912567,0.640878919661191
1580423491.54495,4.97444113832307,-61.4328221560997,-0.213626306553806
1580423491.54895,4.66926070038903,-63.0197604333562,-1.25123979552905
1580423491.55294,4.24200808728165,-64.7898069733731,-2.16678110933094
1580423491.55693,4.24200808728165,-66.4377813382162,-3.26543068589308
1580423491.56093,4.91340505073617,-68.0857557030595,-4.42511635004189
1580423491.56492,5.95101853971164,-69.4285496299688,-5.52376592660403
1580423491.56891,7.72106507972831,-70.8934157320516,-6.74448767833974
1580423491.57291,9.73525597009234,-72.3582818341345,-8.45349813076973
1580423491.5769,11.7494468604561,-73.8231479362173,-10.5897611963073
1580423491.58089,13.7026016632333,-75.4100862134737,-12.664988174258
1580423491.58489,15.0453955901426,-76.6308079652094,-14.6181429770352
1580423491.58888,15.4726482032502,-77.7294575417716,-16.1440451667047
1580423491.59287,15.1064316777295,-79.5605401693751,-16.937514305333
1580423491.59687,14.4350347142747,-81.9409475852597,-17.4258030060273
1580423491.60086,13.7026016632333,-85.297932402533,-17.6699473563745
1580423491.60485,12.7870603494316,-89.2652780956739,-17.6699473563745
1580423491.60885,11.4442664225223,-92.9884794384679,-17.792019531548
1580423491.61284,8.88075074387734,-96.2844281681546,-18.0361638818952
1580423491.61683,5.58480201419093,-98.420691233692,-18.7075608453497
1580423491.62083,2.53299763485165,-99.275196459907,-19.9282825970854
1580423491.62482,0.823987182421661,-99.0920881971467,-21.5762569619287
1580423491.62881,1.19020370794237,-97.871366445411,-23.5294117647059
1580423491.6328,4.11993591210808,-96.2844281681546,-25.3604943923094
1580423491.6368,8.81971465629044,-94.7585259784848,-26.8253604943923
1580423491.64079,13.9467460135804,-93.4767681391622,-27.9240100709544
1580423491.64478,18.5244525825894,-92.0119020370794,-28.5954070344089
1580423491.64878,22.064545662623,-90.8522163729303,-28.900587472343
1580423491.65277,24.4449530785075,-89.6314946211946,-28.900587472343
1580423491.65676,25.9708552681773,-88.4718089570458,-29.0226596475165
1580423491.66076,27.2526131074997,-87.3731593804837,-28.8395513847561
1580423491.66475,28.900587472343,-86.7627985046158,-28.4122987716487
1580423491.66875,31.464103150988,-87.006942854963,-27.8629739833675
1580423491.67274,34.4548714427403,-89.1432059205003,-26.7032883192187
1580423491.67673,36.7132066834515,-92.2560463874265,-25.4215304798961
1580423491.68073,36.7132066834515,-94.6364538033113,-24.4449530785075
1580423491.68472,34.8210879682611,-95.9792477302205,-24.0787365529868
1580423491.68871,31.7692835889218,-96.4065003433282,-24.1397726405737
1580423491.69271,28.4122987716487,-96.8947890440224,-24.4449530785075
1580423491.6967,24.9332417792018,-96.8337529564355,-24.8722056916151
1580423491.70069,21.3931486991683,-95.307850766766,-25.2994583047225
1580423491.70471,18.2803082322423,-92.4391546501868,-25.3604943923094
1580423491.7087,16.0219729915311,-88.6549172198061,-24.7501335164416
1580423491.7127,16.3271534294652,-84.7486076142518,-23.4073395895323
1580423491.71669,19.9282825970854,-81.6357671473259,-21.3321126115816
1580423491.72069,25.7877470054168,-80.0488288700694,-18.4023804074159
1580423491.72468,31.464103150988,-79.6826123445487,-15.1674677653161
1580423491.72867,34.6379797055008,-80.0488288700694,-11.9325551232166
1580423491.73267,35.0652323186082,-80.2319371328297,-9.06385900663759
1580423491.73666,32.7458609903103,-80.5371175707637,-6.80552376592664
1580423491.74065,28.9616235599296,-79.7436484321354,-5.52376592660403
1580423491.74465,25.2384222171358,-76.752880140383,-5.09651331349664
1580423491.74864,22.8580148012511,-72.2362096589609,-5.27962157625689
1580423491.75263,21.8814373998625,-66.8650339513238,-5.34065766384379
1580423491.75663,20.7217517357137,-61.2497138933395,-4.24200808728165
1580423491.76062,18.5244525825894,-56.1837186236362,-1.67849240863666
1580423491.76461,15.1064316777295,-52.3384451056688,2.04470893415737
1580423491.76861,11.0170138094147,-48.8593881132219,6.74448767833974
1580423491.7726,7.59899290455473,-44.2816815442131,11.505302510109
1580423491.77659,6.56137941557949,-38.8494697489891,16.0219729915311
1580423491.78059,7.47692072938116,-33.1120775158313,19.8062104219118
1580423491.78458,9.06385900663759,-27.4357213702601,23.3463035019454
1580423491.78857,10.0404364080262,-21.8204013122759,26.6422522316318
1580423491.79256,10.0404364080262,-16.3881895170518,30.3044174868389
1580423491.79656,8.39246204318306,-10.7118333714809,35.1262684061951
1580423491.80055,4.8523689631495,-4.24200808728165,41.0467689021132
1580423491.80454,0.274662394140478,3.69268329900046,48.0048828870067
1580423491.80854,-4.05889982452118,12.4208438239109,55.3902494850076
1580423491.81253,-6.68345159075307,19.9893186846723,63.0807965209433
1580423491.81652,-8.02624551766235,25.0553139543754,70.8934157320518
1580423491.82052,-8.6366063935302,28.4122987716487,78.5229266803999
1580423491.82451,-9.4911116197452,31.464103150988,85.7251850156408
1580423491.82851,-9.36903944457163,34.3938353551537,92.3170824750136
1580423491.8325,-7.29381246662092,35.9197375448232,97.8103303578241
1580423491.83649,-5.40169375143046,34.9431601434346,102.693217364767
1580423491.84048,-6.07309071488521,32.0134279392689,107.148851758602
1580423491.84448,-12.2987716487373,29.0226596475165,111.238269626917
1580423491.84847,-23.8956282902266,25.7267109178301,114.534218356604
1580423491.85247,-38.9715419241627,20.904859998474,116.487373159381
1580423491.85646,-56.4888990615702,15.5336842908368,115.632867933165
1580423491.86045,-77.4242771038375,11.4442664225223,109.956511787595
1580423491.86447,-100.862134737163,8.45349813076973,100.251773861296
1580423491.86846,-123.994811932555,5.40169375143046,89.1432059205008
1580423491.87246,-142.000457770657,1.19020370794237,78.4618905928132
1580423491.87645,-149.019607843137,-2.83817807278547,67.2922865644314
1580423491.88045,-141.145952544442,-5.52376592660403,54.7188525215533
1580423491.88444,-121.126115815976,-6.62241550316617,41.7792019531546
1580423491.88843,-94.7585259784848,-6.37827115281902,29.6940566109711
1580423491.89243,-68.8792248416876,-5.52376592660403,19.7451743343252
1580423491.89642,-50.3852903028917,-3.81475547417404,12.9701686121919
1580423491.90041,-43.3661402304112,-1.0070954451819,9.79629205767901
1580423491.90441,-46.9672693980317,2.96025024795904,9.67421988250544
1580423491.9084,-56.6720073243305,6.98863202868688,11.810482948043
1580423491.91239,-66.8039978637369,11.4442664225223,15.228503852903
1580423491.91639,-72.4193179217211,16.3881895170518,19.2568856336309
1580423491.92038,-70.3440909437704,21.8814373998625,24.2008087281604
1580423491.92437,-61.066605630579,26.6422522316318,29.755092698558
1580423491.92837,-47.6997024490731,31.2199588006408,35.2483405813687
1580423491.93236,-32.9900053406577,35.9807736324101,40.6195162890058
1580423491.93635,-19.4399938963911,40.9246967269396,44.9530785076674
1580423491.94035,-8.08728160524902,45.6855115587089,48.3100633249405
1580423491.94434,1.0070954451819,49.4087129015029,50.2632181277177
1580423491.94833,7.90417334248878,52.2163729304948,51.4229037918667
1580423491.95232,12.5429159990845,53.5591668574043,52.5825894560157
1580423491.95632,14.4960708018616,53.4981307698176,54.1084916456853
1580423491.96031,13.2753490501259,51.7891203173876,56.6109712367434
1580423491.9643,8.75867856870377,48.9204242008086,59.5407034409091
1580423491.9683,0.823987182421661,45.0141145952543,62.1042191195543
1580423491.97229,-9.91836423285258,40.4364080262453,63.2639047837038
1580423491.97628,-22.1255817502097,35.8587014572365,62.9587243457695
1580423491.98028,-34.4548714427406,32.3796444647896,61.3107499809262
1580423491.98427,-45.3192950331884,29.4499122606239,58.6861982146943
1580423491.98826,-53.9864194705119,26.4591439688716,55.5733577477681
1580423491.99226,-60.7003891050583,23.0411230640116,52.1553368429081
1580423491.99625,-66.8039978637369,19.8062104219118,48.6762798504615
1580423492.00024,-72.6634622720683,17.5478751812009,45.1361867704279
1580423492.00424,-77.7904936293583,16.8154421301595,41.9012741283282
1580423492.00823,-80.720225833524,17.486839093614,39.2156862745096
1580423492.01222,-80.4150453955901,19.4399938963911,37.2014953841458
1580423492.01622,-75.8373388265811,22.2476539253832,35.9197375448232
1580423492.02021,-67.902647440299,25.3604943923094,35.2483405813687
1580423492.0242,-58.1979095140002,28.5954070344089,34.882124055848
1580423492.02819,-47.6997024490731,31.7082475013351,34.8210879682611
1580423492.03219,-36.9573510337989,34.7600518806744,34.9431601434346
1580423492.03618,-26.9474326695658,37.7508201724268,35.1873044937818
1580423492.04017,-17.5478751812009,40.6805523765925,35.5535210193025
1580423492.04417,-8.75867856870377,42.9999237048903,36.4080262455175
1580423492.04816,-1.12916762035547,44.5868619821467,37.6897840848401
1580423492.05216,4.73029678797593,45.7465476462958,39.3377584496832
1580423492.05615,8.5755703059433,46.6010528725108,41.5960936903944
1580423492.06014,10.650797283894,47.2724498359653,43.7933928435186
1580423492.06413,11.1390859845883,47.94384679942,45.929655909056
1580423492.06813,10.7118333714809,48.6152437628748,47.7607385366596
1580423492.07212,9.55214770733187,49.042496375982,48.5542076752877
1580423492.07612,8.20935378042259,49.2256046387424,48.5542076752877
1580423492.08011,6.5003433279926,49.1645685511558,47.2724498359653
1580423492.0841,4.73029678797593,48.6152437628748,45.1972228580146
1580423492.0881,2.7771419851988,47.6997024490729,42.4505989166094
1580423492.09209,1.0681315327688,46.5400167849239,38.9715419241625
1580423492.09608,-0.274662394140478,45.0141145952543,35.2483405813687
1580423492.10008,-0.946059357595232,43.6102845807582,31.3420309758144
1580423492.10409,-1.80056458381023,42.6337071793696,27.0084687571525
1580423492.10809,-2.7161058976119,42.2064545662622,22.7359426260775
1580423492.11208,-3.69268329900046,42.3895628290225,18.5244525825894
1580423492.11608,-4.60822461280236,42.9999237048903,14.5571068894483
1580423492.12007,-4.66926070038903,44.0375371938658,10.4676890211338
1580423492.12406,-3.63164721141379,45.3192950331882,6.74448767833974
1580423492.12806,-2.22781719691761,46.1738002594032,3.14335851071951
1580423492.13205,-1.73952849622333,46.0517280842296,0.335698481727377
1580423492.13604,-2.96025024795904,45.075150682841,-1.73952849622333
1580423492.14004,-6.43930724040592,43.0609597924772,-3.69268329900046
1580423492.14403,-11.2001220721752,40.9246967269396,-5.7068741893645
1580423492.14802,-15.8999008163576,39.2156862745096,-7.53795681696806
1580423492.15202,-19.4399938963911,37.5066758220796,-9.30800335698473
1580423492.15601,-22.3697261005568,35.1262684061951,-10.5287251087204
1580423492.16,-25.9098191805904,32.0134279392689,-11.5663385976959
1580423492.164,-30.3044174868389,29.0836957351032,-12.2377355611504
1580423492.16799,-35.1262684061953,26.0929274433508,-13.1532768749523
1580423492.17198,-39.5819028000305,22.7969787136644,-14.1298542763409
1580423492.17598,-43.8544289311055,19.0127412832837,-14.9843595025559
1580423492.17997,-47.7607385366598,14.923323414969,-15.5336842908368
1580423492.18396,-51.2397955291067,10.7118333714809,-15.8388647287709
1580423492.18795,-54.1084916456855,7.23277637903402,-15.8999008163576
1580423492.19195,-56.4278629739833,5.27962157625689,-15.8999008163576
1580423492.19594,-56.9771877622645,4.60822461280236,-15.9609369039445
1580423492.19993,-54.7188525215533,4.18097199969475,-15.5336842908368
1580423492.20393,-49.9580376897841,3.63164721141379,-14.5571068894483
1580423492.20792,-44.7089341573205,2.65506981002522,-13.3363851377126
1580423492.21191,-40.6805523765927,2.34988937209118,-12.2377355611504
1580423492.21591,-38.2391088731213,3.02128633554594,-11.4442664225223
1580423492.2199,-36.896314946212,4.60822461280236,-11.2001220721752
1580423492.22389,-34.3938353551539,6.13412680247188,-11.2611581597619
1580423492.22789,-29.3888761730373,6.92759594110021,-11.0170138094147
1580423492.23188,-22.3697261005568,7.47692072938116,-10.2235446707866
1580423492.23587,-14.9843595025559,7.90417334248878,-9.00282291905091
1580423492.23987,-8.5755703059433,7.96520943007545,-7.59899290455473
1580423492.24386,-3.14335851071951,8.51453421835663,-6.01205462729831
1580423492.24786,2.22781719691761,9.4300755321583,-4.97444113832307
1580423492.25185,8.75867856870377,10.2845807583733,-4.05889982452118
1580423492.25584,17.4258030060273,11.2611581597619,-3.32646677347975
1580423492.25984,26.1539635309375,12.2987716487373,-2.41092545967808
1580423492.26385,33.3562218661782,12.8480964370183,-1.55642023346309
1580423492.26785,39.0325780117494,14.3129625391011,-1.12916762035547
1580423492.27184,44.9530785076674,16.3881895170518,-1.55642023346309
1580423492.27584,52.0332646677348,18.2803082322423,-2.28885328450451
1580423492.27983,59.0524147402148,20.1113908598459,-2.7161058976119
1580423492.28382,63.4470130464638,21.6372930495154,-2.7771419851988
1580423492.28782,64.301518272679,22.8580148012511,-2.7161058976119
1580423492.29181,62.3483634699014,23.8345922026397,-3.08232242313261
1580423492.2958,59.1744869153886,24.9332417792018,-3.93682764934761
1580423492.2998,56.3057907988095,26.0318913557639,-5.46272983901736
1580423492.30379,53.3760585946438,27.191577019913,-6.98863202868688
1580423492.30778,50.7515068284119,28.2902265964751,-9.12489509422448
1580423492.31178,48.9204242008086,29.1447318226901,-11.8715190356297
1580423492.31577,46.9672693980315,29.3888761730373,-14.6791790646218
1580423492.31976,44.5868619821467,29.2057679102768,-17.3037308308537
1580423492.32376,41.7792019531546,29.6940566109711,-19.6231021591516
1580423492.32775,38.4222171358815,30.7316700999465,-21.6372930495154
1580423492.33174,33.7834744792858,30.6706340123596,-23.2242313267718
1580423492.33574,25.6046387426566,28.2291905088882,-24.1397726405737
1580423492.33973,12.6039520866711,23.2852674143587,-24.6890974288547
1580423492.34372,-2.65506981002522,18.646524757763,-24.6890974288547
1580423492.34771,-15.4116121156633,15.8999008163576,-24.5059891660944
1580423492.35171,-21.8204013122759,14.4350347142747,-23.773556115053
1580423492.3557,-21.8204013122759,13.2753490501259,-23.4073395895323
1580423492.35969,-18.5854886701761,12.1156633859769,-23.2242313267718
1580423492.36369,-16.8764782177461,11.6273746852826,-22.9800869764247
1580423492.36768,-19.3789578088044,11.7494468604561,-22.8580148012511
1580423492.37167,-25.5436026550697,11.6884107728695,-22.3697261005568
1580423492.37567,-33.0510414282446,10.7728694590676,-21.6372930495154
1580423492.37966,-39.8260471503777,8.39246204318306,-21.4541847867551
1580423492.38365,-44.4037537193867,4.66926070038903,-22.064545662623
1580423492.38765,-47.3945220111391,-0.0305180437933359,-23.2852674143587
1580423492.39164,-49.7749294270238,-4.91340505073617,-24.5670252536811
1580423492.39563,-52.2163729304953,-10.0404364080262,-26.0318913557639
1580423492.39963,-54.5967803463798,-15.1674677653161,-27.8629739833675
1580423492.40362,-56.4278629739833,-21.0269321736475,-30.3044174868389
1580423492.40761,-57.5875486381324,-28.6564431219958,-33.0510414282446
1580423492.41161,-57.5875486381324,-37.750820172427,-36.2859540703441
1580423492.4156,-56.2447547112231,-47.3945220111391,-39.8870832379646
1580423492.4196,-54.3526359960326,-58.0148012512398,-43.9765011062791
1580423492.42358,-50.5683985656519,-69.3675135423819,-47.5165941863127
1580423492.42758,-44.3427176317998,-80.4150453955901,-50.3242542153048
1580423492.43157,-35.9197375448234,-92.7443350881208,-50.9346150911726
1580423492.43556,-27.0695048447394,-106.294346532387,-48.310063324941
1580423492.43956,-19.9893186846723,-119.050888838025,-42.5116350041963
1580423492.44355,-14.5571068894483,-130.15945677882,-34.5769436179141
1580423492.44754,-9.73525597009234,-141.817349507897,-27.0695048447394
1580423492.45154,-4.73029678797593,-156.771190966659,-21.759365224689
1580423492.45553,1.55642023346309,-176.913099870298,-20.1724269474325
1580423492.45952,10.4066529335469,-202.548256656748,-22.064545662623
1580423492.46352,21.210040436408,-228.427557793545,-26.0929274433508
1580423492.46751,32.6237888151368,-247.165636682689,-32.074464026856
1580423492.47151,45.1972228580146,-257.053482871748,-40.3753719386589
1580423492.4755,59.1134508278019,-260.715648126955,-51.1177233539331
1580423492.47949,73.5790035858704,-264.560921644922,-62.9587243457695
1580423492.48349,87.8004119935913,-271.64110780499,-73.2127870603495
1580423492.48748,101.594567788205,-276.462958724346,-80.720225833524
1580423492.49147,117.036697947662,-274.082551308461,-84.1382467383839
1580423492.49547,138.155184252689,-266.88029297322,-83.8330663004501
1580423492.49946,164.827954528115,-257.053482871748,-81.6968032349125
1580423492.50348,193.881132219425,-248.996719310292,-79.6826123445487
1580423492.50747,222.812237735561,-244.724193179217,-77.9736018921187
1580423492.51147,248.020141908903,-240.87891966125,-75.1659418631266
1580423492.51546,267.185473411154,-237.033646143282,-69.916838330663
1580423492.51945,279.270618753338,-232.51697566186,-61.6769665064469
1580423492.52345,281.406881818875,-223.910887312123,-50.4463263904784
1580423492.52744,271.335927367056,-211.337453269245,-36.2859540703441
1580423492.53143,248.935683222705,-198.092622262913,-20.5386434729533
1580423492.53543,216.342412451362,-187.228198672465,-4.30304417486832
1580423492.53942,178.805218585489,-179.903868162051,9.79629205767901
1580423492.54341,143.6484321355,-175.814450293736,20.2334630350194
1580423492.54741,114.778362706951,-173.922331578546,28.1071183337147
1580423492.5514,90.3028915846494,-171.419851987488,34.5769436179139
1580423492.55539,67.1091783016709,-168.245975432975,40.0701915007246
1580423492.55939,46.4179446097503,-164.644846265355,44.7699702449072
1580423492.56338,32.3796444647896,-160.7385366598,48.9204242008086
1580423492.56737,28.2291905088882,-158.297093156329,51.8501564049743
1580423492.57137,35.7976653696496,-158.236057068742,52.7656977187762
1580423492.57536,50.7515068284119,-157.930876630808,51.9722285801477
1580423492.57936,65.8274204623485,-155.184252689402,49.9580376897839
1580423492.58334,79.0112153810942,-149.813076981765,46.2348363469901
1580423492.58734,90.9742885481041,-142.793926909285,41.9623102159151
1580423492.59133,99.3972686350808,-133.028152895399,37.8728923476003
1580423492.59532,102.754253452354,-121.980621042191,34.1496910048065
1580423492.59932,99.3972686350808,-112.825207904173,30.7316700999465
1580423492.60331,86.8848706797894,-106.05020218204,27.9240100709544
1580423492.6073,65.0949874113071,-101.167315175097,25.4215304798961
1580423492.6113,34.6379797055008,-96.711680781262,23.9566643778132
1580423492.61529,-2.89921416037237,-92.133974212253,23.3463035019454
1580423492.61928,-45.6244754711224,-88.6549172198061,24.1397726405737
1580423492.62328,-92.5001907377737,-85.4810406652932,25.3604943923094
1580423492.62727,-139.070725566491,-80.9643701838711,25.5436026550697
1580423492.63126,-176.729991607538,-75.2880140383002,23.2852674143587
1580423492.63526,-198.458838788434,-68.8181887541009,19.0737773708704
1580423492.63925,-202.731364919509,-60.9445334554055,13.7026016632333
1580423492.64325,-193.698023956664,-49.7749294270238,8.88075074387734
1580423492.64724,-175.448233768215,-35.9807736324103,5.6458381017776
1580423492.65123,-150.606546120394,-22.4917982757304,4.60822461280236
1580423492.65523,-121.187151903563,-9.73525597009234,5.40169375143046
1580423492.65922,-90.2418554970625,2.34988937209118,7.53795681696806
1580423492.66324,-60.7614251926452,14.373998626688,11.6884107728695
1580423492.66723,-32.3796444647899,28.5954070344089,18.646524757763
1580423492.67122,-1.25123979552905,44.8310063324939,29.0226596475165
1580423492.67522,36.5911345082779,61.7380025940333,42.5726710917829
1580423492.67921,81.9409475852599,79.1943236438547,58.5641260395205
1580423492.68321,131.013962005035,96.5285725185017,76.1425192645152
1580423492.6872,177.889677271687,114.473182269016,93.8429846646832
1580423492.69119,216.708628976883,133.272297245746,110.322728313115
1580423492.69519,244.052796215763,149.263752193484,125.215533684291
1580423492.69918,257.236591134508,162.203402761883,139.131761654078
1580423492.70317,255.466544594492,172.945754177157,152.925917448692
1580423492.70717,242.58793011368,182.101167315175,166.475928892958
1580423492.71116,224.826428625925,191.683833066301,180.025940337224
1580423492.71515,207.675288014038,204.074158846418,193.148699168384
1580423492.71915,195.101853971161,217.807278553445,205.966277561608
1580423492.72314,188.326848249028,228.183413443198,216.098268101015
1580423492.72713,186.617837796597,232.028686961166,220.126649881743
1580423492.73113,186.495765621423,226.962691691463,214.694438086519
1580423492.73512,182.528419928282,211.459525444419,200.228885328451
1580423492.73911,168.184939345388,186.617837796597,179.171435111009
1580423492.7431,138.277256427863,159.395742732891,154.207675288014
1580423492.7471,95.3688868543527,135.164415960937,128.328374151217
1580423492.75109,46.7231250476843,117.036697947662,104.463263904784
1580423492.75508,-6.19516289005878,105.622949568933,83.4668497749294
1580423492.75908,-62.5925078202488,97.4441138323036,64.7898069733733
1580423492.76307,-119.783321889067,90.9742885481041,46.7231250476843
1580423492.76706,-173.739223315785,90.8522163729308,28.2291905088882
1580423492.77106,-219.394216830701,101.350423437858,9.91836423285258
1580423492.77505,-252.353704127565,120.393682764935,-6.86655985351331
1580423492.77904,-272.617685206378,137.666895551995,-21.8204013122759
1580423492.78304,-280.857557030594,141.145952544442,-34.3938353551539
1580423492.78703,-277.439536125734,131.563286793316,-44.037537193866
1580423492.79102,-261.203936827649,115.205615320058,-49.7138933394369
1580423492.79502,-225.31471732662,97.1999694819565,-45.0141145952546
1580423492.79901,-172.945754177157,69.2454413672085,-17.6089112687876
1580423492.803,-176.668955519951,9.24696726939806,31.8303196765087
1580423492.807,-280.796520943007,-54.7188525215533,42.9999237048903
1580423492.81099,-336.94972152285,-137.361715114061,-31.8913557640956
1580423492.81499,-208.163576714732,-188.570992599374,-91.8898298619058
1580423492.81898,-110.383764400702,-207.431143663691,-62.8976882581826
1580423492.82297,-130.342565041581,-202.487220569162,-21.3321126115816
1580423492.82696,-148.714427405203,-207.186999313344,-10.8949416342411
1580423492.83095,-149.019607843137,-185.763332570382,-28.2902265964751
1580423492.83495,-165.316243228809,-150.606546120394,-50.9346150911726
1580423492.83894,-165.621423666743,-117.891203173877,-66.1326009002823
1580423492.84293,-134.065766384375,-63.8132295719845,-75.2269779507133
1580423492.84693,-62.2873273823147,1.67849240863666,-78.3398184176394
1580423492.85092,52.9488059815362,40.6805523765925,-70.7103074692911
1580423492.85491,183.382925154498,30.2433813992523,-48.9204242008088
1580423492.85891,283.299000534066,-13.4584573128861,-16.937514305333
1580423492.8629,310.948348210879,-44.586861982147,18.8296330205233
1580423492.8669,263.584344243534,-27.2526131074997,49.5918211642634
1580423492.87089,188.387884336614,25.9098191805904,60.0900282291905
1580423492.87488,137.300679026474,75.2269779507137,45.8075837338824
1580423492.87888,135.713740749218,112.642099641413,17.0595864805066
1580423492.88287,186.73990997177,144.686045624475,-20.4165712977797
1580423492.88686,271.885252155337,163.057907988098,-65.1560234988938
1580423492.89086,304.29541466392,139.681086442359,-96.1013199053941
1580423492.89485,202.670328831922,105.500877393759,-76.5697718776225
1580423492.89884,43.7323567559317,104.829480430305,-46.5400167849241
1580423492.90289,-61.1886778057526,94.9416342412451,-51.2397955291067
1580423492.90689,-95.002670328832,86.5796902418556,-61.066605630579
1580423492.91088,-108.247501335165,85.8472571908142,-56.000610360876
1580423492.91487,-120.027466239414,78.8891432059208,-53.3150225070574
1580423492.91887,-138.460364690623,68.7571526665142,-56.7330434119174
1580423492.92286,-163.851377126726,57.4044403753719,-57.8927290760662
1580423492.92685,-189.059281300069,52.9488059815362,-51.5449759670405
1580423492.93085,-208.102540627146,57.2823682001981,-40.0091554131382
1580423492.93484,-214.267185473411,66.9871061264976,-27.8019378957808
1580423492.93883,-201.815823605707,79.133287556268,-17.6089112687876
1580423492.94283,-173.006790264744,93.2326237888151,-9.4911116197452
1580423492.94682,-135.591668574044,107.820248722057,-2.04470893415737
1580423492.95081,-96.2844281681546,122.163729304952,6.37827115281902
1580423492.95481,-57.2823682001983,137.605859464408,15.4726482032502
1580423492.9588,-17.1206225680933,153.841458762493,25.7877470054168
1580423492.9628,24.0787365529868,170.565346761272,38.239108873121
1580423492.96679,62.1042191195543,188.632028686961,52.6436255436024
1580423492.97078,90.9742885481041,206.271457999542,67.170214389258
1580423492.97478,108.003356984817,221.713588158999,80.9643701838713
1580423492.97877,115.693904020752,235.568780041199,93.2936598764022
1580423492.98276,118.623636224918,246.738384069581,103.791866941329
1580423492.98675,119.111924925612,253.147173266193,111.970702677958
1580423492.99074,115.083543144885,254.55100328069,117.586022735943
1580423492.99474,103.852903028916,251.987487602045,120.454718852522
1580423492.99873,85.2979324025332,246.494239719234,121.065079728389
1580423493.00272,62.6535439078357,240.451667048142,120.027466239414
1580423493.00672,40.802624551766,234.287022201877,118.196383611811
1580423493.01071,22.7359426260775,227.939269092851,115.022507057298
1580423493.0147,6.43930724040592,223.117418173495,110.017547875181
1580423493.0187,-10.3456168459602,221.225299458305,103.059433890288
1580423493.02269,-27.2526131074997,221.713588158999,94.2702372777908
1580423493.02669,-42.2674906538491,223.544670786603,83.894102388037
1580423493.03068,-53.1929503318838,225.375753414206,71.7479209582666
1580423493.03467,-57.0992599374381,224.826428625925,58.197909514
1580423493.03867,-53.6202029449912,220.309758144503,44.8920424200808
1580423493.04266,-46.4789806973374,211.82574196994,32.6237888151368
1580423493.04665,-42.0843823910889,201.75478751812,22.3697261005568
1580423493.05065,-44.8310063324941,191.805905241474,13.214312962539
1580423493.05464,-54.291599908446,182.650492103456,4.66926070038903
1580423493.05863,-66.6819256885633,173.006790264744,-3.32646677347975
1580423493.06265,-78.5229266803997,163.118944075685,-10.7118333714809
1580423493.06665,-87.2510872053101,152.803845273518,-17.486839093614
1580423493.07064,-91.4625772487982,141.634241245136,-23.468375677119
1580423493.07463,-92.5001907377737,130.342565041581,-28.4122987716487
1580423493.07863,-92.1950102998396,119.72228580148,-32.074464026856
1580423493.08262,-91.9508659494925,110.566872663462,-34.3938353551539
1580423493.08661,-91.7067215991453,103.669794766156,-35.7976653696498
1580423493.09061,-90.8522163729303,98.2375829709317,-36.1028458075839
1580423493.0946,-88.3497367818723,94.0871290150303,-35.7976653696498
1580423493.09859,-83.4058136873425,90.4859998474099,-35.492484931716
1580423493.10259,-75.1659418631266,87.0679789425499,-35.6145571068896
1580423493.10658,-63.2639047837033,82.4902723735408,-36.1638818951706
1580423493.11057,-49.0424963759824,76.2035553521023,-36.9573510337989
1580423493.11457,-34.8821240558482,67.8416113527123,-38.1780727855346
1580423493.11856,-22.6749065384909,57.0992599374376,-38.4222171358817
1580423493.12256,-13.3974212252995,45.075150682841,-36.896314946212
1580423493.12655,-6.5003433279926,30.5485618371861,-34.9431601434349
1580423493.13054,-2.53299763485165,14.1298542763409,-30.2433813992523
1580423493.13453,-2.53299763485165,-4.11993591210808,-25.8487830930037
1580423493.13853,-6.56137941557949,-21.0879682612344,-19.3789578088044
1580423493.14252,-13.1532768749523,-32.074464026856,-14.7402151522087
1580423493.14651,-19.3789578088044,-39.6429388876174,-9.91836423285258
1580423493.1505,-23.6514839398794,-49.7138933394369,-7.29381246662092
1580423493.1545,-25.2994583047225,-71.2596322575723,-4.36408026245522
1580423493.15849,-23.773556115053,-101.411459525445,-2.7771419851988
1580423493.16248,-18.0971999694818,-130.220492866407,-2.28885328450451
1580423493.16648,-5.09651331349664,-146.395056076905,-3.69268329900046
1580423493.17047,14.6791790646218,-150.545510032807,-7.7821011673152
1580423493.17446,37.0794232089722,-148.409246967269,-15.0453955901426
1580423493.17846,58.6861982146943,-145.296406500343,-25.9708552681773
1580423493.18245,78.0956740672923,-144.563973449302,-39.5819028000305
1580423493.18644,95.4909590295265,-143.709468223087,-53.1929503318838
1580423493.19044,114.656290531777,-142.793926909285,-64.7287708857862
1580423493.19443,136.140993362325,-140.657663843748,-74.6166170748454
1580423493.19843,156.710154879072,-139.009689478904,-83.7720302128632
1580423493.20242,171.114671549553,-138.52140077821,-92.1950102998396
1580423493.20641,175.814450293736,-138.582436865797,-99.1531242847334
1580423493.21041,170.687418936446,-138.52140077821,-103.486686503395
1580423493.2144,158.724345769436,-138.948653391318,-100.190737773709
1580423493.21839,145.296406500343,-140.169375143053,-92.8664072632944
1580423493.22238,134.187838559548,-142.427710383764,-89.8146028839551
1580423493.22637,126.37521934844,-147.371633478294,-94.6364538033113
1580423493.23037,124.483100633249,-160.006103608759,-103.242542153048
1580423493.23436,122.590981918059,-172.70160982681,-100.434882124056
1580423493.23835,111.421377889677,-182.162203402762,-87.861448081178
1580423493.24235,85.9082932784008,-188.815136949722,-69.7947661554895
1580423493.24634,50.202182040131,-196.139467460136,-50.5683985656519
1580423493.25034,9.85732814526591,-206.210421911955,-30.5485618371861
1580423493.25433,-31.5861753261618,-212.985427634089,-13.1532768749523
1580423493.25832,-68.8792248416876,-214.267185473411,-2.41092545967808
1580423493.26232,-99.580376897841,-211.398489356832,0.823987182421661
1580423493.26631,-126.5583276112,-203.524834058137,-4.60822461280236
1580423493.2703,-144.258793011368,-193.636987869078,-16.1440451667047
1580423493.2743,-145.113298237583,-187.594415197986,-26.4591439688716
1580423493.27829,-132.722972457465,-188.143739986267,-29.0226596475165
1580423493.28228,-120.820935378042,-197.360189211872,-23.468375677119
1580423493.28628,-118.867780575265,-212.741283283741,-12.8480964370183
1580423493.29027,-127.962157625696,-228.122377355612,-2.47196154726475
1580423493.29426,-146.8833447776,-237.766079194324,2.65506981002522
1580423493.29826,-169.832913710231,-240.939955748837,0.51880674448762
1580423493.30228,-189.181353475242,-240.390630960555,-6.01205462729831
1580423493.30627,-197.665369649805,-238.803692683299,-10.7728694590676
1580423493.31026,-191.561760891127,-236.789501792935,-16.937514305333
1580423493.31426,-171.358815899901,-234.04287785153,-24.3839169909209
1580423493.31825,-139.375906004425,-229.709315632868,-33.1731136034182
1580423493.32224,-98.0544747081713,-222.690165560388,-40.619516289006
1580423493.32624,-51.4229037918669,-212.680247196155,-47.1503776607919
1580423493.33023,-4.11993591210808,-201.75478751812,-52.3384451056688
1580423493.33422,39.093614099336,-190.157930876631,-56.1226825360495
1580423493.33822,76.4476997024494,-179.232471198596,-59.4796673533226
1580423493.34221,107.698176546884,-170.260166323339,-62.5314717326619
1580423493.3462,133.150225070573,-164.278629739834,-63.2028686961166
1580423493.3502,153.109025711452,-160.7385366598,-63.2028686961166
1580423493.35419,166.414892805371,-157.076371404593,-62.8366521705959
1580423493.35818,171.663996337835,-151.400015259022,-61.3107499809262
1580423493.36218,169.893949797818,-145.54055085069,-59.1744869153888
1580423493.36617,162.630655374991,-139.559014267185,-56.9771877622645
1580423493.37017,151.705195696956,-133.272297245747,-56.2447547112231
1580423493.37416,138.277256427863,-126.985580224308,-56.7330434119174
1580423493.37815,122.713054093233,-120.393682764935,-58.7472343022812
1580423493.38214,105.073624780652,-113.313496604868,-62.1042191195545
1580423493.38613,86.4576180666822,-105.439841306172,-65.9494926375219
1580423493.39013,68.2078278782333,-95.6740672922867,-69.8558022430761
1580423493.39412,51.7891203173876,-84.2603189135575,-72.9076066224154
1580423493.39811,37.384603646906,-71.2596322575723,-74.7997253376059
1580423493.40211,24.3839169909209,-57.648584725719,-75.3490501258868
1580423493.4061,11.6273746852826,-44.5258258945603,-74.2504005493247
1580423493.41009,-1.19020370794237,-31.4030670634013,-71.4427405203326
1580423493.41409,-12.8480964370183,-17.7309834439611,-67.048142214084
1580423493.41808,-22.0035095750361,-3.57061112382689,-61.1276417181659
1580423493.42208,-27.8019378957808,10.955977721828,-54.1084916456855
1580423493.42607,-30.1823453116654,26.0929274433508,-46.2958724345769
1580423493.43006,-29.9992370489051,41.7181658655679,-37.6287479972534
1580423493.43406,-28.7785152971694,58.0148012512395,-28.1071183337147
1580423493.43805,-27.8629739833675,74.555580987259,-17.8530556191347
1580423493.44204,-28.1071183337147,91.5846494239722,-7.04966811627378
1580423493.44604,-30.3654535744258,109.102006561379,3.63164721141379
1580423493.45003,-34.2717631799803,127.168688487068,13.9467460135804
1580423493.45402,-39.3377584496834,145.418478675517,24.1397726405737
1580423493.45802,-43.5492484931717,164.095521477073,34.027618829633
1580423493.46204,-44.3427176317998,183.382925154498,43.9154650186922
1580423493.46603,-40.314335851072,203.158617532617,53.8033112077514
1580423493.47002,-29.8771648737315,222.201876859694,63.3859769588771
1580423493.47402,-13.7026016632333,238.986800946059,72.1751735713742
1580423493.47801,6.43930724040592,252.048523689632,80.0488288700694
1580423493.482,27.7409018081939,260.959792477302,87.0069428549632
1580423493.486,47.94384679942,265.781643396658,93.4157320515756
1580423493.48999,64.9729152361338,265.171282520791,99.6414129854279
1580423493.49398,77.424277103838,258.823529411765,103.669794766156
1580423493.49798,84.1382467383842,250.949874113069,105.86709391928
1580423493.50197,84.0161745632108,235.263599603265,106.233310444801
1580423493.50596,76.2035553521023,212.314030670634,104.829480430305
1580423493.50996,61.4328221560995,186.190585183489,102.265964751659
1580423493.51395,41.8402380407415,159.761959258411,99.2141603723203
1580423493.51794,20.2334630350194,134.798199435416,95.3688868543527
1580423493.52194,1.0070954451819,113.252460517281,89.5094224460213
1580423493.52593,-10.955977721828,97.9934386205846,81.2695506218051
1580423493.52992,-11.2001220721752,88.1055924315251,71.5037766079195
1580423493.53392,3.57061112382689,79.0112153810942,61.0055695429919
1580423493.53791,31.1589227130539,65.8884565499352,50.9956511787591
1580423493.5419,63.3859769588771,45.8075837338824,42.8778515297167
1580423493.54589,89.7535667963684,18.4023804074159,38.0560006103608
1580423493.54989,102.571145189594,-11.5663385976959,36.8963149462118
1580423493.55388,100.312809948882,-39.3987945372703,40.0091554131379
1580423493.55787,86.8238345922027,-61.0055695429924,47.2114137483786
1580423493.56187,70.7103074692914,-70.8323796444647,58.3199816891733
1580423493.56586,60.3341725795376,-63.6911573968109,71.4427405203328
1580423493.56985,58.747234302281,-42.4505989166096,85.0537880521861
1580423493.57385,59.4186312657357,-15.9609369039445,95.1857785915922
1580423493.57784,49.1035324635691,10.3456168459602,99.5803768978408
1580423493.58184,17.3647669184404,30.0602731364918,96.7116807812622
1580423493.58583,-36.2859540703441,43.3051041428243,87.7393759060046
1580423493.58982,-99.580376897841,52.3384451056686,74.3724727244985
1580423493.59382,-154.818036163882,55.2681773098343,59.7238117036695
1580423493.59781,-188.693064774548,55.0850690470738,44.6478980697336
1580423493.6018,-202.914473182269,50.8735790035857,31.0978866254673
1580423493.6058,-211.337453269245,45.1972228580146,18.2803082322423
1580423493.60979,-221.408407721065,45.1972228580146,4.11993591210808
1580423493.61378,-225.375753414206,43.6713206683451,-13.1532768749523
1580423493.61778,-209.628442816815,29.1447318226901,-33.9665827420463
1580423493.62179,-167.879758907454,0.823987182421661,-58.1368734264133
1580423493.62579,-96.711680781262,-37.2625314717327,-88.0445563439382
1580423493.62978,7.7821011673152,-85.6641489280537,-122.346837567712
1580423493.63378,154.085603112841,-123.750667582208,-138.826581216144
1580423493.63777,306.18753337911,-119.111924925612,-102.876325627527
1580423493.64176,281.345845731289,-104.219119554437,-45.5024032959489
1580423493.64576,82.551308461128,-173.922331578546,-2.96025024795904
1580423493.64975,-52.6436255436026,-213.778896772717,5.7068741893645
1580423493.65374,-102.143892576486,-195.651178759442,4.54718852521546
1580423493.65774,-166.414892805371,-150.911726558327,7.7821011673152
1580423493.66173,-251.743343251698,-98.725871671626,11.6884107728695
1580423493.66572,-309.23933775845,-61.6769665064469,6.62241550316617
1580423493.66972,-304.844739452201,-32.4406805523768,-14.068818188754
1580423493.67371,-223.544670786603,-0.0305180437933359,-40.8026245517663
1580423493.6777,-71.9920653086137,29.6940566109711,-59.4796673533226
1580423493.6817,111.726558327611,44.1596093690393,-60.7614251926452
1580423493.68569,256.992446784161,32.9900053406575,-42.5726710917831
1580423493.68968,304.234378576333,4.11993591210808,-8.75867856870377
1580423493.69368,252.475776302739,-25.1163500419623,30.8537422751201
1580423493.69767,140.474555580987,-43.9154650186924,64.7898069733733
1580423493.70166,16.7544060425726,-40.0091554131382,82.3071641107808
1580423493.70565,-71.5648126955061,-6.86655985351331,74.4945448996723
1580423493.70965,-92.0119020370794,37.7508201724268,42.0233463035017
1580423493.71364,-41.7792019531548,73.1517509727628,1.61745632104976
1580423493.71763,55.0240329594872,102.937361715114,-29.3888761730373
1580423493.72163,158.358129243915,123.384451056687,-45.8075837338827
1580423493.72562,201.510643167773,106.843671320668,-45.9296559090562
1580423493.72961,155.42839703975,62.5314717326623,-28.5343709468223
1580423493.73361,79.133287556268,36.8963149462118,-9.97940032043948
1580423493.7376,17.486839093614,45.6855115587089,-8.69764248111687
1580423493.7416,-29.1447318226901,62.1042191195543,-18.341344319829
1580423493.74559,-62.6535439078355,65.1560234988938,-24.2008087281604
1580423493.74958,-81.6968032349125,57.3434042877848,-23.1631952391851
1580423493.75357,-88.8380254825665,48.4321355001143,-20.4165712977797
1580423493.75757,-93.1715877012282,44.5868619821467,-20.2944991226061
1580423493.76156,-95.2468146791791,47.089341573205,-22.1866178377966
1580423493.76556,-92.133974212253,53.1319142442967,-23.3463035019454
1580423493.76955,-84.6875715266651,59.6627756160829,-21.2710765239947
1580423493.77354,-75.4100862134737,66.9260700389109,-15.5947203784237
1580423493.77754,-63.6911573968109,75.1659418631266,-7.96520943007545
1580423493.78152,-45.9296559090562,85.3589684901199,-0.579842832074519
1580423493.78552,-21.1490043488211,98.4817273212789,5.95101853971164
1580423493.78951,9.00282291905091,113.374532692455,11.8715190356297
1580423493.7935,41.1688410772867,128.938735027085,17.6089112687876
1580423493.7975,71.6258487830933,143.831540398261,22.8580148012511
1580423493.80149,96.5896086060884,157.13740749218,27.2526131074997
1580423493.80549,114.656290531777,168.062867170214,30.7927061875332
1580423493.80948,126.070038910506,176.729991607538,33.9665827420461
1580423493.81347,131.990539406424,183.627069504845,37.2625314717325
1580423493.81747,133.638513771267,189.059281300069,40.4974441138322
1580423493.82146,131.441214618143,193.514915693904,44.220645456626
1580423493.82545,125.642786297398,197.360189211872,48.3710994125277
1580423493.82945,116.609445334554,201.388570992599,53.1929503318834
1580423493.83344,104.829480430305,205.783169298848,58.3199816891733
1580423493.83743,90.3028915846494,210.727092393378,63.0807965209433
1580423493.84143,73.7010757610437,216.159304188602,66.8650339513238
1580423493.84542,56.1226825360491,221.774624246586,69.1233691920352
1580423493.84941,38.4832532234682,226.718547341115,69.9778744182499
1580423493.85341,21.6372930495154,230.62485694667,69.7337300679028
1580423493.8574,6.13412680247188,233.066300450141,67.9636835278861
1580423493.86142,-9.12489509422448,234.775310902571,63.9353017471581
1580423493.86541,-24.5670252536811,234.714274814984,58.197909514
1580423493.86941,-40.9246967269398,232.639047837034,52.2774090180819
1580423493.8734,-57.9537651636531,229.648279545281,46.6010528725108
1580423493.87739,-73.8231479362173,225.558861676966,40.802624551766
1580423493.88139,-87.3731593804837,222.018768596933,37.3235675593194
1580423493.88538,-98.4817273212789,216.95277332723,34.5769436179139
1580423493.88937,-108.064393072404,209.689478904402,31.5251392385746
1580423493.89337,-116.12115663386,202.243076218815,22.3086900129701
1580423493.89736,-120.943007553216,195.040817883574,-6.74448767833974
1580423493.90135,-133.21126115816,188.265812161441,20.2944991226061
1580423493.90535,-154.268711375601,186.923018234531,51.8501564049743
1580423493.90934,-164.339665827421,175.692378118562,68.4519722285804
1580423493.91333,-156.343938353552,168.429083695735,79.6215762569623
1580423493.91733,-138.948653391318,163.729304951552,87.7393759060046
1580423493.92132,-120.637827115282,155.855649652857,92.9884794384679
1580423493.92531,-104.951552605478,145.967803463798,95.4299229419394
1580423493.92931,-89.6314946211946,136.446173800259,94.3312733653775
1580423493.9333,-71.6868848706797,126.5583276112,89.2652780956741
1580423493.9373,-49.9580376897841,115.327687495232,79.8657206073094
1580423493.94128,-24.6890974288547,102.937361715114,66.2546730754561
1580423493.94528,3.50957503624022,90.2418554970627,49.3476768139162
1580423493.94927,31.7082475013351,78.4008545052266,29.9992370489051
1580423493.95326,56.6720073243305,66.6819256885638,9.4911116197452
1580423493.95726,76.3256275272756,53.07087815671,-11.2001220721752
1580423493.96125,90.5470359349965,36.7742427710382,-30.9758144502937
1580423493.96525,99.8245212481879,18.8296330205233,-48.6152437628748
1580423493.96924,104.34119172961,-0.823987182421661,-63.9353017471581
1580423493.97323,104.585336079957,-21.1490043488211,-75.9594110017547
1580423493.97722,102.388036926833,-39.5208667124439,-83.7109941252766
1580423493.98122,101.777676050965,-58.1368734264133,-87.7393759060044
1580423493.98521,105.500877393759,-75.1659418631266,-88.0445563439382
1580423493.98921,112.092774853132,-88.4107728694589,-85.6031128404668
1580423493.9932,118.074311436637,-97.6882581826505,-81.1474784466316
1580423493.99719,119.172961013199,-103.486686503395,-76.0204470893416
1580423494.00119,113.679713130388,-107.820248722057,-70.2830548561838
1580423494.00518,101.594567788205,-111.665522240025,-64.484626535439
1580423494.00917,84.8706797894256,-115.877012283513,-58.7472343022812
1580423494.01317,66.9260700389109,-122.774090180819,-52.8877698939498
1580423494.01716,50.5073624780648,-131.990539406424,-47.455558098726
1580423494.02118,37.1404592965589,-142.000457770657,-42.4505989166096
1580423494.02517,27.0695048447394,-150.118257419699,-38.056000610361
1580423494.02917,19.2568856336309,-153.597314412146,-34.3938353551539
1580423494.03316,12.2987716487373,-154.268711375601,-31.7082475013353
1580423494.03715,3.93682764934761,-154.634927901122,-29.6940566109711
1580423494.04115,-7.96520943007545,-155.001144426642,-28.046082246128
1580423494.04514,-21.5762569619287,-156.221866178378,-27.0084687571525
1580423494.04913,-32.6848249027239,-158.052948805982,-27.2526131074997
1580423494.05313,-36.8352788586253,-160.37232013428,-28.4122987716487
1580423494.05712,-32.5017166399634,-162.44754711223,-30.4875257495994
1580423494.06111,-20.6607156481268,-164.278629739834,-33.5393301289389
1580423494.06511,-3.87579156176093,-165.011062790875,-37.4456397344932
1580423494.0691,13.8246738384069,-164.15655756466,-41.5350576028077
1580423494.07309,29.0836957351032,-162.203402761883,-45.6855115587091
1580423494.07709,40.7415884641794,-159.578850995651,-49.7749294270238
1580423494.08108,49.8359655146105,-156.771190966659,-54.4747081712062
1580423494.08507,57.2213321126114,-154.940108339055,-59.2965590905624
1580423494.08907,62.7756160830095,-155.916685740444,-64.5456626230259
1580423494.09306,64.6066987106128,-161.104753185321,-69.3675135423819
1580423494.09706,58.9303425650414,-170.260166323339,-73.029678797589
1580423494.10104,42.5726710917829,-180.636301213092,-75.6542305638209
1580423494.10504,16.0219729915311,-189.364461738003,-76.752880140383
1580423494.10903,-16.083009079118,-193.331807431144,-75.593194476234
1580423494.11302,-46.1738002594034,-193.331807431144,-72.4193179217211
1580423494.11702,-70.3440909437704,-192.660410467689,-66.9871061264973
1580423494.12101,-88.0445563439382,-194.003204394598,-59.1134508278019
1580423494.125,-99.7024490730146,-199.008163576715,-49.7138933394369
1580423494.129,-105.622949568933,-207.675288014038,-40.4364080262455
1580423494.13299,-106.172274357214,-217.196917677577,-32.623788815137
1580423494.13698,-102.204928664073,-224.032959487297,-26.5201800564582
1580423494.14098,-96.5896086060884,-226.413366903182,-22.1866178377966
1580423494.14497,-91.279468986038,-225.009536888685,-20.2944991226061
1580423494.14896,-87.1290150301365,-221.042191195545,-20.7217517357137
1580423494.15296,-82.6733806363011,-216.037232013428,-22.7359426260775
1580423494.15695,-76.0204470893416,-210.727092393377,-25.6656748302432
1580423494.16095,-65.5832761120012,-205.722133211261,-28.8395513847561
1580423494.16494,-51.8501564049745,-200.717174029145,-32.0134279392691
1580423494.16893,-36.4080262455177,-195.651178759442,-34.9431601434349
1580423494.17293,-21.1490043488211,-190.280003051804,-37.3235675593196
1580423494.17692,-6.74448767833974,-185.702296482795,-36.5911345082782
1580423494.18091,7.11070420386045,-182.162203402762,-34.2107270923934
1580423494.1849,19.5620660715647,-178.316929884794,-30.5485618371861
1580423494.18889,30.7316700999465,-173.617151140612,-26.1539635309375
1580423494.19289,40.1312275883115,-167.879758907454,-22.2476539253832
1580423494.19688,46.9062333104446,-161.898222323949,-19.9282825970854
1580423494.20088,49.042496375982,-156.95429922942,-19.6841382467383
1580423494.20487,45.8686198214693,-155.123216601816,-20.355535210193
1580423494.20886,38.8494697489889,-157.930876630808,-24.2008087281604
1580423494.21286,27.9240100709544,-161.348897535668,-29.8771648737315
1580423494.21685,14.373998626688,-162.935835812925,-35.4314488441291
1580423494.22084,0.091554131380235,-164.827954528115,-40.5584802014191
1580423494.22484,-13.0922407873654,-166.598001068132,-45.1361867704281
1580423494.22883,-25.0553139543754,-166.170748455024,-48.9814602883955
1580423494.23282,-35.9197375448234,-162.508583199817,-51.7891203173876
1580423494.23682,-46.6620889600977,-155.672541390097,-53.7422751201648
1580423494.24081,-57.1602960250248,-146.761272602426,-54.4747081712062
1580423494.2448,-66.8650339513238,-136.140993362325,-53.7422751201648
1580423494.2488,-74.738689250019,-124.544136720836,-51.728084229801
1580423494.25279,-79.4995040817882,-111.848630502785,-48.3710994125277
1580423494.25678,-81.025406271458,-99.0920881971467,-43.4271763179981
1580423494.2608,-79.9267566948959,-86.3965819790951,-37.201495384146
1580423494.2648,-77.4853131914244,-73.6400396734568,-30.1823453116654
1580423494.26879,-74.2504005493247,-61.3107499809262,-23.2242313267718
1580423494.27278,-70.7103074692911,-48.7373159380484,-16.6933699549859
1580423494.27678,-67.1702143892576,-35.492484931716,-10.4676890211338
1580423494.28077,-63.9353017471581,-20.7827878233004,-4.30304417486832
1580423494.28476,-60.9445334554055,-4.97444113832307,1.49538414587619
1580423494.28876,-57.8927290760662,12.2377355611504,7.47692072938116
1580423494.29275,-54.0474555580988,30.4264896620125,14.1298542763409
1580423494.29674,-49.2256046387427,48.9814602883953,21.3321126115816
1580423494.30074,-43.9765011062791,66.3157091630428,28.7174792095825
1580423494.30473,-39.2156862745098,82.551308461128,35.4314488441289
1580423494.30872,-35.9197375448234,97.8713664454108,41.2909132524603
1580423494.31272,-32.6848249027239,112.642099641413,46.4179446097503
1580423494.31671,-27.191577019913,126.5583276112,51.1177233539329
1580423494.32071,-17.1206225680933,137.544823376822,55.5123216601814
1580423494.3247,-0.152590218966907,144.808117799649,59.357595178149
1580423494.32869,23.3463035019454,148.470283054856,63.0197604333566
1580423494.33269,51.6670481422138,150.240329594873,67.0481422140842
1580423494.33668,81.5136949721523,152.437628747997,72.1141374837875
1580423494.34067,110.933089188983,156.221866178378,78.5229266803999
1580423494.34466,137.850003814755,162.203402761883,86.0914015411613
1580423494.34865,161.837186236362,169.588769359884,94.0871290150303
1580423494.35265,183.566033417258,177.340352483406,101.411459525445
1580423494.35664,203.646906233311,183.871213855192,107.515068284123
1580423494.36064,221.591515983826,188.815136949722,111.787594415198
1580423494.36463,235.385671778439,192.843518730449,113.923857480735
1580423494.36862,241.06202792401,196.566720073244,113.557640955215
1580423494.37261,235.446707866026,199.679560540169,110.872053101396
1580423494.37661,217.074845502404,201.083390554666,105.622949568933
1580423494.3806,187.89959563592,200.900282291905,99.4583047226674
1580423494.3846,152.071412222476,196.749828336004,93.2936598764022
1580423494.38859,113.191424429694,188.021667811094,88.1055924315251
1580423494.39258,72.5413900968952,173.983367666132,85.1148241397727
1580423494.39658,29.8771648737315,154.757000076295,83.4058136873427
1580423494.40057,-14.6181429770352,131.013962005035,82.3682001983675
1580423494.40456,-57.9537651636531,104.829480430305,80.7202258335242
1580423494.40856,-94.9416342412453,78.8281071183337,77.9125658045323
1580423494.41255,-121.492332341497,55.6343938353548,73.6400396734571
1580423494.41654,-136.140993362325,36.7132066834515,68.0857557030595
1580423494.42056,-138.277256427863,21.1490043488211,61.1886778057524
1580423494.42456,-131.074998092622,8.5755703059433,53.8643472953381
1580423494.42855,-119.72228580148,-1.61745632104976,46.2348363469901
1580423494.43254,-109.163042648966,-10.5897611963073,38.9715419241625
1580423494.43654,-101.960784313726,-20.1113908598459,32.7458609903103
1580423494.44053,-98.0544747081713,-29.6940566109711,27.3746852826732
1580423494.44452,-95.1857785915925,-38.910505836576,22.7359426260775
1580423494.44852,-92.0729381246661,-49.0424963759824,19.1348134584573
1580423494.45251,-87.1290150301365,-63.2028686961166,15.7167925535973
1580423494.4565,-80.720225833524,-82.3071641107804,11.8715190356297
1580423494.4605,-79.6215762569618,-99.0310521095598,6.31723506523235
1580423494.46449,-90.6080720225832,-100.801098649577,-2.10574502174404
1580423494.46848,-111.909666590372,-86.4576180666818,-14.3129625391011
1580423494.47248,-133.821622034028,-67.7805752651254,-28.2291905088882
1580423494.47647,-146.578164339666,-49.3476768139162,-40.8636606393532
1580423494.48046,-148.653391317617,-25.0553139543754,-49.1035324635691
1580423494.48446,-143.6484321355,5.76791027695117,-52.3384451056688
1580423494.48845,-132.600900282292,34.8210879682611,-50.5683985656519
1580423494.49245,-107.820248722057,60.5783169298847,-43.6713206683453
1580423494.49644,-55.3292133974212,79.5605401693751,-31.8303196765089
1580423494.50043,28.900587472343,82.0630197604337,-18.0361638818952
1580423494.50442,138.52140077821,61.4938582436862,-5.40169375143046
1580423494.50841,262.973983367666,23.4073395895323,4.54718852521546
1580423494.51241,380.163271534295,-22.0035095750361,17.6699473563745
1580423494.5164,435.706111238269,-72.0531013962004,75.6542305638209
1580423494.52039,261.631189440757,-121.24818799115,140.413519493401
1580423494.52439,-69.1233691920347,-154.512855725948,55.7564660105286
1580423494.52838,-103.181506065461,-150.789654383154,13.3363851377126
1580423494.53237,-57.9537651636531,-155.123216601816,16.937514305333
1580423494.53637,-84.2603189135575,-121.492332341497,29.755092698558
1580423494.54036,-77.0580605783168,-83.588921950103,18.5244525825894
1580423494.54435,-47.2114137483788,-43.4271763179981,-16.7544060425726
1580423494.54835,-3.08232242313261,-6.92759594110021,-59.1134508278019
1580423494.55234,65.2780956740676,18.5244525825894,-96.711680781262
1580423494.55634,155.794613565271,31.0368505378804,-120.881971465629
1580423494.56033,236.728465705348,23.7125200274661,-125.642786297398
1580423494.56432,266.69718471046,4.36408026245522,-112.275883115892
1580423494.56832,225.741969939727,-20.5386434729533,-87.861448081178
1580423494.57231,123.689631494621,-34.5769436179141,-58.8082703898681
1580423494.5763,4.8523689631495,-25.4215304798961,-32.5017166399634
1580423494.58029,-82.1240558480201,5.27962157625689,-14.6791790646218
1580423494.58429,-106.233310444801,50.4463263904781,-9.4911116197452
1580423494.58828,-59.7848477912567,93.598840314336,-15.9609369039445
1580423494.59227,47.5776302738993,117.83016708629,-28.3512626840618
1580423494.59626,185.824368657969,126.009002822919,-38.056000610361
1580423494.60026,285.31319142443,132.112611581598,-32.9900053406577
1580423494.60425,291.050583657588,131.136034180209,-6.13412680247188
1580423494.60825,214.145113298238,107.209887846189,29.4499122606239
1580423494.61224,122.102693217365,81.9409475852599,47.8828107118331
1580423494.61623,72.9686427100023,86.3965819790951,38.9715419241625
1580423494.62023,83.3447775997561,103.425650415808,15.5947203784237
1580423494.62422,118.440527962158,103.852903028916,-5.58480201419093
1580423494.62821,127.962157625696,87.9835202563518,-16.2661173418783
1580423494.63221,94.8805981536584,70.1609826810104,-17.5478751812009
1580423494.6362,36.3469901579308,59.8458838788433,-15.7167925535973
1580423494.64019,-23.773556115053,56.6109712367434,-15.8999008163576
1580423494.64419,-73.2127870603495,57.2823682001981,-19.1348134584573
1580423494.64818,-109.163042648966,60.2731364919505,-23.1631952391851
1580423494.65217,-133.028152895399,64.9729152361338,-24.9332417792018
1580423494.65617,-145.967803463798,69.4895857175557,-23.4073395895323
1580423494.66019,-147.24956130312,73.2127870603495,-19.9893186846723
1580423494.66418,-136.81239032578,78.8281071183337,-15.4726482032502
1580423494.66817,-117.402914473182,87.0679789425499,-10.1014724956131
1580423494.67217,-94.2702372777906,97.6882581826508,-3.38750286106665
1580423494.67616,-69.916838330663,109.956511787595,4.73029678797593
1580423494.68015,-44.4037537193867,122.652018005646,13.3974212252995
1580423494.68415,-18.1582360570687,135.408560311284,20.7217517357137
1580423494.68814,7.59899290455473,147.859922178988,26.2760357061111
1580423494.69213,30.3044174868389,159.334706645304,30.1213092240787
1580423494.69613,47.3334859235522,168.551155870909,33.5393301289387
1580423494.70012,58.1368734264133,174.837872892348,37.0183871213853
1580423494.70411,65.1560234988938,178.500038147555,40.6195162890058
1580423494.70811,71.1985961699856,181.185626001373,44.1596093690393
1580423494.7121,77.1801327534909,184.542610818646,47.5776302738993
1580423494.7161,81.2085145342185,188.509956511788,51.36186770428
1580423494.72009,81.5136949721523,193.087663080797,55.1461051346605
1580423494.72408,77.4853131914247,197.299153124285,59.1744869153886
1580423494.72808,69.9778744182499,200.534065766385,63.0197604333566
1580423494.73207,60.5783169298847,202.426184481575,65.7053482871752
1580423494.73606,51.2397955291062,203.646906233311,66.55985351339
1580423494.74005,43.366140230411,204.196231021592,65.0949874113071
1580423494.74404,37.2014953841458,204.318303196765,61.61593041886
1580423494.74804,31.2809948882275,204.013122758831,56.7330434119172
1580423494.75203,24.8111696040282,203.097581445029,51.1177233539329
1580423494.75602,16.2050812542916,201.998931868467,45.5024032959486
1580423494.76002,5.6458381017776,201.022354467079,40.3143358510717
1580423494.76401,-5.88998245212474,199.496452277409,35.6145571068894
1580423494.768,-17.9140917067216,198.092622262913,31.0368505378804
1580423494.772,-30.0602731364918,196.322575722897,26.5812161440451
1580423494.77599,-41.8402380407417,193.759060044251,22.613870450904
1580423494.77999,-53.3150225070574,191.073472190433,19.5620660715647
1580423494.78398,-63.9353017471581,187.716487373159,17.3647669184404
1580423494.78797,-71.2596322575723,183.932249942779,15.6557564660104
1580423494.79197,-74.8607614251925,181.002517738613,12.664988174258
1580423494.79596,-74.7997253376059,177.035172045472,11.2001220721752
1580423494.79995,-71.8699931334402,173.556115053025,5.40169375143046
1580423494.80395,-66.3767452506295,168.978408484016,-5.27962157625689
1580423494.80794,-64.3015182726788,167.39147020676,17.8530556191347
1580423494.81193,-69.0012970168611,167.696650644693,30.3654535744258
1580423494.81593,-70.3440909437704,157.564660105287,35.8587014572365
1580423494.81995,-63.0807965209431,151.033798733501,40.0091554131379
1580423494.82394,-51.2397955291067,145.17433432517,43.2440680552374
1580423494.82793,-38.7884336614025,136.018921187152,45.929655909056
1580423494.83193,-27.1305409323261,124.605172808423,47.8217746242465
1580423494.83592,-15.5336842908368,112.520027466239,48.4321355001143
1580423494.83991,-2.59403372243833,100.434882124056,46.2958724345767
1580423494.84391,11.810482948043,89.2042420080875,40.7415884641794
1580423494.8479,26.5812161440451,79.6215762569623,30.7316700999465
1580423494.85189,40.1922636758982,70.6492713817047,16.4492256046387
1580423494.85589,51.1177233539329,61.1886778057524,-0.640878919661191
1580423494.85988,57.8316929884791,48.7373159380481,-18.0971999694818
1580423494.86387,59.4796673533224,32.5017166399632,-34.0276188296332
1580423494.86787,56.0616464484624,12.7260242618447,-47.2724498359655
1580423494.87186,48.493171587701,-8.94178683146401,-57.0992599374381
1580423494.87585,39.3377584496832,-31.3420309758146,-63.5080491340505
1580423494.87985,31.5861753261615,-51.9722285801481,-67.2922865644312
1580423494.88384,28.5954070344089,-70.0999465934233,-69.0012970168611
1580423494.88784,31.5251392385746,-85.5420767528801,-69.1233691920347
1580423494.89183,38.7884336614022,-97.8103303578241,-68.0857557030595
1580423494.89582,48.1269550621805,-107.454032196536,-66.0715648126954
1580423494.89981,56.0616464484624,-115.205615320058,-63.3859769588769
1580423494.9038,60.3341725795376,-123.018234531167,-60.0289921416038
1580423494.9078,59.2965590905619,-129.97634851606,-56.7940794995041
1580423494.91179,52.7046616311891,-134.554055085069,-53.5591668574045
1580423494.91578,41.9012741283282,-137.666895551995,-50.5073624780653
1580423494.91978,29.755092698558,-140.779736018921,-47.7607385366598
1580423494.92377,20.1724269474325,-142.793926909285,-45.3803311207753
1580423494.92776,16.083009079118,-144.319829098955,-43.4271763179981
1580423494.93176,20.050354772259,-146.822308690013,-41.7792019531548
1580423494.93575,30.8537422751201,-153.658350499733,-40.7415884641796
1580423494.93975,44.6478980697336,-162.874799725338,-39.8260471503777
1580423494.94374,58.197909514,-171.786068513008,-39.1546501869232
1580423494.94773,72.1141374837875,-179.049362935836,-39.5208667124439
1580423494.95173,86.9459067673765,-183.688105592432,-40.8026245517663
1580423494.95572,100.129701686122,-186.55680170901,-43.0609597924774
1580423494.95971,109.712367437247,-185.824368657969,-45.8686198214696
1580423494.96371,114.656290531777,-181.307698176547,-48.7983520256353
1580423494.9677,114.656290531777,-174.471656366827,-53.3150225070574
1580423494.97169,108.857862211032,-165.49935149157,-60.8834973678188
1580423494.97569,95.3688868543527,-156.038757915617,-69.3064774547952
1580423494.97967,70.0999465934237,-150.66758220798,-72.5413900968947
1580423494.98367,28.900587472343,-150.48447394522,-67.9636835278859
1580423494.98766,-22.064545662623,-152.620737010757,-59.4796673533226
1580423494.99165,-70.0389105058366,-157.686732280461,-52.582589456016
1580423494.99565,-109.773403524834,-165.438315403983,-47.7607385366598
1580423494.99964,-140.291447318227,-173.983367666133,-43.7933928435189
1580423495.00364,-160.55542839704,-184.115358205539,-39.8260471503777
1580423495.00763,-170.870527199207,-197.787441824979,-35.7366292820632
1580423495.01162,-172.579537651637,-213.168535896849,-30.9758144502937
1580423495.01562,-167.025253681239,-226.474402990768,-25.5436026550697
1580423495.01961,-156.221866178378,-233.676661326009,-21.0269321736475
1580423495.0236,-143.038071259632,-234.348058289464,-18.4023804074159
1580423495.0276,-129.7932402533,-230.197604333562,-17.5478751812009
1580423495.03159,-116.975661860075,-223.849851224537,-17.5478751812009
1580423495.03558,-104.707408255131,-216.281376363775,-17.2426947432668
1580423495.03958,-91.8287937743189,-208.651865415427,-16.0219729915311
1580423495.04357,-76.3866636148623,-202.426184481575,-15.8999008163576
1580423495.04756,-57.5265125505455,-199.191271839475,-18.1582360570687
1580423495.05156,-35.4314488441291,-199.008163576715,-21.759365224689
1580423495.05555,-11.0170138094147,-200.595101853971,-26.2149996185244
1580423495.05957,14.4350347142747,-201.93789578088,-29.755092698558
1580423495.06356,39.5208667124436,-201.327534905012,-30.3654535744258
1580423495.06756,62.1652552071409,-197.970550087739,-27.7409018081939
1580423495.07155,81.3916227969789,-191.561760891127,-22.2476539253832
1580423495.07554,95.9182116426337,-183.627069504845,-14.1298542763409
1580423495.07954,104.219119554436,-175.265125505455,-6.13412680247188
1580423495.08353,105.806057831693,-168.490119783322,-0.213626306553806
1580423495.08752,100.373846036469,-165.560387579156,2.47196154726475
1580423495.09152,88.8380254825665,-166.475928892958,0.823987182421661
1580423495.09551,72.9076066224156,-171.114671549554,-4.54718852521546
1580423495.0995,55.1461051346605,-176.241702906844,-12.4208438239109
1580423495.1035,37.2014953841458,-179.72075989929,-21.210040436408
1580423495.10749,20.1113908598459,-181.0635538262,-29.4499122606239
1580423495.11149,4.60822461280236,-179.964904249638,-36.7132066834517
1580423495.11548,-9.73525597009234,-176.607919432364,-42.328526741436
1580423495.11947,-23.8956282902266,-172.213321126116,-46.7841611352712
1580423495.12347,-38.3001449607082,-167.086289768826,-49.9580376897841
1580423495.12746,-52.8877698939498,-161.409933623255,-52.1553368429084
1580423495.13145,-67.1702143892576,-154.818036163882,-53.6812390325781
1580423495.13545,-79.7436484321354,-147.737850003815,-54.2305638208591
1580423495.13943,-89.9977111467153,-140.23041123064,-54.0474555580988
1580423495.14343,-98.9700160219732,-132.112611581598,-53.1319142442969
1580423495.14742,-107.209887846189,-123.445487144274,-51.4839398794538
1580423495.15141,-114.77836270695,-114.106965743496,-49.5918211642634
1580423495.15541,-122.102693217365,-104.34119172961,-47.3334859235524
1580423495.1594,-129.243915465019,-94.0871290150303,-45.1361867704281
1580423495.1634,-136.079957274739,-82.9785610742351,-42.4505989166096
1580423495.16739,-143.099107347219,-71.0154879072252,-39.0325780117496
1580423495.17138,-149.568932631418,-58.3199816891738,-34.3938353551539
1580423495.17538,-154.512855725948,-44.9530785076677,-28.3512626840618
1580423495.17937,-157.381551842527,-31.4030670634013,-21.0269321736475
1580423495.18336,-157.808804455635,-17.6089112687876,-12.0546272983902
1580423495.18736,-155.733577477684,-2.47196154726475,-2.16678110933094
1580423495.19135,-150.48447394522,15.1674677653161,7.90417334248878
1580423495.19534,-141.573205157549,35.0652323186082,18.4023804074159
1580423495.19934,-128.816662851911,57.7706569008924,27.9240100709544
1580423495.20333,-112.52002746624,83.5278858625165,34.5769436179139
1580423495.20732,-91.8898298619058,110.200656137942,37.2625314717325
1580423495.21132,-62.6535439078355,133.882658121614,37.0183871213853
1580423495.21531,-22.7969787136644,151.216906996262,36.8963149462118
1580423495.21933,22.613870450904,163.851377126726,42.0843823910886
1580423495.22332,69.062333104448,175.753414206149,54.5967803463795
1580423495.22732,110.99412527657,188.021667811094,71.9920653086137
1580423495.23131,144.197756923781,199.923704890517,90.6691081101703
1580423495.2353,170.199130235752,211.337453269246,108.857862211032
1580423495.2393,195.956359197376,222.07980468452,125.947966735332
1580423495.24329,227.38994430457,230.869001297017,142.061493858243
1580423495.24728,264.866102082856,236.118104829481,155.672541390097
1580423495.25128,300.816357671473,237.155718318456,163.851377126726
1580423495.25527,324.315251392386,233.310444800488,165.499351491569
1580423495.25926,325.291828793775,224.460212100405,161.532005798428
1580423495.26326,297.398336766613,212.375066758221,153.475242236972
1580423495.26725,238.681620508125,199.557488364996,142.854962996872
1580423495.27125,150.240329594873,182.528419928282,130.586709391928
1580423495.27524,38.5442893110551,157.747768368048,117.524986648356
1580423495.27923,-83.4058136873425,122.102693217365,104.15808346685
1580423495.28323,-195.651178759442,77.6684214541851,91.1573968108646
1580423495.28722,-277.195391775387,29.6330205233844,79.0112153810942
1580423495.29121,-314.183260852979,-15.8388647287709,69.2454413672085
1580423495.29521,-305.82131685359,-52.3994811932555,63.3859769588771
1580423495.29919,-264.560921644922,-75.6542305638209,60.7614251926448
1580423495.30319,-207.675288014038,-86.5186541542687,61.3717860685128
1580423495.30718,-149.752040894179,-89.4483863584344,64.6677347981995
1580423495.31117,-98.7869077592127,-86.2745098039215,67.8416113527123
1580423495.31517,-57.5265125505455,-78.9501792935073,68.3909361409937
1580423495.31916,-30.3044174868389,-69.611657892729,63.5080491340509
1580423495.32315,-24.4449530785075,-57.4044403753719,52.8267338063629
1580423495.32715,-42.9999237048905,-36.1028458075839,37.6287479972532
1580423495.33114,-78.9501792935073,-8.5755703059433,20.2334630350194
1580423495.33514,-123.872739757382,16.632333867399,2.28885328450451
1580423495.33913,-167.696650644694,35.7976653696496,-14.8622873273823
1580423495.34312,-196.322575722896,47.0283054856181,-30.1213092240787
1580423495.34712,-196.566720073243,46.6620889600974,-42.8168154421303
1580423495.35111,-162.44754711223,37.2014953841458,-52.8877698939498
1580423495.3551,-91.6456855115587,26.1539635309375,-58.7472343022812
1580423495.3591,11.1390859845883,17.6699473563745,-60.0289921416038
1580423495.36309,131.50225070573,8.5755703059433,-58.0758373388267
1580423495.36708,252.353704127565,-8.75867856870377,-54.9019607843138
1580423495.37108,350.072480354009,-30.2433813992523,-46.5400167849241
1580423495.37507,363.134203097582,-55.2071412222476,-11.7494468604561
1580423495.37909,194.369420920119,-96.4065003433282,30.4875257495994
1580423495.38308,-74.189364461738,-148.77546349279,-15.7167925535973
1580423495.38708,-156.527046616312,-130.586709391928,-39.0325780117496
1580423495.39107,-86.8848706797894,-135.225452048524,-17.6089112687876
1580423495.39506,-71.625848783093,-109.346150911727,12.7870603494316
1580423495.39906,-53.8643472953383,-90.3028915846494,22.1866178377966
1580423495.40305,-8.02624551766235,-55.6343938353552,-1.49538414587619
1580423495.40704,45.0141145952543,-15.6557564660104,-37.3846036469063
1580423495.41104,103.791866941329,12.1766994735638,-69.8558022430761
1580423495.41503,170.199130235752,34.4548714427403,-94.2702372777906
1580423495.41902,233.310444800488,42.2064545662622,-104.463263904784
1580423495.42302,272.739757381552,29.9992370489051,-97.871366445411
1580423495.42701,264.316777294575,10.2845807583733,-79.5605401693751
1580423495.43101,196.749828336004,-5.52376592660403,-55.5733577477683
1580423495.435,94.6364538033113,-5.21858548867021,-27.3746852826732
1580423495.43899,3.08232242313261,18.4634164950025,1.19020370794237
1580423495.44298,-43.5492484931717,60.5172808422976,23.7125200274661
1580423495.44698,-32.3186083772032,98.4206912336922,34.882124055848
1580423495.45097,25.2384222171358,120.576791027695,35.9197375448232
1580423495.45497,114.534218356604,124.177920195315,32.1355001144425
1580423495.45898,204.806591897459,126.37521934844,25.1163500419623
1580423495.46298,238.071259632258,128.26733806363,22.0035095750361
1580423495.46697,190.951400015259,114.41214618143,26.7643244068054
1580423495.47096,104.524299992371,93.2936598764022,32.1965362020294
1580423495.47496,35.6145571068894,84.6265354390785,26.7032883192187
1580423495.47895,11.3832303349354,92.8053711757079,14.6791790646218
1580423495.48294,29.3888761730373,97.566186007477,5.7068741893645
1580423495.48694,60.0900282291905,89.6314946211951,-2.10574502174404
1580423495.49093,71.9920653086137,80.3540093080037,-10.0404364080262
1580423495.49493,54.2915999084457,77.7904936293585,-16.3881895170518
1580423495.49892,14.0077821011673,79.133287556268,-19.9282825970854
1580423495.50291,-34.3938353551539,80.1098649576566,-22.4307621881437
1580423495.50691,-76.9970244907302,80.1709010452432,-26.4591439688716
1580423495.5109,-107.087815671016,81.4526588845656,-31.8303196765089
1580423495.51489,-122.652018005646,85.2368963149465,-35.8587014572367
1580423495.51889,-125.398641947051,91.279468986038,-37.6287479972534
1580423495.52288,-117.524986648356,97.2610055695432,-37.2625314717327
1580423495.52687,-103.608758678569,102.571145189594,-34.9431601434349
1580423495.53087,-86.152437628748,108.613717860685,-30.7316700999465
1580423495.53486,-65.8884565499352,116.487373159381,-24.7501335164416
1580423495.53885,-43.7933928435189,126.985580224308,-17.2426947432668
1580423495.54284,-19.9893186846723,139.742122529946,-9.00282291905091
1580423495.54684,4.18097199969475,153.109025711452,-0.640878919661191
1580423495.55083,25.7877470054168,165.438315403982,8.08728160524902
1580423495.55482,41.2909132524603,175.082017242695,17.5478751812009
1580423495.55882,50.202182040131,181.551842526894,27.0084687571525
1580423495.56281,53.6812390325777,185.763332570382,36.8963149462118
1580423495.5668,54.6578164339662,189.242389562829,46.4179446097503
1580423495.5708,55.0240329594872,192.843518730449,55.1461051346605
1580423495.57479,54.5967803463795,196.322575722897,62.8366521705962
1580423495.57878,51.7280842298005,199.923704890517,69.6726939803161
1580423495.58278,45.2582589456015,203.28068970779,75.5321583886475
1580423495.58677,36.1638818951703,205.905241474022,79.6215762569623
1580423495.59076,26.7643244068054,207.309071488518,81.3305867093923
1580423495.59476,18.0971999694818,208.285648889906,80.0488288700694
1580423495.59875,10.2845807583733,208.651865415427,76.4476997024494
1580423495.60274,3.44853894865332,208.163576714733,71.0765239948123
1580423495.60674,-2.83817807278547,207.431143663691,64.5456626230261
1580423495.61073,-7.96520943007545,206.149385824369,58.1368734264133
1580423495.61472,-12.7260242618447,204.98970016022,52.3384451056686
1580423495.61874,-17.792019531548,202.975509269856,45.9906919966429
1580423495.62274,-22.7359426260775,200.473029678798,39.3987945372701
1580423495.62673,-27.191577019913,197.299153124285,34.027618829633
1580423495.63072,-31.8913557640956,194.73563744564,27.4967574578468
1580423495.63472,-34.2717631799803,191.744869153888,5.52376592660403
1580423495.63871,-32.9900053406577,183.993286030365,-4.48615243762879
1580423495.6427,-37.5066758220798,182.711528191043,16.9985503929197
1580423495.6467,-47.0283054856184,176.791027695125,27.6188296330204
1580423495.65069,-49.7749294270238,165.987640192263,32.0134279392689
1580423495.65469,-45.5634393835355,161.165789272908,35.1873044937818
1580423495.65868,-38.6663614862289,155.367360952163,38.4832532234682
1580423495.66267,-31.9523918516825,145.35744258793,42.2064545662622
1580423495.66667,-25.3604943923094,133.516441596094,45.5024032959486
1580423495.67066,-18.5854886701761,121.797512779431,48.1879911497672
1580423495.67465,-11.3832303349354,110.017547875181,49.7138933394367
1580423495.67865,-4.24200808728165,97.566186007477,49.042496375982
1580423495.68264,3.50957503624022,84.9317158770123,46.1127641718165
1580423495.68663,13.0312046997788,72.9076066224156,40.9246967269396
1580423495.69063,24.7501335164416,61.61593041886,33.6614023041122
1580423495.69462,37.2625314717325,50.8735790035857,24.7501335164416
1580423495.69861,48.4321355001143,40.802624551766,14.2519264515145
1580423495.7026,56.7330434119172,30.3654535744258,2.96025024795904
1580423495.70659,60.5172808422976,18.2803082322423,-8.51453421835663
1580423495.71059,59.6017395284962,3.63164721141379,-19.8062104219118
1580423495.71458,53.4370946822305,-14.068818188754,-30.3654535744258
1580423495.71858,43.366140230411,-35.6145571068896,-39.8870832379646
1580423495.72257,31.5251392385746,-59.4796673533226,-47.455558098726
1580423495.72656,20.904859998474,-82.4902723735408,-52.9488059815367
1580423495.73056,13.519493400473,-102.44907301442,-56.1837186236362
1580423495.73455,10.1014724956131,-116.914625772488,-57.4654764629588
1580423495.73854,9.91836423285258,-126.070038910506,-57.1602960250248
1580423495.74254,11.3832303349354,-131.563286793317,-55.0850690470741
1580423495.74653,13.1532768749523,-133.882658121614,-51.4839398794538
1580423495.75052,14.068818188754,-134.554055085069,-46.7841611352712
1580423495.75452,14.6181429770352,-134.187838559548,-42.1454184786755
1580423495.75851,17.1206225680933,-134.737163347829,-38.7273975738156
1580423495.7625,24.8111696040282,-141.634241245136,-36.2249179827575
1580423495.7665,38.9105058365758,-154.573891813535,-34.9431601434349
1580423495.77049,56.48889906157,-169.588769359884,-34.2107270923934
1580423495.77448,71.0765239948123,-180.880445563439,-33.7224383916991
1580423495.7785,77.9736018921189,-186.923018234531,-33.478294041352
1580423495.7825,75.5321583886475,-187.777523460746,-34.1496910048068
1580423495.78649,67.5974670023652,-185.580224307622,-35.7976653696498
1580423495.79048,61.61593041886,-183.627069504845,-38.2391088731213
1580423495.79448,64.6066987106128,-183.260852979324,-41.1078049897003
1580423495.79847,77.3022049286642,-182.650492103456,-44.0985732814527
1580423495.80246,96.4675364309151,-181.124589913787,-46.7841611352712
1580423495.80646,116.487373159381,-179.171435111009,-49.8359655146105
1580423495.81045,131.868467231251,-176.668955519951,-53.4981307698176
1580423495.81445,137.422751201648,-174.593728542,-57.8927290760662
1580423495.81844,130.708781567102,-174.349584191653,-63.3249408712902
1580423495.82243,110.749980926223,-175.875486381323,-67.2312504768445
1580423495.82642,77.9125658045323,-179.35454337377,-66.193636987869
1580423495.83042,33.7224383916989,-183.443961242084,-61.6769665064469
1580423495.83441,-16.8154421301595,-184.908827344167,-56.9771877622645
1580423495.83841,-62.2262912947281,-183.199816891737,-52.8877698939498
1580423495.8424,-95.5519951171132,-182.162203402762,-48.7373159380484
1580423495.84639,-119.356069275959,-185.458152132448,-42.9999237048905
1580423495.85039,-136.140993362325,-192.904554818036,-35.9197375448234
1580423495.85438,-147.127489127947,-203.46379797055,-28.6564431219958
1580423495.85837,-152.498664835584,-214.999618524452,-22.0035095750361
1580423495.86236,-153.292133974212,-224.460212100405,-15.777828641184
1580423495.86635,-150.66758220798,-228.610666056306,-10.8949416342411
1580423495.87035,-145.784695201037,-227.328908216983,-8.33142595559616
1580423495.87434,-138.887617303731,-223.78881513695,-8.51453421835663
1580423495.87833,-129.610131990539,-219.699397268635,-10.5897611963073
1580423495.88233,-116.609445334554,-215.854123750667,-12.7870603494316
1580423495.88632,-98.6648355840391,-212.802319371328,-14.7402151522087
1580423495.89032,-74.5555809872587,-210.727092393377,-16.3881895170518
1580423495.89431,-44.7089341573205,-209.384298466468,-18.1582360570687
1580423495.8983,-11.505302510109,-208.529793240253,-20.2334630350194
1580423495.9023,22.4917982757304,-207.431143663691,-22.064545662623
1580423495.90629,54.1695277332719,-205.233844510567,-22.5528343633173
1580423495.91028,81.0864423590451,-201.57167925536,-21.2710765239947
1580423495.91428,102.204928664073,-196.566720073243,-16.8764782177461
1580423495.91827,117.647058823529,-191.256580453193,-10.1625085831997
1580423495.92226,128.511482413977,-185.336079957275,-2.83817807278547
1580423495.92626,135.408560311284,-178.439002059968,4.11993591210808
1580423495.93025,138.033112077516,-173.250934615091,10.7118333714809
1580423495.93424,135.591668574044,-169.710841535058,13.7636377508202
1580423495.93823,127.779049362936,-168.795300221256,13.5805294880597
1580423495.94223,115.632867933165,-171.908140688182,10.650797283894
1580423495.94622,99.8245212481879,-176.668955519951,5.27962157625689
1580423495.95021,80.5371175707637,-178.255893797208,-1.0681315327688
1580423495.95421,59.0524147402148,-177.035172045472,-7.41588464179449
1580423495.9582,36.6521705958646,-174.471656366827,-13.3974212252995
1580423495.96219,13.7026016632333,-171.053635461967,-19.1348134584573
1580423495.96619,-8.88075074387734,-166.04867627985,-24.2618448157473
1580423495.97018,-31.3420309758146,-159.334706645304,-28.4122987716487
1580423495.97417,-53.8033112077517,-151.522087434195,-31.8303196765089
1580423495.97817,-76.2645914396887,-143.526359960327,-34.0276188296332
1580423495.98216,-98.725871671626,-135.957885099565,-35.0041962310218
1580423495.98615,-120.515754940108,-128.816662851911,-34.6990157930877
1580423495.99015,-141.023880369268,-121.736476691844,-33.1120775158313
1580423495.99414,-159.884031433585,-114.290074006256,-30.2433813992523
1580423495.99813,-175.814450293736,-105.806057831693,-26.2760357061111
1580423496.00213,-188.509956511788,-95.7351033798734,-21.9424734874494
1580423496.00612,-197.055008773938,-83.6499580376897,-17.1816586556802
1580423496.01011,-200.900282291905,-69.3675135423819,-12.6039520866711
1580423496.01411,-200.167849240864,-52.8877698939498,-7.47692072938116
1580423496.01813,-194.979781795987,-34.8821240558482,-1.61745632104976
1580423496.02212,-186.495765621424,-15.4116121156633,3.93682764934761
1580423496.02611,-176.363775082017,5.6458381017776,8.88075074387734
1580423496.03011,-165.804531929503,27.1305409323261,13.5805294880597
1580423496.0341,-155.489433127336,48.4321355001143,18.2803082322423
1580423496.03809,-145.17433432517,69.062333104448,23.4073395895323
1580423496.04209,-133.760585946441,88.7159533073932,28.4122987716487
1580423496.04608,-120.149538414588,106.782635233082,33.3562218661782
1580423496.05007,-103.486686503395,123.201342793927,38.3001449607079
1580423496.05407,-82.4292362859539,138.277256427863,42.9388876173036
1580423496.05806,-56.5499351491569,152.132448310063,46.784161135271
1580423496.06206,-25.7267109178301,162.386511024643,49.4087129015029
1580423496.06605,7.23277637903402,167.879758907454,52.3384451056686
1580423496.07004,38.0560006103608,169.10048065919,56.3668268863962
1580423496.07404,62.9587243457695,167.025253681239,62.8366521705962
1580423496.07803,81.1474784466318,165.011062790875,70.9544518196385
1580423496.08202,95.3688868543527,165.316243228809,80.2929732204166
1580423496.08602,111.604486152438,169.954985885405,89.9366750591289
1580423496.09001,134.370946822309,180.025940337224,99.6414129854279
1580423496.094,165.68245975433,195.345998321508,108.857862211032
1580423496.09799,204.501411459526,213.962005035477,117.708094911116
1580423496.10198,245.395590142672,230.563820859083,125.093461509117
1580423496.10598,281.162737468528,241.000991836424,129.549095902953
1580423496.10997,303.135728999771,242.710002288854,130.342565041581
1580423496.11397,304.66163118944,235.690852216373,128.389410238804
1580423496.11796,282.505531395438,223.239490348669,123.750667582208
1580423496.12195,236.667429617762,203.768978408484,117.158770122835
1580423496.12595,168.490119783322,174.288548104066,110.017547875181
1580423496.12994,80.9033340962847,132.478828107118,102.143892576486
1580423496.13393,-17.486839093614,81.1474784466318,93.4157320515756
1580423496.13793,-109.773403524834,30.0602731364918,83.6499580376899
1580423496.14192,-181.002517738613,-15.2895399404897,73.7621118486309
1580423496.14591,-222.629129472801,-50.873579003586,65.3391317616542
1580423496.14991,-232.944228274968,-76.8139162279697,59.6017395284962
1580423496.1539,-217.196917677577,-95.6740672922867,55.329213397421
1580423496.15789,-185.214007782101,-106.05020218204,52.1553368429081
1580423496.16189,-146.700236514839,-109.4682230869,47.7607385366596
1580423496.16588,-111.482413977264,-106.477454795148,41.0467689021132
1580423496.16987,-88.1666285191118,-94.6974898908982,31.0978866254673
1580423496.17387,-81.5136949721523,-72.9076066224154,18.5854886701761
1580423496.17789,-91.4625772487982,-44.037537193866,4.91340505073617
1580423496.18188,-115.388723582818,-13.0922407873654,-8.45349813076973
1580423496.18587,-147.127489127947,16.3881895170518,-20.6607156481268
1580423496.18987,-174.105439841306,42.511635004196,-30.9147783627068
1580423496.19386,-181.368734264134,60.6393530174714,-38.4222171358817
1580423496.19785,-153.658350499733,67.7805752651257,-43.9765011062791
1580423496.20185,-78.9501792935073,67.170214389258,-47.6386663614862
1580423496.20584,36.8352788586251,61.61593041886,-50.2632181277181
1580423496.20983,173.006790264744,48.7373159380481,-52.2774090180819
1580423496.21383,305.516136415656,25.5436026550697,-55.2071412222476
1580423496.21782,410.131990539406,-2.10574502174404,-55.5733577477683
1580423496.22181,443.335622186618,-30.4875257495994,-31.4030670634013
1580423496.22581,294.468604562448,-76.6918440527961,10.1625085831997
1580423496.2298,12.1156633859769,-142.183566033417,-21.8814373998625
1580423496.2338,-122.468909742885,-139.742122529946,-51.2397955291067
1580423496.23779,-82.9175249866482,-120.271610589761,-21.3931486991683
1580423496.24178,-73.5790035858702,-101.167315175097,15.7167925535973
1580423496.24578,-81.1474784466316,-105.378805218586,38.0560006103608
1580423496.24977,-59.8458838788433,-98.2375829709317,25.482566567483
1580423496.25376,-20.5996795605402,-69.4285496299688,-10.0404364080262
1580423496.25775,24.2618448157473,-37.2625314717327,-47.6997024490731
1580423496.26174,79.0112153810942,-10.1014724956131,-77.9736018921187
1580423496.26574,130.464637216754,8.88075074387734,-94.3312733653775
1580423496.26973,155.489433127336,6.62241550316617,-93.5988403143358
1580423496.27373,142.793926909285,-15.5336842908368,-80.1098649576561
1580423496.27772,96.8337529564355,-36.9573510337989,-59.357595178149
1580423496.28171,32.8068970778972,-36.4690623331046,-32.623788815137
1580423496.28571,-27.6798657206073,-13.6415655756466,-0.70191500724809
1580423496.2897,-74.0062561989776,20.2334630350194,29.3278400854504
1580423496.29369,-99.0920881971467,55.0240329594872,49.8970016021972
1580423496.29769,-92.5001907377737,78.2177462424661,60.8834973678186
1580423496.30168,-55.5123216601817,88.8990615701537,64.5456626230261
1580423496.30567,4.54718852521546,96.7727168688489,61.6769665064467
1580423496.30967,79.4384679942018,107.026779583429,48.7983520256348
1580423496.31366,142.671854734112,118.867780575265,29.0226596475165
1580423496.31765,161.532005798428,118.684672312505,11.0170138094147
1580423496.32165,126.924544136721,103.974975204089,-2.59403372243833
1580423496.32564,60.7614251926448,92.1339742122532,-13.4584573128861
1580423496.32963,2.83817807278547,90.1197833218894,-20.4776073853666
1580423496.33363,-20.9658960860609,89.9366750591289,-20.2334630350194
1580423496.33762,-19.195849546044,84.260318913558,-15.4726482032502
1580423496.34161,-11.2611581597619,78.6449988555737,-15.2895399404897
1580423496.3456,-17.8530556191347,76.5697718776228,-22.6749065384909
1580423496.3496,-48.9814602883955,74.4945448996723,-31.5251392385749
1580423496.35359,-92.7443350881208,70.6492713817047,-36.896314946212
1580423496.35758,-130.464637216754,67.170214389258,-39.3377584496834
1580423496.36158,-152.071412222477,67.9636835278861,-39.765011062791
1580423496.36557,-155.672541390097,74.7386892500194,-37.3235675593196
1580423496.36956,-140.840772106508,86.4576180666822,-31.5861753261618
1580423496.37356,-110.383764400702,100.068665598535,-23.468375677119
1580423496.37755,-71.5648126955061,113.557640955215,-14.2519264515145
1580423496.38154,-32.3796444647899,126.802471961547,-4.48615243762879
1580423496.38554,2.28885328450451,140.413519493401,4.97444113832307
1580423496.38953,33.1120775158311,154.940108339055,13.2753490501259
1580423496.39352,62.6535439078357,170.016021972991,19.8672465094987
1580423496.39752,92.2560463874265,184.908827344167,25.2384222171358
1580423496.40151,120.088502327001,198.092622262913,30.2433813992523
1580423496.4055,142.854962996872,208.59082932784,36.1028458075837
1580423496.4095,157.13740749218,216.037232013428,42.8168154421301
1580423496.41349,162.081330586709,220.431830319676,50.4463263904781
1580423496.41751,159.212634470131,222.812237735561,58.3810177767605
1580423496.4215,149.996185244526,224.338139925231,66.1326009002823
1580423496.4255,136.385137712673,225.253681239033,73.6400396734571
1580423496.42949,119.72228580148,225.558861676966,80.9033340962847
1580423496.43349,100.862134737164,225.314717326619,87.0679789425499
1580423496.43748,80.0488288700694,224.521248187991,91.2184328984513
1580423496.44147,57.3434042877848,222.26291294728,91.8287937743194
1580423496.44546,33.7834744792858,218.966964217594,88.5328450446327
1580423496.44946,11.7494468604561,215.304798962386,81.9409475852599
1580423496.45345,-7.29381246662092,211.947814145114,73.2738231479366
1580423496.45745,-22.5528343633173,209.262226291295,64.5456626230261
1580423496.46144,-33.9665827420463,207.797360189212,56.3057907988095
1580423496.46543,-41.7181658655682,206.393530174716,47.5165941863124
1580423496.46943,-46.7841611352712,205.783169298848,37.4456397344929
1580423496.47342,-49.0424963759824,204.501411459526,16.5712977798123
1580423496.47741,-48.0048828870069,199.618524452583,-16.5102616922254
1580423496.48141,-57.0992599374381,200.228885328451,12.6039520866711
1580423496.4854,-77.9736018921187,207.064927138171,30.1823453116654
1580423496.48939,-91.8898298619058,194.186312657359,32.9900053406575
1580423496.49339,-91.0353246356908,189.425497825589,34.0886549172196
1580423496.49738,-81.025406271458,189.547570000763,34.9431601434346
1580423496.50137,-67.5364309147783,184.542610818646,36.530098420691
1580423496.50536,-52.6436255436026,175.692378118562,39.3377584496832
1580423496.50936,-32.8068970778975,165.86556801709,42.8168154421301
1580423496.51335,-6.5003433279926,154.818036163882,46.2958724345767
1580423496.51734,23.8956282902266,142.610818646525,48.7983520256348
1580423496.52134,53.4981307698176,129.549095902953,49.7138933394367
1580423496.52533,78.2787823300528,115.205615320058,48.4321355001143
1580423496.52932,96.2844281681546,99.4583047226674,44.2816815442129
1580423496.53332,108.064393072404,84.0161745632108,37.0183871213853
1580423496.53731,116.30426489662,69.3675135423823,26.2149996185244
1580423496.5413,123.994811932555,54.8409246967267,12.0546272983902
1580423496.5453,131.197070267796,39.5819028000303,-4.8523689631495
1580423496.54929,136.263065537499,22.9800869764247,-22.7359426260775
1580423496.55328,136.140993362325,3.69268329900046,-40.314335851072
1580423496.55728,127.901121538109,-18.7685969329366,-55.8175020981155
1580423496.56127,111.238269626917,-43.9154650186924,-68.207827878233
1580423496.56526,89.3873502708479,-69.3064774547952,-77.302204928664
1580423496.56926,65.5832761120014,-92.0729381246661,-82.4902723735408
1580423496.57325,44.7089341573203,-109.712367437247,-84.0772106507973
1580423496.57727,30.6706340123596,-123.262378881514,-82.5513084611275
1580423496.58126,25.2384222171358,-134.737163347829,-78.0346379797054
1580423496.58526,28.7174792095825,-145.54055085069,-70.8934157320516
1580423496.58925,36.7132066834515,-151.766231784542,-62.0431830319676
1580423496.59324,42.4505989166094,-151.522087434195,-52.8877698939498
1580423496.59724,41.2909132524603,-148.77546349279,-44.7089341573205
1580423496.60123,33.7834744792858,-150.911726558327,-38.1170366979477
1580423496.60522,22.5528343633173,-161.409933623255,-33.5393301289389
1580423496.60922,12.664988174258,-178.866254673075,-30.9147783627068
1580423496.61321,6.86655985351331,-197.543297474632,-29.755092698558
1580423496.6172,5.21858548867021,-212.252994583047,-29.8161287861446
1580423496.6212,6.80552376592664,-220.492866407263,-30.6706340123596
1580423496.62519,11.1390859845883,-221.530479896239,-32.0134279392691
1580423496.62919,17.3037308308537,-216.891737239643,-33.9055466544596
1580423496.63318,23.8345922026397,-209.201190203708,-35.7976653696498
1580423496.63717,29.0836957351032,-200.534065766384,-38.1170366979477
1580423496.64117,32.1965362020294,-192.111085679408,-40.619516289006
1580423496.64516,32.5017166399632,-183.810177767605,-43.1219958800641
1580423496.64915,29.755092698558,-176.241702906844,-45.9296559090562
1580423496.65315,24.2618448157473,-170.382238498512,-48.8593881132219
1580423496.65714,14.923323414969,-167.025253681239,-52.0943007553217
1580423496.66113,1.19020370794237,-167.208361944,-54.291599908446
1580423496.66512,-16.5102616922254,-170.077058060578,-53.7422751201648
1580423496.66911,-37.201495384146,-174.04440375372,-50.5683985656519
1580423496.67311,-61.2497138933395,-177.462424658579,-46.1738002594034
1580423496.6771,-85.6031128404668,-181.551842526894,-42.0843823910889
1580423496.6811,-107.331960021363,-187.228198672465,-39.3987945372703
1580423496.68509,-125.581750209812,-193.270771343557,-37.5677119096667
1580423496.68908,-140.718699931334,-198.397802700847,-35.3093766689556
1580423496.69308,-153.414206149386,-203.830014496071,-31.8913557640956
1580423496.69707,-163.546196688792,-210.48294804303,-27.5577935454337
1580423496.70106,-169.771877622645,-217.868314641031,-22.8580148012511
1580423496.70506,-170.138094148165,-224.277103837644,-18.8296330205233
1580423496.70905,-164.034485389487,-228.610666056306,-15.8999008163576
1580423496.71304,-152.498664835584,-230.869001297017,-14.923323414969
1580423496.71704,-136.934462500954,-231.906614785992,-15.4726482032502
1580423496.72103,-118.623636224918,-231.906614785992,-16.632333867399
1580423496.72502,-98.8479438467996,-230.44174868391,-17.6089112687876
1580423496.72902,-78.2787823300525,-227.634088654917,-18.0971999694818
1580423496.73301,-57.0382238498512,-224.948500801099,-18.8906691081102
1580423496.737,-34.8821240558482,-222.629129472801,-20.355535210193
1580423496.74099,-11.9935912108033,-220.798046845197,-23.1021591515982
1580423496.74499,10.955977721828,-218.722819867246,-25.8487830930037
1580423496.74898,33.2341496910046,-216.220340276188,-25.5436026550697
1580423496.75297,55.5123216601814,-212.069886320287,-25.482566567483
1580423496.75697,76.9359884031437,-206.332494087129,-23.468375677119
1580423496.76096,96.8947890440222,-199.130235751888,-18.4023804074159
1580423496.76495,114.41214618143,-190.524147402152,-11.7494468604561
1580423496.76895,128.023193713283,-181.795986877241,-4.91340505073617
1580423496.77294,136.62928206302,-173.922331578546,-0.457770656900948
1580423496.77693,140.108339055466,-168.856336308843,0.70191500724809
1580423496.78093,139.375906004425,-165.743495841917,-1.9226367589838
1580423496.78492,135.286488136111,-165.316243228809,-7.23277637903402
1580423496.78891,127.779049362936,-165.255207141222,-13.8857099259938
1580423496.79291,116.792553597315,-163.546196688792,-20.5386434729533
1580423496.7969,102.388036926833,-160.921644922561,-26.7643244068054
1580423496.80089,84.443427176318,-157.381551842527,-31.9523918516825
1580423496.80489,63.8742656595714,-153.109025711452,-36.1638818951706
1580423496.80888,41.2298771648736,-148.104066529335,-39.5819028000305
1580423496.81288,17.3037308308537,-142.12252994583,-42.5726710917831
1580423496.81689,-7.29381246662092,-135.591668574044,-45.6244754711224
1580423496.82089,-32.4406805523768,-128.572518501564,-48.7983520256353
1580423496.82488,-57.2823682001983,-121.675440604257,-51.8501564049745
1580423496.82887,-81.025406271458,-115.327687495232,-54.5967803463798
1580423496.83287,-102.388036926833,-109.040970473793,-56.4888990615702
1580423496.83686,-119.783321889067,-102.571145189593,-56.8551155870909
1580423496.84085,-132.356755931945,-94.6974898908982,-55.7564660105288
1580423496.84485,-139.925230792706,-84.5654993514916,-53.0708781567103
1580423496.84884,-143.221179522393,-71.7479209582666,-48.8593881132219
1580423496.85284,-142.854962996872,-55.6954299229419,-43.4271763179981
1580423496.85683,-139.314869916838,-36.5300984206913,-36.7742427710384
1580423496.86082,-133.028152895399,-15.228503852903,-28.8395513847561
1580423496.86482,-124.727244983597,7.11070420386045,-19.6841382467383
1580423496.86881,-114.900434882124,29.755092698558,-9.12489509422448
1580423496.8728,-104.219119554437,53.1929503318834,2.59403372243833
1580423496.8768,-92.8664072632944,77.424277103838,15.4116121156633
1580423496.88079,-80.2929732204166,101.655603875792,27.9850461585411
1580423496.88478,-66.0715648126954,126.5583276112,39.2156862745096
1580423496.88878,-51.2397955291067,151.522087434195,48.4321355001143
1580423496.89277,-36.896314946212,174.532692454413,55.6954299229419
1580423496.89676,-23.7125200274661,194.369420920119,63.14183260853
1580423496.90075,-12.6039520866711,209.933623254749,72.3582818341347
1580423496.90475,-4.30304417486832,221.103227283131,84.0772106507975
1580423496.90874,1.9226367589838,227.634088654917,97.3830777447165
1580423496.91273,9.85732814526591,231.479362172885,110.933089188983
1580423496.91673,25.2384222171358,236.301213092241,124.422064545663
