Timestamp_seconds,Accel_X_g,Accel_Y_g,Accel_Z_g
1580423490.02708,-0.884046692607004,0.303471427481497,-0.317631799801633
1580423490.05944,-0.885511558709087,0.308842603189134,-0.311772335393302
1580423490.0918,-0.895277332722973,0.306889448386357,-0.316166933699551
1580423490.12416,-0.906996261539636,0.305424582284274,-0.347417410543985
1580423490.15652,-0.88697642481117,0.303959716182192,-0.327885862516213
1580423490.18888,-0.894300755321584,0.305912870984969,-0.286381322957199
1580423490.22124,-0.890882734416724,0.307377737087052,-0.312260624093996
1580423490.25361,-0.884534981307699,0.324467841611352,-0.295170519569696
1580423490.28597,-0.885023270008393,0.310795757991912,-0.284916456855116
1580423490.31833,-0.888929579613947,0.305912870984969,-0.291752498664836
1580423490.35069,-0.880628671702144,0.320561532005797,-0.289799343862059
1580423490.38321,-0.885023270008393,0.305424582284274,-0.287846189059282
1580423490.41557,-0.891371023117419,0.312260624093994,-0.290775921263448
1580423490.44793,-0.892835889219501,0.306401159685663,-0.306889448386359
1580423490.48029,-0.894789044022279,0.312260624093994,-0.290287632562753
1580423490.51266,-0.89039444571603,0.30835431448844,-0.296635385671779
1580423490.54502,-0.889417868314641,0.30493629358358,-0.285893034256505
1580423490.57738,-0.896742198825056,0.315678644998854,-0.294682230869002
1580423490.60974,-0.893324177920196,0.302006561379415,-0.301029983978028
1580423490.6421,-0.885999847409781,0.30493629358358,-0.297123674372473
1580423490.67446,-0.894300755321584,0.312748912794689,-0.317631799801633
1580423490.70682,-0.885511558709087,0.324956130312046,-0.310795757991913
1580423490.73918,-0.89039444571603,0.317631799801632,-0.294193942168308
1580423490.77155,-0.892347600518807,0.31860837720302,-0.280521858548868
1580423490.80391,-0.900160219729916,0.323491264209963,-0.301029983978028
1580423490.83627,-0.890882734416724,0.323979552910657,-0.295658808270391
1580423490.86863,-0.888441290913253,0.346929121843289,-0.270756084534982
1580423490.90099,-0.885511558709087,0.337163347829403,-0.259037155718319
1580423490.93335,-0.889906157015336,0.324956130312046,-0.257084000915542
1580423490.96572,-0.889417868314641,0.356694895857174,-0.270756084534982
1580423490.99808,-0.88014038300145,0.355230029755091,-0.266849774929428
1580423491.03044,-0.889906157015336,0.346929121843289,-0.268802929732205
1580423491.0628,-0.892835889219501,0.336675059128709,-0.278080415045396
1580423491.09516,-0.894789044022279,0.338139925230792,-0.273685816739148
1580423491.12752,-0.88697642481117,0.332768749523154,-0.291264209964142
1580423491.15988,-0.889906157015336,0.317631799801632,-0.286869611657893
1580423491.19225,-0.901625085831999,0.314213778896772,-0.307377737087053
1580423491.22461,-0.893324177920196,0.356694895857174,-0.307866025787748
1580423491.25697,-0.899183642328527,0.338139925230792,-0.319096665903716
1580423491.28933,-0.908949416342413,0.340093080033569,-0.294193942168308
1580423491.32169,-0.894789044022279,0.35278858625162,-0.261966887922485
1580423491.35405,-0.893324177920196,0.327397573815517,-0.274662394140536
1580423491.38642,-0.874280918593119,0.385503929198137,-0.254154268711376
1580423491.41878,-0.926039520866713,0.387457084000914,-0.223880369268329
1580423491.45114,-0.902601663233387,0.413336385137711,-0.241458762493323
1580423491.4835,-0.909925993743801,0.430426489662011,-0.262455176623179
1580423491.51586,-0.935805294880598,0.362066071564811,-0.301518272678722
1580423491.54822,-0.990005340657664,0.343511100938429,-0.272709239337759
1580423491.58059,-0.933363851377127,0.44507515068284,-0.134035248340581
1580423491.61295,-0.909437705043107,0.444098573281451,-0.160891126878766
1580423491.64531,-0.849866483558404,0.498786907759211,-0.0700694285496297
1580423491.67786,-0.712657358663309,0.510994125276572,-0.0148928053711757
1580423491.71022,-0.581307698176547,0.602792401007097,0.0251468680857556
1580423491.74258,-0.281986724650951,0.839612420843824,0.00610360875867855
1580423491.77494,-0.245365072098878,0.850843060959793,0.173098344396124
1580423491.8073,-1.55153734645609,0.593026626993211,-0.116456855115587
1580423491.83967,-1.1403982604715,0.509529259174489,0.175051499198901
1580423491.87203,-0.530525673304341,0.686778057526514,0.356694895857174
1580423491.90439,-0.953383688105593,0.475349050125885,0.377691309987028
1580423491.93675,-0.844495307850767,0.358159761959257,0.41089494163424
1580423491.96911,-0.86305027847715,0.303959716182192,0.319096665903714
1580423492.00148,-0.823987182421607,0.440680552376591,0.205325398641946
1580423492.03384,-0.847913328755627,0.389898527504386,0.0588387884336612
1580423492.0662,-0.963149462119478,0.439703974975203,-0.105714503700312
1580423492.09856,-0.938735027084764,0.317631799801632,-0.106202792401007
1580423492.13092,-1.01051346608682,0.0832532234683754,-0.152590218966964
1580423492.16329,-1.01100175478752,0.201419089036392,-0.00122072175173571
1580423492.19565,-0.939711604486153,0.153078507667658,-0.0314946211947813
1580423492.22801,-1.02027924010071,0.174563210498206,0.0935072861829553
1580423492.26037,-0.974380102235447,0.31860837720302,0.266849774929426
1580423492.29273,-1.05738918135348,0.162355992980849,0.149172198062104
1580423492.3251,-1.12672617685206,0.0456549935149155,0.00610360875867855
1580423492.35746,-1.38600747692073,-0.070557717250324,-0.23315785458152
1580423492.38982,-1.81667811093309,-0.949477378500038,-0.433356221866179
1580423492.42218,-2.08816662851911,-0.616464484626535,-0.239505607690546
1580423492.45454,-1.34499122606241,-0.0690928511482412,0.749767299916076
1580423492.48691,-0.519783321889067,0.917250324254216,0.559334706645306
1580423492.51927,-0.52466620889601,1.57595178149081,-0.0935072861829553
1580423492.55163,0.237064164187075,0.634042877851531,-0.179934386205844
1580423492.58399,0.063721675440604,-0.556404974441138,-0.206790264744029
1580423492.61635,0.570565346761274,-1.41530479896239,0.693614099336234
1580423492.64872,-1.0383459220264,1.20680552376593,0.0681162737468526
1580423492.68108,-0.831799801632716,2.87870603494316,0.514412146181431
1580423492.71344,-0.364507515068285,1.32692454413672,0.352300297550926
1580423492.7458,-2.79179064621958,-0.576913099870298,-0.149172198062104
1580423492.77816,-2.88261234454871,0.495368886854351,-1.36745250629435
1580423492.81053,-0.781994354161899,2.54081025406272,0.761486228732739
1580423492.84289,0.51880674448768,0.154055085069047,1.96755931944762
1580423492.87525,-0.0358892195010299,0.338628213931486,0.783947508964676
1580423492.90761,-0.84596017395285,1.18287937743191,1.56765087357901
1580423492.93997,-1.07985046158541,-0.0295414663920042,0.972915236133364
1580423492.9725,-1.35768673228046,0.235599298084992,0.136476691844052
1580423493.00487,-2.03445487144274,0.559822995346,-0.385503929198139
1580423493.03723,-1.77859159227894,-0.417730983443962,-0.45288776989395
1580423493.06959,-1.43337148088808,-0.598886091401541,-0.539314869916838
1580423493.10195,-1.46071564812696,-0.567147325856412,-0.666269932097352
1580423493.13432,-1.22536049439231,-0.309330891889831,-0.396734569314107
1580423493.16668,-0.96217288471809,-0.0959487296864268,-0.253177691309988
1580423493.19904,-0.864026855878539,0.775646601052873,0.668223086900131
1580423493.2314,-0.970962081330587,0.698985275043871,1.06715495536736
1580423493.26376,-0.139894712748912,0.344975967040511,0.89381246662089
1580423493.29613,0.177004654001678,0.182375829709315,0.867444876783399
1580423493.32849,0.262943465323872,-0.034424353398947,0.310307469291217
1580423493.36085,-0.0280766002899213,0.844983596551462,0.379156176089111
1580423493.39321,-0.128175783932249,1.89382772564279,-0.211673151750972
1580423493.42558,-0.675547417410543,1.59841306172274,0.329839017318989
1580423493.45794,-1.27370107576104,-0.656504158083466,0.5256427862974
1580423493.4903,-1.48903639276722,-0.171145189593346,0.797619592584116
1580423493.52267,-0.515877012283513,2.03933775844968,0.0896009765774011
1580423493.55503,-1.10719462882429,0.582284275577937,0.513435568780043
1580423493.58739,-2.19900816357671,-2.75321583886473,-0.736095216296635
1580423493.61975,-0.595956359197375,1.81814297703517,0.860608834973679
1580423493.65211,0.686778057526514,-0.200442511635003,1.58767071030747
1580423493.68448,-0.806408789196613,0.726817730983445,0.129152361333638
1580423493.71684,-1.07692072938125,0.398687724116883,0.961196307316701
1580423493.7492,-0.866956588082704,0.974868390936141,1.17360189211871
1580423493.78156,-0.676523994811932,0.788830395971619,1.24635690852216
1580423493.81393,-1.20289921416037,0.795178149080645,1.09694056610971
1580423493.84629,-2.38406958113985,0.512458991378654,0.26392004272526
1580423493.87865,-1.96707103074693,-0.252201113908599,-0.832776379034105
1580423493.91102,-1.56667429617761,-0.51783016708629,-1.30739299610895
1580423493.94338,-1.27223620965896,-0.248783093003738,-0.830334935530633
1580423493.97574,-0.997329671168078,-0.200442511635003,-0.215579461356526
1580423494.0081,-0.759533073929962,-0.133058670939192,0.0715342946517126
1580423494.04046,-0.823987182421607,0.319096665903714,0.40064087891966
1580423494.07283,-0.682383459220263,0.555916685740446,0.55640497444114
1580423494.10519,-0.324467841611353,0.848889906157016,0.610116731517511
1580423494.13755,-0.00512703135728998,0.795666437781339,0.680918593118182
1580423494.16991,0.327885862516212,0.699473563744565,0.712657358663311
1580423494.20228,-0.0075684748607614,0.576424811169606,0.583260852979326
1580423494.23464,-0.330815594720379,0.406988632028686,0.643320363164722
1580423494.26721,-0.516365300984207,0.803967345693142,0.385503929198137
1580423494.29957,-1.07447928587777,1.68337529564355,0.443610284580757
1580423494.33194,-1.26393530174716,0.302006561379415,0.39038681620508
1580423494.3643,-1.23366140230411,-0.262943465323874,0.817639429312582
1580423494.39666,-0.606210421911955,0.744884412909133,0.424078736552985
1580423494.42902,-0.197512779430838,1.07301441977569,0.129640650034332
1580423494.46139,-1.94119172961013,-1.78835736629282,-0.751720454718853
1580423494.49375,-0.960219729915313,1.11305409323262,0.682383459220265
1580423494.52611,1.0207675288014,0.472907606622414,2.5759670405127
1580423494.55847,0.0363775082017241,0.95875486381323,1.21168841077287
1580423494.59084,-0.652597848477912,0.192629892423895,1.35817502098115
1580423494.6232,-0.676523994811932,0.694102388036928,1.20485236896315
1580423494.65556,-0.740978103303577,0.742442969405662,1.07399099717708
1580423494.68792,-1.29665064469368,0.537361715114063,0.952895399404898
1580423494.72029,-1.94314488441291,0.744884412909133,0.480720225833522
1580423494.75265,-1.76052491035325,-0.148683909361409,-0.0944838635843439
1580423494.78501,-1.49098954757,-0.368902113374533,-0.823010605020219
1580423494.81737,-1.43337148088808,-0.462653543907836,-1.12867933165484
1580423494.84974,-1.25563439383536,-0.242435339894712,-0.726817730983443
1580423494.8821,-1.04469367513542,-0.0939955748836496,0.0163576714732585
1580423494.91446,-1.00660715648127,0.170168612191958,0.208743419546806
1580423494.94682,-0.926527809567407,0.277103837644006,0.61792935072862
1580423494.97919,-0.730235751888303,0.728282597085528,0.554451819638363
1580423495.01155,-0.23999389639124,0.889417868314641,0.823010605020219
1580423495.04391,0.31519035629816,0.689219501029985,0.848889906157016
1580423495.07627,0.363530937666894,0.488532845044631,0.610116731517511
1580423495.10864,-0.0842298008697639,0.489509422446019,0.292729076066223
1580423495.141,-0.475349050125887,0.698496986343176,0.502204928664074
1580423495.17336,-0.443610284580759,1.21022354467079,0.672617685206379
1580423495.20572,-1.08570992599374,1.41042191195544,0.303471427481497
1580423495.23809,-0.963637750820173,-0.177004654001678,1.17311360341802
1580423495.27045,-0.535896849011978,0.90064850843061,0.321049820706492
1580423495.30281,-0.857190814068819,1.17994964522774,0.218020904859998
1580423495.33517,-3.55645075150683,-2.50321202410925,-0.263431754024568
1580423495.36753,-0.573006790264744,2.31570916304265,-0.256595712214848
1580423495.3999,0.0661631189440754,0.40405889982452,0.690196078431374
1580423495.43226,-1.03248645761807,1.49391927977416,1.21120012207217
1580423495.46462,-0.627206836041809,0.496833752956434,1.11842526894026
1580423495.49698,-0.74927901121538,0.906507972838941,1.07838559548333
1580423495.52935,-0.950453955901427,0.620370794232091,1.06178377965972
1580423495.56186,-1.65847257190814,0.47925535973144,0.810315098802167
1580423495.59422,-2.28006408789197,0.0896009765774011,0.161379415579461
1580423495.62659,-1.67312123292897,-0.549080643930724,-0.649668116273746
1580423495.65895,-1.64187075608453,-0.505134660868238,-1.29323262378882
1580423495.69131,-1.49684901197833,-0.433356221866179,-0.693614099336232
1580423495.72367,-1.18825055313954,-0.0397955291065841,-0.0231937132829785
1580423495.75604,-0.865003433279927,0.395757991912717,0.0905775539787896
1580423495.7884,-0.731212329289692,0.675059128709851,0.33228046082246
1580423495.82076,-0.558358129243915,0.977798123140307,0.588632028686963
1580423495.85312,0.00708018616006711,0.915785458152133,0.742442969405662
1580423495.88549,0.599374380102237,0.521736476691846,0.740978103303579
1580423495.91785,0.456305790798808,0.493415732051574,0.516853589684903
1580423495.95021,-0.0646982528419926,0.39038681620508,0.40747692072938
1580423495.98258,-0.37427328908217,0.293705653467612,0.550545510032808
1580423496.01494,-0.689707789730678,0.807385366598002,0.467048142214082
1580423496.0473,-1.32106507972839,2.10672159914549,0.169680323491264
1580423496.07967,-1.19508659494926,-0.355718318455787,1.27418936446174
1580423496.11203,-0.697520408941786,0.81177996490425,0.38696879530022
1580423496.14439,-0.589608606088349,1.16969558251316,0.254154268711375
1580423496.17675,-2.62821393148699,-2.30154879072252,-0.563241016250858
1580423496.20912,-0.996841382467384,2.11648737315938,0.805920500495919
1580423496.24148,1.01979095140002,0.615976195925843,1.43630121309224
1580423496.27384,-0.475349050125887,1.04469367513542,1.37233539330129
1580423496.30621,-0.740978103303577,0.317631799801632,0.983169298847944
1580423496.33857,-0.688242923628595,1.07399099717708,1.0124666208896
1580423496.37093,-0.834241245136187,0.61451132982376,1.18727397573815
1580423496.4033,-1.51345082780194,0.43482108796826,0.982192721446555
1580423496.43566,-2.23855954833295,0.35620660715648,0.209231708247501
1580423496.46802,-1.81960784313726,-0.560311284046692,-0.768322270542459
1580423496.50038,-1.80056458381018,-0.726329442282749,-1.54079499504082
1580423496.53275,-1.55349050125887,-0.332280460822462,-0.994888227664607
1580423496.56511,-1.16139467460136,-0.219974059662775,-0.0935072861829553
1580423496.59747,-0.776134889753568,0.275638971541923,0.0847180895704582
1580423496.62984,-0.867933165484093,0.603280689707791,0.462653543907834
1580423496.6622,-0.552986953536278,0.639902342259862,0.908461127641718
1580423496.69456,-0.0881361104753182,0.657969024185551,0.977309834439613
1580423496.72692,0.442145418478674,0.30835431448844,0.750255588616771
1580423496.75929,0.264408331425955,0.356694895857174,0.567635614557108
1580423496.79165,-0.0676279850461583,0.753185320820936,0.344975967040511
1580423496.82401,-0.229739833676661,0.86305027847715,0.51880674448768
1580423496.85654,-0.703868162050812,1.36012817578393,0.38696879530022
1580423496.8889,-1.28444342717632,0.882093537804227,0.502693217364769
1580423496.92126,-1.21901274128328,-0.115968566414892,1.01197833218891
1580423496.95363,-0.551522087434195,1.12281986724651,0.367925535973143
1580423496.98599,-1.1750667582208,0.771740291447319,0.0842298008697639
1580423497.01835,-2.83085374227512,-1.7556420233463,0.0305180437933927
1580423497.05072,-0.90406652933547,2.66434729533837,-0.0725108720531011
1580423497.08308,-0.0632333867399097,0.637949187457085,0.59742122529946
1580423497.11544,-0.883070115205616,1.16774242771038,1.12428473334859
1580423497.14781,-0.808850232700085,0.515877012283514,1.12867933165484
1580423497.18017,-0.715587090867475,1.07740901808194,1.05934233615625
1580423497.21253,-1.16041809719997,0.530525673304343,0.980727855344472
1580423497.2449,-1.76638437476158,0.402105745021743,0.589608606088351
1580423497.27726,-1.76784924086366,0.0729991607537954,-0.0114747844663157
1580423497.30962,-1.29958037689784,-0.272709239337759,-0.757579919127185
1580423497.34199,-1.38454261081865,-0.232669565880826,-1.11696040283818
1580423497.37435,-1.3625696192874,-0.263920042725262,-0.710704203860532
1580423497.40671,-1.0896162355993,-0.0642099641412983,-0.027588311589227
1580423497.43908,-1.03932249942779,0.104737926298924,0.337651636530097
1580423497.47144,-0.887464713511864,0.37671473258564,0.713145647364005
1580423497.5038,-0.599862668802929,0.570565346761274,0.419195849546043
1580423497.53617,-0.187258716716258,0.947524223697261,0.677500572213322
1580423497.56853,0.303959716182192,1.0124666208896,0.790783550774396
1580423497.60089,0.433844510566871,0.596932936598765,0.538826581216146
1580423497.63326,0.0139162279697871,0.476325627527274,0.364019226367589
1580423497.66562,-0.332768749523156,0.397711146715494,0.543709468223089
1580423497.69798,-0.713145647364003,0.175539787899595,0.651132982375831
1580423497.73035,-1.30153353170062,1.6281986724651,0.781506065461205
1580423497.76271,-1.15065232318608,-0.249759670405126,0.916273746852827
1580423497.79508,-0.71168078126192,0.99977111467155,0.506111238269629
1580423497.82744,-0.403570611123827,1.40358587014572,0.0935072861829553
1580423497.8598,-2.02420080872816,-1.87966735332265,-0.836682688639659
1580423497.89217,-0.838635843442436,0.81519798580911,1.12867933165484
1580423497.92453,1.20241092545968,-0.85963225757229,1.50905622949569
1580423497.95689,-0.423102159151599,1.11989013504234,0.901136797131304
1580423497.98926,-0.94508278019379,0.434332799267565,1.06178377965972
1580423498.02162,-0.739513237201495,0.577401388570994,1.25807583733883
1580423498.05398,-0.561776150148775,0.707774471656368,1.08473334859235
1580423498.08635,-1.13795681696803,0.721934843976502,0.977309834439613
1580423498.11871,-1.62380407415885,0.504158083466852,0.467048142214082
1580423498.15124,-2.12088197146563,-0.0871595330739297,0.0578622110322726
1580423498.18361,-1.45290302891585,-0.40845349813077,-0.627206836041809
1580423498.21597,-1.16285954070344,0.031006332494087,-1.39528496223392
1580423498.24834,-1.32448310063325,-0.45630579079881,-1.03297474631876
1580423498.2807,-1.33083085374228,-0.517341878385595,-0.193606469825284
1580423498.31306,-1.28102540627146,-0.0544441901274126,0.377691309987028
1580423498.34543,-1.1662775616083,0.125246051728084,0.745372701609828
1580423498.37779,-0.760021362630656,0.483161669336994,0.493904020752268
1580423498.41016,-0.187747005416952,0.926527809567407,0.720469977874419
1580423498.44252,0.424078736552985,0.966567483024338,0.747814145113299
1580423498.47488,0.523201342793929,0.854749370565347,0.653574425879302
1580423498.50725,0.063721675440604,0.574471656366828,0.452887769893948
1580423498.53961,-0.181887541008621,0.0793469138628211,0.478278782330051
1580423498.57197,-0.323979552910659,0.310307469291217,0.674570840009157
1580423498.60434,-1.0129549095903,2.1150225070573,0.435309376668954
1580423498.6367,-1.14430457007706,1.02858014801251,0.772716868848708
1580423498.66907,-1.09742885481041,-0.431403067063401,1.07789730678263
1580423498.70143,-0.474372472724498,0.538826581216146,0.609628442816817
1580423498.73379,-0.796154726482033,0.783947508964676,-0.680430304417486
1580423498.76616,-1.29616235599298,0.284916456855115,0.901625085831999
1580423498.79852,0.0817883573662925,0.349858854047454,1.69265278095674
1580423498.83089,-0.345464255741208,-0.156496528572518,0.027588311589227
1580423498.86325,-0.795666437781339,0.830334935530633,0.828381780727856
1580423498.89561,-0.778576333257039,0.871351186388953,1.13405050736248
1580423498.92798,-0.814221408407722,0.626718547341117,1.09108110170138
1580423498.96034,-1.14821087968261,0.618905928130008,0.843030441748684
1580423498.99271,-1.47243457694362,0.467536430914777,0.661875333791105
1580423499.02507,-2.09842069123369,-0.000244144350347142,0.265384908827343
1580423499.05743,-1.28883802548257,-0.367925535973145,-0.436774242771039
1580423499.0898,-1.39040207522698,-0.198001068131532,-1.31227588311589
1580423499.12216,-1.37770656900893,-0.257084000915542,-1.00465400167849
1580423499.15453,-1.15211718928817,-0.381597619592585,-0.215579461356526
1580423499.18689,-1.08570992599374,-0.0734874494544897,0.230716411078049
1580423499.21925,-1.20192263675898,0.476325627527274,0.636484321355002
1580423499.25162,-0.913344014648661,0.502693217364769,0.745860990310522
1580423499.28398,-0.474372472724498,0.812268253604945,0.867444876783399
1580423499.31634,0.245365072098878,0.671152819104297,0.647714961470971
1580423499.34871,0.371343556878003,0.61792935072862,0.369390402075226
1580423499.38107,0.0231937132829785,1.16041809719997,0.177492942702372
1580423499.41344,-0.077393759060044,0.987075608453498,0.176028076600289
1580423499.44598,-0.564217593652247,0.769298847943848,0.795178149080645
1580423499.47835,-1.31618219272145,0.788830395971619,0.664316777294577
1580423499.51071,-1.23219653620203,0.372808422980086,1.14869916838331
1580423499.54307,-0.646738384069581,0.628671702143894,0.608651865415428
1580423499.57544,-1.17604333562219,0.899183642328527,0.0661631189440754
1580423499.6078,-2.94901960784314,-1.40065613794156,-0.249759670405126
1580423499.64017,-0.930922407873656,2.72391851682307,0.334233615625237
1580423499.67253,0.228763256275272,0.268314641031509,1.1916685740444
1580423499.7049,-0.690196078431372,0.920180056458381,1.54958419165332
1580423499.73726,-0.464606698710613,-0.168703746089875,1.19752803845273
1580423499.76962,-0.709239337758449,0.704844739452202,1.11451895933471
1580423499.80199,-0.775158312352179,0.698008697642482,1.10377660791943
1580423499.83435,-1.337666895552,0.501228351262686,0.860120546272984
1580423499.86671,-1.63552300297551,0.509040970473794,0.4314030670634
1580423499.89908,-1.91531242847334,-0.0588387884336612,-0.0607919432364383
1580423499.93144,-1.55788509956512,-0.291264209964142,-0.622323949034866
1580423499.96381,-1.58864728770886,-0.468024719615473,-1.05348287174792
1580423499.99617,-1.32301823453117,-0.265384908827345,-0.653574425879301
1580423500.02853,-1.12623788815137,-0.223880369268329,0.103761348897535
1580423500.0609,-1.05250629434653,0.44507515068284,0.597909514000154
1580423500.09326,-0.90064850843061,0.627695124742505,0.477790493629357
1580423500.12562,-0.495857175555047,0.709239337758451,0.554940108339057
1580423500.15799,0.0485847257190812,0.898207064927139,0.81519798580911
1580423500.19035,0.610116731517511,0.725841153582056,0.796643015182728
1580423500.22272,0.26392004272526,0.342046234836346,0.344975967040511
1580423500.25508,-0.0949721522850382,0.482673380636299,0.170656900892652
1580423500.28744,-0.430914778362707,0.709727626459145,0.554940108339057
1580423500.31981,-0.875257495994507,0.846936751354239,0.231692988479438
1580423500.35217,-1.36159304188602,0.91432059205005,0.427496757457845
1580423500.38454,-1.21852445258259,-0.536385137712672,0.928480964370184
1580423500.4169,-0.913344014648661,1.35133897917143,0.432867933165483
1580423500.44926,-1.29860379949645,0.917250324254216,-0.0563973449301898
1580423500.48163,-2.38944075684749,-0.857679102769513,0.373785000381474
1580423500.51399,-0.601327534905012,2.51346608682384,0.674570840009157
1580423500.54636,-0.117433432516975,0.390875104905774,0.528084229800871
1580423500.57872,-1.00904859998474,1.17409018081941,1.69069962615396
1580423500.61108,-0.508064393072404,0.198001068131532,1.10133516441596
1580423500.64345,-0.610116731517509,0.778088044556345,1.17555504692149
1580423500.67581,-0.827893492027162,0.682871747920959,1.0466468299382
1580423500.70817,-1.50710307469291,0.47925535973144,0.714610513466088
1580423500.74072,-1.93337911039902,0.348393987945371,0.185305561913481
1580423500.77309,-1.59450675211719,-0.209719996948195,-0.196536202029449
1580423500.80545,-1.38210116731518,-0.241458762493323,-0.795666437781339
1580423500.83782,-1.48171206225681,-0.38110933089189,-0.93824673838407
1580423500.87018,-1.17555504692149,-0.434821087968261,-0.575448233768215
1580423500.90254,-0.85963225757229,-0.138429846646829,0.0075684748607614
1580423500.93491,-1.01588464179446,0.478278782330051,0.706797894254979
1580423500.96727,-0.974868390936141,0.714122224765394,0.534920271610591
1580423500.99964,-0.471442740520333,0.515877012283514,0.526619363698789
1580423501.032,0.00415045395590141,0.809338521400779,0.743907835507745
1580423501.06437,0.274662394140535,0.82203402761883,0.805920500495919
1580423501.09673,-0.128175783932249,0.443610284580757,0.391851682307163
1580423501.12909,-0.435309376668956,0.695567254139011,0.258060578316929
1580423501.16146,-0.596444647898069,0.842053864347296,0.470954451819637
1580423501.19382,-0.416266117341879,0.692149233234151,0.252689402609292
1580423501.22619,-1.15407034409094,1.53151750972763,0.469977874418248
1580423501.25855,-1.08570992599374,0.413824673838405,0.753673609521631
1580423501.29092,-0.581307698176547,0.337163347829403,0.90748455024033
1580423501.32328,-1.45094987411307,0.44507515068284,0.645761806668194
1580423501.35564,-2.25418478675517,-0.90406652933547,0.572518501564051
1580423501.38801,-0.607186999313344,2.31717402914473,0.950453955901427
1580423501.42037,-0.198977645532921,-0.470466163118944,-0.535896849011978
1580423501.45274,-1.04029907682918,0.60767528801404,0.922621499961853
1580423501.4851,-0.702891584649423,0.83570611123827,1.1067063401236
1580423501.51747,-0.81177996490425,0.921644922560464,1.10280003051804
1580423501.54983,-1.04469367513542,0.573983367666134,1.06471351186389
1580423501.5822,-1.68874647135119,0.530525673304343,0.591561760891128
1580423501.61456,-1.89382772564279,0.0861829556725411,-0.0461432822156098
1580423501.64692,-1.33815518425269,-0.321049820706493,-0.697520408941786
1580423501.67929,-1.38600747692073,-0.278568703746091,-1.00660715648127
1580423501.71165,-1.30641641870756,-0.338139925230793,-1.0212558175021
1580423501.74402,-1.05006485084306,-0.287846189059282,-0.437262531471733
1580423501.77638,-1.0471351186389,0.120851453421835,0.136476691844052
1580423501.80875,-1.26637674525063,0.675547417410545,0.833264667734799
1580423501.84111,-0.869398031586176,0.39038681620508,0.83228809033341
1580423501.87347,-0.35376516365301,0.555916685740446,0.79468986037995
1580423501.90584,0.181399252307926,0.736095216296636,0.821545738918136
1580423501.9382,0.356694895857174,0.834729533836882,0.572030212863357
1580423501.97057,0.0588387884336612,0.925062943465324,0.323002975509269
1580423502.00293,-0.0134279392690928,0.606210421911957,0.413824673838405
1580423502.03558,-0.313725490196079,0.169680323491264,0.637949187457085
1580423502.06795,-0.963637750820173,1.4651102464332,0.797619592584116
1580423502.10031,-1.13356221866178,0.957778286411841,0.798596169985505
1580423502.13268,-1.04518196383612,0.547615777828643,0.878675516899367
1580423502.16504,-0.271732661936371,0.750743877317465,0.523689631494623
1580423502.19741,-1.13795681696803,-0.455329213397421,-0.40845349813077
1580423502.22977,-2.31863889524682,-0.163820859082932,0.596932936598765
1580423502.26214,-0.250736247806516,1.36403448538949,0.65552758068208
1580423502.2945,-0.48023193713283,0.796154726482033,0.32544441901274
1580423502.32687,-0.806897077897307,0.534920271610591,1.31960021362631
1580423502.35923,-0.769298847943848,0.582284275577937,1.19948119325551
1580423502.3916,-0.622323949034866,0.775158312352179,0.984145876249332
1580423502.42396,-1.04225223163195,0.550545510032808,0.959731441214618
1580423502.45633,-1.66286717021439,0.503181506065463,0.580819409475854
1580423502.48869,-2.06521705958648,0.167727168688486,0.0778820477607383
1580423502.52106,-1.71218432898451,-0.467536430914778,-0.640878919661249
1580423502.55342,-1.45973907072557,-0.304448004882888,-1.39772640573739
1580423502.58578,-1.24586861982147,-0.285404745555811,-0.800061036087587
1580423502.61815,-1.02174410620279,-0.394293125810636,-0.137941557946135
1580423502.65051,-0.913344014648661,0.113527122911421,0.329839017318989
1580423502.68288,-1.09596398870832,0.666758220798048,0.535408560311286
1580423502.71525,-0.702891584649423,0.50513466086824,0.661875333791105
1580423502.74761,-0.325444419012742,0.773693446250096,0.923598077363241
1580423502.77997,0.210208285648889,0.630624856946671,0.86646829938201
1580423502.81234,0.279056992446783,0.39038681620508,0.547127489127949
1580423502.8447,-0.152590218966964,0.705821316853591,0.208743419546806
1580423502.87707,-0.291752498664836,0.964614328221561,0.465094987411305
1580423502.90943,-0.242435339894712,0.836682688639659,0.476325627527274
1580423502.9418,-1.15260547798886,1.65993743801022,0.558846417944611
1580423502.97416,-1.03150988021668,-0.173586633096818,1.0036774242771
1580423503.00653,-0.795666437781339,1.12721446555276,0.576424811169606
1580423503.03889,-0.920668345159076,0.956801709010453,0.375249866483557
1580423503.07126,-2.41922636758984,-2.30496681162738,-0.187747005416952
1580423503.10362,-0.545662623025864,1.52809948882277,-0.0183108262760356
1580423503.13599,0.771740291447319,1.13990997177081,2.22439917601282
1580423503.16835,-0.630136568245975,0.585214007782103,1.37917143511101
1580423503.20072,-0.631113145647364,-0.275638971541925,1.31081101701381
1580423503.23308,-0.725841153582055,1.00123598077363,1.16725413900969
1580423503.26545,-0.879652094300756,0.710704203860534,1.09303425650416
1580423503.29781,-1.49587243457694,0.451422903791865,0.741954680704968
1580423503.33032,-1.88503852903029,0.332768749523154,0.171633478294041
1580423503.36269,-1.61843289845121,-0.252201113908599,-0.218997482261386
1580423503.39505,-1.28200198367285,-0.436774242771039,-0.912855725947967
1580423503.42741,-1.34450293736172,-0.24682993820096,-1.0212558175021
1580423503.45978,-1.17360189211871,-0.342046234836348,-0.449958037689784
1580423503.49214,-1.01734950789654,-0.174074921797512,0.11450370031281
1580423503.52451,-0.885511558709087,0.469489585717554,0.47925535973144
1580423503.55687,-0.765880827038988,0.545174334325171,0.569588769359886
1580423503.58924,-0.704356450751506,0.868909742885482,0.638925764858474
1580423503.6216,-0.113527122911421,1.05641260395209,0.765392538338293
1580423503.65397,0.163332570382238,0.666269932097354,0.869398031586176
1580423503.68633,0.0202639810788128,0.167727168688486,0.494880598153657
1580423503.71869,-0.454840924696727,0.455817502098114,0.0900892652780954
1580423503.75106,-0.594003204394598,1.149187457084,0.28442816815442
1580423503.78342,-0.201907377737086,0.760997940032045,0.149172198062104
1580423503.81579,-0.912855725947967,0.997817959868772,0.89039444571603
1580423503.84815,-0.966079194323644,-0.137453269245441,0.950942244602121
1580423503.88052,-0.191653315022506,1.02223239490349,0.795178149080645
1580423503.91288,-1.9187304493782,0.655039291981385,0.222903791866941
1580423503.94525,-2.99394216830701,0.0158693827725642,0.347417410543983
1580423503.97761,-0.367925535973145,2.55448233768216,1.36549935149157
1580423504.00997,-0.0607919432364383,-0.00366216525520713,-0.406500343327993
1580423504.04234,-1.08717479209583,1.20973525597009,1.65017166399634
1580423504.0747,-0.365972381170367,0.0852063782711525,1.19948119325551
1580423504.10707,-0.761974517433433,0.542244602121006,1.13405050736248
1580423504.13943,-0.870374608987564,0.539803158617534,1.08424505989166
1580423504.17179,-1.68825818265049,0.56665903715572,0.6110933089189
1580423504.20416,-2.09353780422675,0.0471198596169984,0.0686045624475469
1580423504.23652,-1.46999313344015,-0.543221179522392,-0.471442740520333
1580423504.26889,-1.42848859388113,-0.36743724727245,-1.11549553673609
1580423504.30125,-1.23805600061036,-0.375738155184253,-0.853284504463264
1580423504.33362,-0.941176470588236,-0.376226443884947,-0.155519951171129
1580423504.36598,-0.71168078126192,0.00415045395590141,0.188235294117646
1580423504.39835,-0.888929579613947,0.604745555809874,0.603768978408485
1580423504.43071,-0.912367437247273,0.820080872816053,0.620859082932785
1580423504.46307,-0.543709468223087,0.847913328755627,0.628671702143894
1580423504.49544,0.0173342488746471,0.681406881818877,0.704844739452202
1580423504.5278,0.258060578316929,0.654062714579997,0.676523994811934
1580423504.56017,-0.181887541008621,0.567147325856414,0.321538109407186
1580423504.59253,-0.323979552910659,0.63843747615778,0.0925307087815668
1580423504.62515,-0.639902342259861,0.974380102235447,0.742442969405662
1580423504.65752,-0.501228351262684,0.456794079499502,0.758556496528573
1580423504.68988,-1.15016403448539,0.896253910124361,1.04908827344167
1580423504.72225,-0.868909742885482,0.488044556343937,0.97926298924239
1580423504.75461,-0.0515144579232469,1.26979476615549,0.478278782330051
1580423504.78698,-1.3713588158999,0.58716716258488,-0.0451667048142212
1580423504.81934,-1.95486381322957,-0.595468070496681,1.24098573281453
1580423504.85171,-0.320073243305105,1.86404211490044,-0.153566796368352
1580423504.88407,-0.455817502098116,1.18727397573815,-0.281010147249562
1580423504.91644,-0.95875486381323,0.460212100404362,1.58181124589914
1580423504.9488,-0.588143739986267,0.144777599755855,1.25807583733883
1580423504.98117,-0.623300526436255,1.04127565423056,1.02760357061112
1580423505.01353,-0.945571068894484,0.764415960936905,1.04029907682918
1580423505.04589,-1.54763103685054,0.487067978942548,0.826428625925079
1580423505.07826,-2.26639200427253,0.216067750057221,0.260990310521095
1580423505.11063,-1.59694819562066,-0.356206607156482,-0.671641107804989
1580423505.14299,-1.38551918822004,-0.146730754558632,-1.31276417181659
1580423505.17535,-1.42751201647974,-0.683360036621652,-1.20289921416037
1580423505.20772,-1.26344701304646,-0.670664530403601,-0.338628213931488
1580423505.24008,-0.958266575112535,-0.216067750057221,0.345464255741206
1580423505.27245,-1.21510643167773,0.582284275577937,0.833264667734799
1580423505.30481,-0.647226672770275,0.308842603189134,0.530037384603649
1580423505.33718,-0.288334477759976,0.85279621576257,0.828381780727856
1580423505.36954,0.241947051194018,0.984634164950027,0.759044785229268
1580423505.40191,0.415777828641183,0.6110933089189,0.667246509498742
1580423505.43427,-0.0178225375753414,0.490974288548102,0.369390402075226
1580423505.46664,-0.330327306019685,0.484138246738382,0.354253452353703
1580423505.499,-0.402105745021744,0.419684138246737,0.977309834439613
1580423505.53137,-0.740489814602883,1.65017166399634,0.692149233234151
1580423505.56373,-1.08863965819791,1.26979476615549,0.841077286945907
1580423505.5961,-0.868909742885482,0.112550545510032,1.02858014801251
1580423505.62846,-0.36401922636759,0.800549324788282,0.286381322957197
1580423505.66083,-1.26540016784924,0.700938429846648,-0.0632333867399097
1580423505.69319,-2.04275577935454,-0.137941557946135,1.45534447241932
1580423505.72556,0.497322041657128,0.385015640497443,0.534920271610591
1580423505.75792,-0.0661631189440754,1.07008468757153,-0.573983367666132
1580423505.79029,-0.872327763790341,0.687266346227208,1.23366140230411
1580423505.82265,-0.757091630426491,0.297123674372472,1.15602349889372
1580423505.85502,-0.758068207827879,0.958266575112535,1.04615854123751
1580423505.88738,-1.11256580453193,0.795666437781339,0.891859311818113
1580423505.91992,-1.67800411993591,0.40064087891966,0.571541924162663
1580423505.95229,-2.15359731441215,-0.167727168688486,0.116945143816281
1580423505.98465,-1.26686503395132,-0.581307698176547,-0.665781643396658
1580423506.01702,-1.24684519722286,0.136964980544747,-1.18043793392843
1580423506.04938,-1.22487220569161,-0.278568703746091,-0.817151140611887
1580423506.08175,-1.15700007629511,-0.669687953002212,-0.189700160219729
1580423506.11411,-1.03053330281529,-0.0969253070878153,0.467048142214082
1580423506.14648,-1.31715877012284,0.718516823071642,0.555916685740446
1580423506.17884,-0.709239337758449,0.404547188525214,0.740001525902191
1580423506.21121,-0.191165026321812,0.942153047989624,0.995864805065995
1580423506.24357,0.207278553444723,0.808850232700085,0.879163805600061
1580423506.27594,0.3630426489662,0.492927443350879,0.482673380636299
1580423506.30831,-0.111573968108644,0.774670023651485,0.34253452353704
1580423506.34067,-0.214114595254443,0.726329442282751,0.149660486762798
1580423506.37304,-0.560799572747387,0.810315098802167,0.488532845044631
1580423506.4054,-0.74927901121538,1.06617837796597,0.585702296482797
1580423506.43777,-1.21705958648051,0.770275425345236,1.07154955367361
1580423506.47013,-0.939223315785458,0.702403295948731,0.761486228732739
1580423506.5025,-0.44605172808423,0.624277103837645,0.575936522468911
1580423506.53486,-0.978286411841001,0.321538109407186,-0.172610055695429
1580423506.56723,-2.72343022812238,-0.571053635461967,0.877210650797284
1580423506.59959,-1.37282368200198,2.79374380102236,-0.195559624628061
1580423506.63196,0.0295414663920042,0.591561760891128,1.0383459220264
1580423506.66432,-0.778576333257039,0.805920500495919,1.51882200350958
1580423506.69669,-0.581795986877241,0.3459525444419,1.08668650339513
1580423506.72905,-0.484138246738384,0.686289768825819,1.06910811017014
1580423506.76142,-0.761486228732739,0.725352864881362,1.05934233615625
1580423506.79378,-1.13551537346456,0.653086137178608,0.891371023117419
1580423506.82615,-1.86501869230182,0.409918364232851,0.5769130998703
1580423506.85852,-2.36795605401694,0.188235294117646,-0.187258716716258
1580423506.89088,-1.63894102388037,-0.572030212863355,-0.832776379034105
1580423506.92325,-1.40065613794156,-0.574959945067521,-1.25368123903258
1580423506.95561,-1.16383611810483,-0.105226214999618,-0.644785229266803
1580423506.98798,-1.16237125200275,-0.220950637064163,0.135988403143358
1580423507.02034,-1.03248645761807,0.0969253070878153,0.598397802700848
1580423507.05271,-0.901136797131304,0.500251773861297,0.448981460288394
1580423507.08507,-0.519783321889067,0.884534981307699,0.510017547875183
1580423507.11744,-0.0153810940718699,1.14576943617914,0.753185320820936
1580423507.1498,0.364019226367589,0.829358358129245,0.723399710078585
1580423507.18217,0.28784618905928,0.42798504615854,0.488044556343937
1580423507.21475,-0.221927214465552,0.428473334859234,0.155519951171129
1580423507.24712,-0.328374151216908,0.570565346761274,0.249759670405126
1580423507.27948,-0.508064393072404,0.628671702143894,0.572518501564051
1580423507.31185,-1.08375677119097,1.15114061188678,0.304448004882886
1580423507.34421,-1.28200198367285,1.05885404745556,0.647226672770277
1580423507.37658,-0.660898756389715,-0.402105745021744,1.51589227130541
1580423507.40894,-0.337651636530099,0.927504386968796,0.40405889982452
1580423507.44131,-2.1487144274052,-0.493415732051576,-1.19606317235065
1580423507.47367,-0.452399481193256,1.25123979552911,0.128664072632944
1580423507.50604,0.573006790264746,-0.808850232700085,3.11113145647364
1580423507.5384,-0.399176012817579,0.82887006942855,0.0046387426565957
1580423507.57077,-0.810803387502862,1.08033875028611,1.02858014801251
1580423507.60314,-0.503669794766155,0.36646066987106,1.11110093842985
1580423507.6355,-0.685313191424429,0.684824902723737,1.0896162355993
1580423507.66787,-1.32204165712978,0.761486228732739,0.902601663233387
1580423507.70023,-1.84499885557336,0.374273289082169,0.379644464789806
1580423507.7326,-2.10476844434272,-0.194094758525978,-0.223392080567635
1580423507.76496,-1.42018768596933,-0.687266346227206,-0.91432059205005
1580423507.79733,-1.27418936446174,-0.283451590753033,-1.03883421072709
1580423507.82969,-1.27272449835966,-0.255619134813459,-0.501716639963378
1580423507.86206,-1.00172426947433,-0.40161745632105,-0.044678416113527
1580423507.89442,-1.00807202258335,0.320073243305103,0.583260852979326
1580423507.92679,-1.10475318532082,0.920668345159076,0.557381551842528
1580423507.95915,-0.462165255207141,0.800549324788282,0.567635614557108
1580423507.99152,0.037842374303807,0.922133211261158,0.64185549706264
1580423508.02389,0.382574196993971,0.912367437247273,0.666758220798048
1580423508.05625,0.32544441901274,0.545174334325171,0.385992217898831
1580423508.08862,-0.105226214999618,0.502693217364769,0.0896009765774011
1580423508.12098,-0.227298390173189,0.512947280079349,0.314702067597466
1580423508.15335,-0.616952773327229,0.513435568780043,0.807385366598002
1580423508.18571,-1.3630579079881,1.41774624246586,0.47241931792172
1580423508.21808,-1.19801632715343,1.11842526894026,0.928480964370184
1580423508.25044,-0.618417639429312,-0.0354009308003356,1.15260547798886
1580423508.28281,-0.238529030289158,0.77076371404593,0.435309376668954
1580423508.31517,-2.37869840543221,-0.671152819104295,-1.26100556954299
1580423508.34754,-0.809338521400779,2.18973067826352,-0.400640878919662
1580423508.3799,0.382085908293277,0.560311284046694,3.19267566948959
1580423508.41227,-0.240970473792629,0.161379415579461,1.11256580453193
1580423508.44463,-1.04615854123751,0.715587090867476,0.918715190356298
1580423508.477,-0.720469977874417,0.838635843442436,1.10914778362707
1580423508.50961,-0.827405203326467,0.543221179522394,1.0295567254139
1580423508.54198,-1.25563439383536,0.635996032654308,0.736095216296636
1580423508.57434,-1.81814297703517,0.310307469291217,0.367925535973143
1580423508.60671,-1.84597543297475,-0.368413824673839,-0.0822766460669868
1580423508.63908,-1.42604715037766,-0.591561760891127,-0.981216144045167
1580423508.67144,-1.2942092011902,-0.153566796368352,-1.3801480125124
1580423508.70381,-1.30006866559854,-0.484138246738384,-0.620859082932784
1580423508.73617,-1.17262531471733,-0.666269932097352,-0.114991989013504
1580423508.76854,-1.01149004348821,0.211673151750972,0.571541924162663
1580423508.8009,-1.25514610513466,1.21120012207217,0.856702525368124
1580423508.83327,-0.444098573281453,0.783459220263982,0.594979781795988
1580423508.86564,-0.077393759060044,0.837170977340353,0.796643015182728
1580423508.898,0.489997711146714,0.706309605554285,0.701915007248036
1580423508.93037,0.626230258640422,0.262455176623178,0.538826581216146
1580423508.96273,0.0173342488746471,0.330815594720377,0.234622720683603
1580423508.9951,-0.302006561379416,0.444586861982145,0.253177691309986
1580423509.02746,-0.578866254673075,0.2605020218204,0.746349279011216
1580423509.05983,-1.26491187914855,1.39137865262837,0.598886091401543
1580423509.0922,-1.2092469672694,0.409918364232851,1.15602349889372
1580423509.12456,-0.968520637827115,0.779552910658428,0.702891584649425
1580423509.15693,-0.481696803234913,1.54372472724499,0.254642557412069
1580423509.18929,-1.32497138933394,-1.46120393682765,-1.27418936446174
1580423509.22166,-1.51882200350957,0.630624856946671,1.03297474631876
1580423509.25403,1.03981078812848,-0.239017318989852,1.47048142214084
1580423509.28639,-0.540291447318227,0.799572747386893,0.0485847257190812
1580423509.31876,-1.1750667582208,0.661875333791105,0.737071793698025
1580423509.35112,-0.719005111772335,0.693614099336234,1.15992980849927
1580423509.38349,-0.570077058060578,0.621835660334174,1.09645227740902
1580423509.41585,-1.33522545204852,0.744884412909133,0.829358358129245
1580423509.44822,-1.75808346684978,0.40064087891966,0.480231937132828
1580423509.48059,-2.13992523079271,-0.281010147249562,-0.000244144350347142
1580423509.51295,-1.44753185320821,-0.592538338292515,-0.976821545738918
1580423509.54532,-1.33278400854505,-0.228763256275272,-1.37770656900893
1580423509.57768,-1.30153353170062,-0.330815594720379,-0.599374380102235
1580423509.61005,-1.01490806439307,-0.56226443884947,-0.196047913328755
1580423509.64242,-0.863538567177844,-0.0217288471808956,0.528572518501566
1580423509.67478,-1.27565423056382,1.10865949492637,0.881605249103533
1580423509.70715,-0.605722133211261,1.11061264972915,0.528084229800871
1580423509.73951,-0.0153810940718699,0.820080872816053,0.798596169985505
1580423509.77188,0.383062485694666,0.673105973907074,0.871839475089647
1580423509.8045,0.388433661402303,0.279545281147477,0.548592355230031
1580423509.83687,-0.265384908827345,0.178469520103761,0.211673151750972
1580423509.86924,-0.276127260242619,0.901625085831999,0.221927214465552
1580423509.9016,-0.530525673304341,1.45827420462348,0.56665903715572
1580423509.93397,-0.860608834973679,0.84596017395285,0.731212329289693
1580423509.96633,-1.42848859388113,-0.0319829098954756,1.32106507972839
1580423509.9987,-0.809338521400779,1.75027084763867,0.650156404974442
1580423510.03107,-0.604745555809872,0.707286182955674,0.196047913328755
1580423510.06343,-2.05008010986496,-2.36600289921416,-1.04274052033265
1580423510.0958,-0.570565346761272,1.42653543907835,1.18776226443885
1580423510.12817,1.52907606622416,-0.802990768291753,3.01298542763409
1580423510.16053,-0.635507743953612,0.913832303349356,0.250736247806515
1580423510.1929,-0.938735027084764,0.687754634927902,0.797619592584116
1580423510.22527,-0.557869840543221,0.635996032654308,1.19801632715343
1580423510.25763,-0.593514915693904,0.722911421377891,1.15944151979858
1580423510.29,-1.39626153963531,0.696055542839705,0.839612420843824
1580423510.32236,-1.57302204928664,0.551522087434197,0.486091401541159
1580423510.35473,-2.23953612573434,-0.191653315022506,0.141359578850995
1580423510.3871,-1.64773022049287,-0.529060807202258,-0.753673609521631
1580423510.41946,-1.27907225146868,-0.0832532234683754,-1.42800030518044
1580423510.45183,-1.31471732661936,-0.173098344396124,-0.761974517433433
1580423510.4842,-1.02662699320974,-0.620370794232089,-0.242923628595406
1580423510.51656,-0.963637750820173,0.105226214999618,0.605233844510568
1580423510.54893,-1.34401464866102,0.759533073929962,0.754650186923019
1580423510.5813,-0.813244831006333,0.524177920195317,0.581307698176548
1580423510.61366,-0.248294804303043,0.915785458152133,0.776134889753568
1580423510.64603,0.239017318989852,0.971450370031281,0.889906157015336
1580423510.67839,0.323979552910657,0.505622949568934,0.449469748989088
1580423510.71076,-0.178957808804455,0.446051728084228,0.184328984512092
1580423510.74313,-0.265384908827345,0.705821316853591,0.396734569314106
1580423510.77549,-0.238529030289158,0.657969024185551,0.571541924162663
1580423510.80786,-0.977309834439613,1.72585641260395,0.653086137178608
1580423510.84022,-1.22780193789578,0.605233844510568,0.932875562676433
1580423510.87259,-0.971938658731975,0.131105516136415,1.15651178759441
1580423510.90496,-0.339604791332876,1.15114061188678,0.379156176089111
1580423510.93732,-1.26979476615549,-0.0383306630045013,-0.610605020218204
1580423510.96969,-2.17312886243992,-0.145265888456549,1.17994964522774
1580423511.00206,0.791760128175785,0.0515144579232469,1.07301441977569
1580423511.03442,-0.315678644998856,1.18239108873121,-0.240970473792629
1580423511.06679,-0.758556496528573,0.27075608453498,1.31325246051728
1580423511.09943,-0.838147554741742,0.354253452353703,1.20094605935759
1580423511.13179,-0.637949187457084,0.994888227664607,0.867444876783399
1580423511.16416,-1.05104142824445,0.607186999313345,0.885511558709087
1580423511.19653,-1.55446707866026,0.452887769893948,0.62134737163348
1580423511.22889,-1.98220798046845,-0.00219729915312428,0.189211871519035
1580423511.26126,-1.53542381933318,-0.406012054627299,-0.509529259174487
1580423511.29363,-1.30934615091173,-0.136964980544747,-1.03443961242084
1580423511.32599,-1.23756771190967,-0.256107423514154,-0.699473563744563
1580423511.35836,-1.20289921416037,-0.647714961470969,-0.268314641031511
1580423511.39073,-0.939223315785458,-0.281986724650951,0.0393072404058898
1580423511.42309,-1.21217669947356,0.461676966506445,0.591561760891128
1580423511.45546,-1.19899290455482,1.41676966506447,0.83570611123827
1580423511.48783,-0.210696574349583,1.05836575875486,0.771740291447319
1580423511.52019,0.0393072404058898,0.637949187457085,0.775158312352179
1580423511.55256,0.419684138246737,0.443121995880063,0.763439383535516
1580423511.58493,0.0251468680857556,0.240482185091935,0.245853360799572
1580423511.61729,-0.236087586785686,0.496833752956434,0.0749523155565726
1580423511.64966,-0.370366979476616,1.09156939040207,0.621835660334174
1580423511.68203,-0.426520180056459,0.919691767757687,0.645761806668194
1580423511.71439,-1.28151369497215,0.732677195391776,0.771252002746625
1580423511.74676,-0.984145876249332,0.248294804303043,0.889417868314641
1580423511.77913,-0.596932936598764,2.0720531013962,0.0666514076447697
1580423511.81149,-1.17799649042496,-0.221927214465552,-0.157961394674601
1580423511.84386,-2.03982604715038,-0.758556496528573,0.684824902723737
1580423511.87623,-0.372320134279393,2.90507362478065,-0.448004882887007
1580423511.90859,-0.561776150148775,1.53200579842832,0.263431754024566
1580423511.94096,-0.969497215228504,-0.156008239871824,1.62429236285954
1580423511.97333,-0.564217593652247,-0.0866712443732354,1.30104524299992
1580423512.00569,-0.56910048065919,1.1833676661326,0.920668345159076
1580423512.03806,-0.939711604486153,0.809826810101473,1.00221255817502
1580423512.07043,-1.40798046845197,0.459235523002974,0.840100709544519
1580423512.10279,-1.61501487754635,0.406012054627297,0.37671473258564
1580423512.13516,-1.81863126573587,-0.308842603189136,0.0236820019836728
1580423512.16753,-1.61208514534218,-0.40503547722591,-0.875257495994507
1580423512.19989,-1.47975890745403,-0.547615777828641,-1.27223620965896
1580423512.23226,-1.29909208819715,-0.341557946135653,-0.641367208361943
1580423512.26463,-0.993423361562524,-0.247318226901655,-0.0505378805218584
1580423512.297,-1.11647211413748,0.635507743953614,0.574471656366828
1580423512.32936,-1.24098573281453,1.11305409323262,0.690684367132068
1580423512.36173,-0.511970702677958,0.452887769893948,0.912367437247273
1580423512.39435,0.144289311055161,0.296147096971083,1.08668650339513
1580423512.42671,0.458258945601585,0.300541695277332,0.862561989776456
1580423512.45908,-0.0383306630045013,0.469489585717554,0.109132524605172
1580423512.49145,-0.424567025253682,1.03395132372015,0.0822766460669868
1580423512.52381,-0.274174105439842,1.11256580453193,0.486091401541159
1580423512.55618,-0.404058899824522,1.19948119325551,0.54615091172656
1580423512.58855,-1.15407034409094,1.10084687571527,0.829358358129245
1580423512.62091,-0.664316777294575,0.450934615091171,1.05250629434653
1580423512.65328,-0.301029983978028,1.55495536736095,0.373785000381474
1580423512.68565,-1.74538796063172,-0.979751277943084,-0.0139162279697871
1580423512.71801,-1.91921873807889,-0.372808422980087,0.367437247272449
1580423512.75038,-0.0539559014267184,2.56131837949188,0.246341649500266
1580423512.78275,-0.351323720149539,1.29762722209506,-0.0539559014267184
1580423512.81512,-1.03248645761807,-0.0749523155565726,1.46364538033112
1580423512.84748,-0.698496986343175,0.126222629129472,1.20485236896315
1580423512.87985,-0.610116731517509,1.18532082093538,0.913344014648661
1580423512.91222,-0.896742198825056,0.707286182955674,0.944594491493095
1580423512.94458,-1.64187075608453,0.381597619592583,0.694590676737622
1580423512.97695,-2.01004043640803,0.232181277180132,0.198489356832226
1580423513.00932,-1.66579690241855,-0.436285954070344,-0.379644464789807
1580423513.04168,-1.24635690852216,-0.344487678339819,-1.1916685740444
1580423513.07405,-1.11549553673609,-0.32300297550927,-0.990981918059052
1580423513.10642,-1.15700007629511,-0.39478141451133,-0.264408331425956
1580423513.13878,-1.12428473334859,-0.36060120546273,0.275638971541923
1580423513.17115,-1.3283894102388,0.607186999313345,0.669199664301519
1580423513.20352,-1.15700007629511,0.846448462653544,0.599862668802931
1580423513.23588,-0.514900434882124,0.646738384069582,0.782970931563288
1580423513.26825,0.10083161669337,0.6452735179675,0.885999847409781
1580423513.30062,0.333745326924543,0.503181506065463,0.553963530937668
1580423513.33298,-0.171145189593346,0.460212100404362,0.224368657969023
1580423513.36535,-0.335698481727322,0.980727855344472,0.172121766994735
1580423513.39772,-0.466071564812696,0.647714961470971,0.703868162050814
1580423513.43008,-0.823498893720913,0.89723048752575,0.58033112077516
1580423513.46245,-1.20289921416037,0.954360265506981,0.851819638361182
1580423513.49482,-0.69800869764248,1.09938200961318,0.820080872816053
1580423513.52718,-0.447516594186313,1.00025940337224,0.289311055161363
1580423513.55955,-1.55739681086442,-1.22780193789578,-0.126222629129472
1580423513.59192,-0.90406652933547,0.784924086366065,0.764904249637599
1580423513.62428,0.663340199893188,0.377691309987028,2.54520485236896
1580423513.65665,-0.469489585717556,1.40993362325475,0.0334477759975584
1580423513.68927,-0.724864576180666,0.330327306019683,1.09010452429999
1580423513.72164,-0.572030212863355,0.4143129625391,1.15407034409094
1580423513.754,-0.644785229266803,1.16578927290761,1.04908827344167
1580423513.78637,-1.15260547798886,0.737560082398719,0.923598077363241
1580423513.81874,-1.66384374761578,0.261478599221789,0.569100480659191
1580423513.85111,-1.9612115663386,0.150637064164187,0.00805676356145568
1580423513.88347,-1.41286335545892,-0.187258716716258,-0.260013733119708
1580423513.91584,-1.23121995880064,-0.233646143282215,-1.0124666208896
1580423513.94821,-1.31374074921798,-0.303471427481499,-0.901136797131304
1580423513.98057,-1.25856412603952,-0.52808422980087,-0.388433661402305
1580423514.01294,-1.15407034409094,-0.260990310521096,0.245853360799572
1580423514.04531,-1.34059662775616,0.418707560845348,0.923598077363241
1580423514.07768,-0.87330434119173,0.683848325322348,0.594491493095294
1580423514.11004,-0.347905699244679,1.13649195086595,0.718028534370948
1580423514.14241,0.177981231403066,1.30690470740825,0.840588998245213
1580423514.17478,0.498298619058517,0.731700617990388,0.656504158083468
1580423514.20714,0.198977645532921,0.207766842145418,0.3972228580148
1580423514.23951,-0.181887541008621,0.297123674372472,0.285404745555809
1580423514.27188,-0.537361715114061,0.644785229266805,0.627695124742505
1580423514.30425,-0.660898756389715,1.08619821469444,0.408453498130768
1580423514.33661,-1.08570992599374,1.46315709163042,0.547615777828643
1580423514.36898,-0.997817959868772,-0.191653315022506,1.29958037689784
1580423514.40135,-0.468024719615473,1.35133897917143,0.509040970473794
1580423514.43372,-0.560311284046692,0.819592584115359,-0.53150225070573
1580423514.46608,-2.70487525749599,-1.04078736552987,1.23024338139925
1580423514.49845,-0.533455405508507,1.85183489738308,-0.296635385671779
1580423514.53082,-0.302494850080111,1.74831769283589,-0.194583047226672
1580423514.56318,-0.962661173418784,0.764904249637599,1.20485236896315
1580423514.59555,-0.601815823605707,0.115480277714198,1.33278400854505
1580423514.62792,-0.543709468223087,0.82203402761883,1.10914778362707
1580423514.66029,-0.846936751354239,0.861585412375067,1.05250629434653
1580423514.69265,-1.34059662775616,0.494880598153657,0.839612420843824
1580423514.72502,-1.81081864652476,0.269291218432897,0.356694895857174
1580423514.75739,-2.08181887541009,-0.288334477759976,-0.137941557946135
1580423514.78975,-1.50954451819638,-0.38452735179675,-0.993423361562524
1580423514.82212,-1.2863965819791,-0.350835431448845,-1.25270466163119
1580423514.85449,-1.26637674525063,-0.573006790264744,-0.694102388036926
1580423514.88686,-1.18483253223468,-0.300053406576639,0.0842298008697639
1580423514.91922,-1.15407034409094,0.670176241702908,0.664316777294577
1580423514.95159,-1.01051346608682,0.659433890287634,0.476325627527274
1580423514.98419,-0.498298619058518,0.471442740520331,0.771252002746625
1580423515.01656,0.113038834210727,0.499275196459905,0.884046692607004
1580423515.04893,0.492927443350879,0.349858854047454,0.824963759822996
1580423515.0813,0.0407721065079727,0.54615091172656,0.42798504615854
1580423515.11366,-0.404547188525216,0.717540245670254,0.181887541008621
1580423515.14603,-0.567635614557107,0.802502479591059,0.553475242236974
1580423515.1784,-0.620859082932784,1.21315327687495,0.677012283512628
1580423515.21076,-1.01783779659724,1.07545586327916,0.824963759822996
1580423515.24313,-0.885023270008393,0.521248187991151,1.11451895933471
1580423515.2755,-0.582284275577935,1.29079118028534,0.489509422446019
1580423515.30787,-1.21315327687495,-0.0314946211947813,-0.0700694285496297
1580423515.34024,-1.49050125886931,-0.305912870984971,0.596932936598765
1580423515.3726,-0.2434119172961,1.80251773861296,1.18678568703746
1580423515.40497,-0.589608606088349,0.80494392309453,-0.45630579079881
1580423515.43734,-0.900160219729916,0.621835660334174,1.30885786221103
1580423515.46971,-0.605722133211261,0.656992446784162,1.09156939040207
1580423515.50207,-0.689707789730678,0.995376516365301,1.00221255817502
1580423515.53444,-1.00856031128405,0.511482413977266,0.954360265506981
1580423515.56681,-1.6448004882887,0.401129167620354,0.622323949034868
1580423515.59918,-2.04910353246357,-0.0422369726100555,0.254642557412069
1580423515.63155,-1.37917143511101,-0.523689631494621,-0.482185091935607
1580423515.66391,-1.3112993057145,-0.104737926298924,-1.30983443961242
1580423515.69628,-1.3034866865034,-0.430914778362707,-1.17311360341802
1580423515.72865,-1.23903257801175,-0.544197756923781,-0.373785000381476
1580423515.76102,-0.986587319752804,-0.235111009384298,0.368902113374531
1580423515.79338,-1.26686503395132,0.59058518348974,0.793224994277868
1580423515.82575,-0.928969253070878,0.39380483710994,0.59742122529946
1580423515.85812,-0.337163347829405,0.902601663233387,0.898695353627833
1580423515.89049,0.170168612191958,0.926039520866713,0.695078965438316
1580423515.92285,0.446051728084228,0.682383459220265,0.572518501564051
1580423515.95522,0.0271000228885327,0.661875333791105,0.314213778896772
1580423515.98759,-0.135500114442664,0.630136568245977,0.151613641565575
1580423516.01996,-0.39819943541619,0.658457312886245,0.682383459220265
1580423516.05233,-0.522224765392538,1.19362172884718,0.812756542305639
1580423516.08469,-1.14869916838331,0.789318684672313,1.0383459220264
1580423516.11706,-0.783459220263982,0.85621423666743,0.904554818036164
1580423516.14943,-0.518318455786984,1.36403448538949,0.199954222934309
1580423516.1818,-1.56472114137484,-0.978286411841001,-0.124269474326695
1580423516.21416,-1.59890135042344,0.200930800335698,0.359136339360646
1580423516.24653,0.464606698710611,1.12965590905623,2.01443503471427
1580423516.27914,-0.274174105439842,0.679942015716794,0.318120088502326
1580423516.31151,-0.98268101014725,0.456794079499502,1.07936217288472
1580423516.34388,-0.738536659800106,0.902113374532693,0.963637750820173
1580423516.37625,-0.662363622491798,1.00318913557641,0.907972838941024
1580423516.40861,-1.12574959945067,0.510994125276572,0.875257495994507
1580423516.44098,-1.53688868543526,0.489509422446019,0.643808651865417
1580423516.47335,-1.89333943694209,-0.112550545510032,0.273685816739146
1580423516.50572,-1.38210116731518,-0.491462577248798,-0.658457312886243
1580423516.53809,-1.20241092545968,-0.298588540474556,-1.06715495536736
1580423516.57045,-1.04469367513542,-0.207766842145418,-0.816174563210499
1580423516.60282,-1.37868314641032,-0.564217593652247,-0.498786907759213
1580423516.63519,-1.25661097123674,-0.496833752956436,0.067139696345464
1580423516.66756,-1.21510643167773,0.603280689707791,0.891371023117419
1580423516.69992,-1.28249027237354,1.05836575875486,0.60767528801404
1580423516.73229,-0.440192263675899,0.738536659800108,0.900160219729916
1580423516.76466,0.154543373769741,0.750255588616771,0.909925993743801
1580423516.79703,0.531990539406426,0.532967116807814,0.608651865415428
1580423516.82939,0.0583504997329669,0.504646372167546,0.250736247806515
1580423516.86176,-0.208743419546806,0.824475471122302,0.131105516136415
1580423516.89413,-0.223880369268329,0.540779736018923,0.416266117341877
1580423516.9265,-0.537361715114061,0.93482871747921,0.3630426489662
1580423516.95887,-1.10768291752499,1.70046540016785,0.482673380636299
1580423516.99123,-1.03346303501946,-0.126222629129472,1.40505073624781
1580423517.0236,-0.509529259174487,1.00807202258335,0.58374914168002
1580423517.05597,-0.706309605554283,0.940199893186847,0.222903791866941
1580423517.08834,-3.05253681239033,-1.75222400244144,-0.0490730144197755
1580423517.1207,-1.18239108873121,2.41873807888914,-0.264408331425956
1580423517.15307,-0.0280766002899213,0.843518730449379,1.58815899900817
1580423517.18544,-0.588143739986267,0.575448233768217,1.61403830014496
1580423517.21781,-0.759533073929962,0.114991989013504,1.02760357061112
1580423517.25017,-0.53833829251545,0.94166475928893,1.01930266269932
1580423517.28254,-0.727794308384832,0.853284504463264,1.02906843671321
1580423517.31491,-1.36647592889296,0.606210421911957,0.933363851377127
1580423517.34728,-1.92751964599069,0.312260624093994,0.544197756923783
1580423517.37965,-2.17898832684825,-0.212649729152361,-0.213626306553749
1580423517.41201,-1.30397497520409,-0.372808422980087,-0.892835889219501
1580423517.44438,-1.11012436102846,-0.285404745555811,-1.0124666208896
1580423517.47675,-1.2175478751812,-0.308842603189136,-0.674082551308461
1580423517.50912,-1.22438391699092,-0.427985046158541,-0.0314946211947813
1580423517.54148,-1.23805600061036,-0.0197756923781185,0.531013962005037
1580423517.57403,-1.1062180514229,0.439703974975203,0.772228580148013
1580423517.6064,-0.712657358663309,0.733653772793165,0.785412375066759
1580423517.63877,-0.0441901274128327,0.910414282444496,0.512947280079349
1580423517.67114,0.297123674372472,1.13405050736248,0.560799572747388
1580423517.70351,0.319584954604409,1.01783779659724,0.436285954070343
1580423517.73588,0.135011825741969,0.493415732051574,0.142824444953078
1580423517.76824,-0.207278553444723,0.0231937132829785,0.559334706645306
1580423517.80061,-0.705333028152895,-0.317631799801633,0.841565575646602
1580423517.83298,-1.44411383230335,2.51297779812314,0.459723811703668
1580423517.86535,-1.09889372091249,0.337163347829403,1.29762722209506
1580423517.89772,-0.651132982375829,1.1750667582208,0.481208514534217
1580423517.93008,-0.873792629892424,1.225848783093,0.212649729152361
1580423517.96245,-2.12088197146563,-2.01297016861219,-0.321538109407188
1580423517.99482,-1.38356603341726,1.45192645151446,1.03346303501946
1580423518.02719,0.835217822537576,-0.102784771496147,1.8581826504921
1580423518.05956,-0.560311284046692,0.813733119707027,0.626230258640422
1580423518.09193,-0.937270160982681,0.242435339894712,0.883070115205616
1580423518.12429,-0.596444647898069,0.807385366598002,1.05690089265278
1580423518.15666,-0.636972610055695,0.866956588082704,1.04811169604028
1580423518.18903,-1.225848783093,0.736583504997331,0.932387273975738
1580423518.2214,-1.77029068436713,0.330815594720377,0.55298695353628
1580423518.25377,-2.19803158617533,-0.312748912794691,-0.0949721522850382
1580423518.28613,-1.51784542610819,-0.489509422446021,-0.83228809033341
1580423518.3185,-1.19703974975204,-0.387457084000916,-1.16578927290761
1580423518.35087,-1.29176775768673,-0.0886243991760125,-0.579354543373769
1580423518.38324,-1.09010452429999,-0.613534752422369,-0.0676279850461583
1580423518.41561,-0.945571068894484,-0.0046387426565957,0.55640497444114
1580423518.44798,-1.19655146105135,0.740489814602885,0.816662851911193
1580423518.48034,-0.635996032654306,0.740001525902191,0.650644693675137
1580423518.51271,-0.10083161669337,0.827893492027162,0.744884412909133
1580423518.54508,0.320561532005797,0.772716868848708,0.699473563744565
1580423518.57745,0.253177691309986,0.591073472190434,0.508064393072406
1580423518.60982,-0.254642557412071,0.538338292515451,0.247806515602349
1580423518.64218,-0.436285954070344,0.46900129701686,0.367437247272449
1580423518.67455,-0.612558175020981,0.938735027084764,0.665781643396659
1580423518.70692,-0.725841153582055,1.55642023346304,0.769787136644542
1580423518.73929,-1.05836575875486,0.875257495994507,0.84596017395285
1580423518.77166,-0.768810559243153,0.181887541008621,1.03102159151598
1580423518.80403,-0.0432135500114441,1.28786144808118,0.244876783398183
1580423518.83639,-0.586678873884184,1.11696040283818,-0.128664072632944
1580423518.86908,-3.81817349507897,-3.12529182879377,1.55349050125887
1580423518.90145,-0.550057221332112,1.75368886854353,-2.05593957427329
1580423518.93382,-0.0930189974822611,2.22098115510796,1.55056076905471
1580423518.96618,-0.957778286411841,0.302494850080109,1.48854810406653
1580423518.99855,-1.0124666208896,-0.378667887388419,1.26295872434577
1580423519.03092,-0.648203250171663,0.908949416342413,0.960219729915313
1580423519.06329,-0.81519798580911,0.92799267566949,1.01637293049516
1580423519.09566,-1.27907225146868,0.43482108796826,0.881605249103533
1580423519.12803,-1.74050507362478,0.348393987945371,0.415289539940488
1580423519.1604,-2.04959182116426,-0.0300297550926985,-0.120363164721141
1580423519.19277,-1.36891737239643,-0.276615548943314,-0.800061036087587
1580423519.22513,-1.48610666056306,-0.309819180590525,-1.18483253223468
1580423519.2575,-1.36647592889296,-0.429449912260624,-0.607186999313344
1580423519.28987,-1.14430457007706,-0.388433661402305,-0.135988403143358
1580423519.32224,-1.16676585030899,0.237552452887769,0.514900434882126
1580423519.35461,-1.03199816891737,0.528084229800871,0.478278782330051
1580423519.38698,-0.51783016708629,0.861097123674373,0.616464484626537
1580423519.41935,0.0227054245822842,1.03981078812848,0.855725947966736
1580423519.45171,0.462653543907834,0.696543831540399,0.895765621423667
1580423519.48408,0.443610284580757,0.324956130312046,0.55640497444114
1580423519.51645,-0.148683909361409,0.50513466086824,0.292729076066223
1580423519.54882,-0.264896620126651,0.58033112077516,0.339604791332874
1580423519.58119,-0.636972610055695,0.940688181887541,0.516365300984209
1580423519.61356,-1.30592813000687,1.4480201419089,0.380621042191194
1580423519.64593,-1.26637674525063,0.219485770962081,1.22926680399786
1580423519.6783,-0.762462806134128,0.657480735484857,0.867444876783399
1580423519.71066,-0.266849774929428,0.824475471122302,0.300053406576637
1580423519.74303,-1.62917524986648,-1.22047760738537,-1.06227206836042
1580423519.7754,-1.22682536049439,1.47194628824292,1.07545586327916
1580423519.80777,1.31325246051728,-0.448004882887007,2.31375600823987
1580423519.84014,-0.203860532539863,0.997329671168078,1.45241474021515
1580423519.87251,-0.743419546807049,0.204348821240558,0.906507972838941
1580423519.90488,-0.676035706111238,0.833752956435493,1.03395132372015
1580423519.93724,-0.73560692759594,0.548592355230031,1.06715495536736
1580423519.96961,-1.49245441367208,0.661387045090411,0.809826810101473
1580423520.00198,-1.61306172274357,0.45874723430228,0.40064087891966
1580423520.03435,-1.93240253299764,-0.309819180590525,0.0466315709163041
1580423520.06672,-1.27272449835966,-0.274174105439842,-0.69117265583276
1580423520.09909,-1.18971541924163,-0.0046387426565957,-1.1233081559472
1580423520.13146,-1.25416952773327,-0.475837338826581,-0.74244296940566
1580423520.16409,-1.08815136949721,-0.519783321889067,-0.305912870984971
1580423520.19646,-1.05690089265278,0.0598153658350498,0.343022812237734
1580423520.22883,-1.24977492942702,0.721446555275808,0.781994354161899
1580423520.2612,-0.783947508964676,0.602792401007097,0.55640497444114
1580423520.29357,-0.366460669871062,0.961684596017395,0.79810788128481
1580423520.32594,0.292240787365529,1.02613870450904,0.84596017395285
1580423520.35831,0.473395895323108,0.576424811169606,0.557381551842528
1580423520.39068,-0.203372243839169,0.559822995346,0.3459525444419
1580423520.42305,-0.149660486762798,0.697520408941788,0.295658808270389
1580423520.45542,-0.570565346761272,0.973403524834058,0.494392309452962
1580423520.48778,-0.944106202792401,0.785900663767453,0.661875333791105
1580423520.52015,-1.33669031815061,-0.239505607690546,1.24684519722286
1580423520.55252,-0.88697642481117,1.43337148088807,0.592538338292517
1580423520.58489,-0.0349126420996413,1.62233920805676,0.293217364766917
1580423520.61726,-1.39821469443809,0.295658808270389,0.0988784618905925
1580423520.64963,-2.75223926146334,-1.68435187304494,0.622812237735562
1580423520.682,-0.651132982375829,2.34256504158083,-0.372320134279393
1580423520.71437,0.00122072175173571,1.8069123369192,0.346440833142594
1580423520.74674,-0.889417868314641,0.218997482261386,1.43874265659571
1580423520.77911,-0.681406881818875,-0.216067750057221,1.22389562829023
1580423520.81148,-0.546150911726558,1.15358205539025,0.954848554207675
1580423520.84384,-0.901136797131304,0.863538567177844,1.04811169604028
1580423520.87621,-1.67507438773175,0.367925535973143,0.826916914625773
1580423520.90858,-2.03054856183719,0.220950637064163,0.317143511100937
1580423520.94095,-1.75857175555047,-0.557869840543221,-0.382574196993973
1580423520.97332,-1.3283894102388,-0.350835431448845,-1.13551537346456
1580423521.00569,-1.16530098420691,-0.166750591287098,-1.03053330281529
1580423521.03806,-1.12965590905623,-0.37427328908217,-0.434332799267567
1580423521.07043,-0.95191882200351,-0.284916456855116,0.0075684748607614
1580423521.1028,-1.30543984130617,0.344487678339817,0.548592355230031
1580423521.13517,-0.946059357595178,0.488532845044631,0.804455634393836
1580423521.16754,-0.43579766536965,0.834241245136187,0.922621499961853
1580423521.1999,-0.00952162966353853,0.899183642328527,0.77759975585565
1580423521.23227,0.222415503166246,0.737560082398719,0.540779736018923
1580423521.26464,0.102296482795452,0.78443579766537,0.432867933165483
1580423521.29701,-0.0197756923781185,0.683360036621654,0.224856946669718
1580423521.32938,-0.365484092469673,0.407965209430074,0.627206836041811
1580423521.36175,-0.675059128709849,0.495857175555045,0.489509422446019
1580423521.39412,-1.34792095826658,1.2776073853666,0.882093537804227
1580423521.42649,-0.941176470588236,0.0134279392690928,1.17799649042496
1580423521.45904,-0.232181277180132,1.57595178149081,0.30151827267872
1580423521.49142,-1.05055313954376,0.670176241702908,0.0212405584802013
1580423521.52378,-2.36551461051347,-0.943617914091707,0.848401617456322
1580423521.55615,-0.265873197528039,1.82595559624628,0.259037155718318
1580423521.58852,-0.330815594720379,0.715587090867476,0.240970473792629
1580423521.62089,-0.792248416876479,0.813244831006333,1.45387960631723
1580423521.65326,-0.701915007248035,0.435309376668954,1.02174410620279
1580423521.68563,-0.706309605554283,1.0554360265507,0.98609903105211
1580423521.718,-0.82203402761883,0.65210955977722,1.00074769207294
1580423521.75037,-1.70583657587549,0.521736476691846,0.743907835507745
1580423521.78274,-1.84792858777752,0.253177691309986,0.222415503166246
1580423521.81511,-1.55153734645609,-0.489021133745327,-0.776134889753568
1580423521.84748,-1.07887388418402,0.0153810940718699,-1.19264515144579
1580423521.87985,-1.01149004348821,-0.00366216525520713,-0.870862897688259
1580423521.91222,-1.3972381170367,-0.512458991378653,-0.475837338826581
1580423521.94459,-1.24928664072633,-0.693125810635538,-0.0686045624475469
1580423521.97696,-1.32594796673533,0.00952162966353853,0.845471885252156
1580423522.00933,-1.4314183260853,0.647226672770277,1.14674601358053
1580423522.0417,-0.482673380636301,0.635996032654308,0.865980010681316
1580423522.07407,0.0231937132829785,0.948012512397955,0.81519798580911
1580423522.10644,0.437262531471731,1.09401083390555,0.681895170519571
1580423522.13881,0.351323720149537,0.715587090867476,0.360112916762034
1580423522.17118,0.0158693827725642,0.688731212329291,0.210696574349583
1580423522.20355,-0.0588387884336612,0.067139696345464,0.531990539406426
1580423522.23592,-0.472907606622416,0.136964980544747,0.43482108796826
1580423522.26829,-1.13502708476387,2.74491493095293,0.0598153658350498
1580423522.30065,-0.891859311818113,0.299565117875943,1.15455863279164
1580423522.33302,-0.477790493629358,0.552498664835586,0.653574425879302
1580423522.36539,-1.45387960631724,1.53835355153735,0.209719996948195
1580423522.39776,-2.80448615243763,-1.5593499656672,0.0734874494544897
1580423522.43013,-0.870374608987564,2.15115587090867,0.331303883421072
1580423522.4625,0.272709239337757,0.459235523002974,0.554451819638363
1580423522.49487,-0.821057450217442,0.923109788662547,1.57351033798734
1580423522.52724,-0.574959945067521,0.205813687342641,1.2087586785687
1580423522.55961,-0.577401388570992,0.817151140611887,1.06227206836042
1580423522.59198,-0.662363622491798,0.813733119707027,1.12086671244373
1580423522.62435,-1.18483253223468,0.624277103837645,0.885511558709087
1580423522.65672,-1.91775387197681,0.43823910887312,0.474860761425191
1580423522.68909,-1.92507820248722,-0.244876783398183,-0.205813687342641
1580423522.72146,-1.44557869840543,-0.493415732051576,-0.982192721446555
1580423522.75406,-1.21022354467079,-0.656504158083466,-1.23366140230411
1580423522.78643,-1.26442359044785,-0.226321812771801,-0.560799572747387
1580423522.8188,-1.24538033112077,-0.444098573281453,-0.0617685206378269
1580423522.85117,-1.22438391699092,0.0251468680857556,0.662363622491799
1580423522.88354,-1.27223620965896,0.865003433279927,0.776134889753568
1580423522.91591,-0.499275196459907,0.718516823071642,0.632089723048754
1580423522.94828,0.0827649347676811,0.823498893720913,0.857679102769513
1580423522.98065,0.391363393606468,0.708751049057756,0.690684367132068
1580423523.01302,0.313237201495383,0.146730754558632,0.409430075532157
1580423523.04539,-0.0354009308003356,0.35278858625162,0.29126420996414
1580423523.07776,-0.340581368734265,0.343511100938429,0.703868162050814
1580423523.11013,-0.934340428778516,1.09352254520485,0.639414053559168
1580423523.1425,-1.00123598077363,1.74538796063172,0.373785000381474
1580423523.17487,-1.05397116044862,-0.386480506599527,1.41921110856794
1580423523.20724,-0.827893492027162,1.07594415197986,0.507087815671017
1580423523.23961,-0.77759975585565,0.816662851911193,-0.53833829251545
1580423523.27198,-2.44852368963149,-0.43237964446479,-0.367925535973145
1580423523.30435,-1.00611886778058,2.90653849088273,0.694590676737622
1580423523.33672,-0.424567025253682,0.51538872358282,0.696055542839705
1580423523.36909,-0.773205157549402,0.823010605020219,1.57106889448387
1580423523.40146,-0.814221408407722,0.40747692072938,1.08473334859235
1580423523.43383,-0.746837567711909,0.753673609521631,1.0383459220264
1580423523.4662,-1.13112077515831,0.659433890287634,0.868421454184787
1580423523.49857,-1.74245822842756,0.481696803234911,0.457282368200197
1580423523.53094,-2.15603875791562,-0.11450370031281,0.186770428015564
1580423523.56331,-1.55397878995956,-0.841565575646602,-0.766369115739682
1580423523.59568,-1.30543984130617,-0.35034714274815,-1.51100938429847
1580423523.62805,-1.32497138933394,-0.342046234836348,-0.842053864347296
1580423523.66042,-1.20094605935759,-0.690684367132066,-0.368413824673839
1580423523.69279,-0.912367437247273,0.0627450980392155,0.33569848172732
1580423523.72516,-1.12526131074998,0.781994354161899,0.581307698176548
1580423523.75753,-0.687266346227206,0.741954680704968,0.694102388036928
1580423523.7899,-0.0915541313801782,0.954360265506981,0.927504386968796
1580423523.82227,0.393316548409246,0.689707789730679,0.722911421377891
1580423523.85464,0.552498664835586,0.389898527504386,0.566170748455026
1580423523.88701,-0.117433432516975,0.463141832608528,0.347417410543983
1580423523.91938,-0.338628213931488,0.431891355764094,0.401617456321048
1580423523.95175,-0.551522087434195,0.76392767223621,0.544686045624477
1580423523.98412,-1.15358205539025,1.99978637369345,0.453864347295337
1580423524.01649,-1.25465781643397,-0.476325627527276,1.57546349279011
1580423524.0491,-0.911879148546578,1.23512626840619,0.547615777828643
1580423524.08147,-0.280521858548868,1.41872281986725,0.337163347829403
1580423524.11384,-1.23317311360342,-0.596444647898069,-0.856702525368124
1580423524.14621,-2.22928206301976,-0.0900892652780954,1.27028305485618
1580423524.17858,0.492439154650185,0.943617914091707,0.713145647364005
1580423524.21095,-0.572518501564049,0.957778286411841,0.0588387884336612
1580423524.24333,-0.93141069657435,0.35278858625162,1.38649576562142
1580423524.2757,-0.693614099336232,0.55298695353628,1.29176775768673
1580423524.30807,-0.580331120775158,0.870862897688259,1.00856031128405
1580423524.34044,-1.00660715648127,0.650644693675137,1.02760357061112
1580423524.37281,-1.66726176852064,0.5085526817731,0.704844739452202
1580423524.40518,-2.43338673990997,0.176028076600289,0.103761348897535
1580423524.43755,-1.78249790188449,-0.609140154116121,-0.733165484092469
1580423524.46992,-1.36989394979782,-0.49390402075227,-1.4655985351339
1580423524.50229,-1.2946974898909,-0.150637064164187,-1.09547570000763
1580423524.53466,-1.16188296330205,-0.564705882352941,-0.468024719615473
1580423524.56703,-0.991958495460441,-0.0798352025635154,0.471442740520331
1580423524.5994,-1.21705958648051,0.56665903715572,0.834241245136187
1580423524.63177,-0.648203250171663,0.405035477225908,0.651621271076525
1580423524.66414,-0.0959487296864268,0.829846646829939,0.786388952468148
1580423524.69651,0.362066071564811,0.869398031586176,0.760997940032045
1580423524.72888,0.559334706645306,0.556893263141834,0.591561760891128
1580423524.76126,0.0114747844663157,0.330815594720377,0.443121995880063
1580423524.79362,-0.455329213397421,0.00854505226214997,0.58033112077516
1580423524.826,-0.79127183947509,0.162355992980849,1.06276035706111
1580423524.85837,-1.16530098420691,2.45145342183566,0.141359578850995
1580423524.89074,-1.10377660791943,0.969985503929198,0.95191882200351
1580423524.92311,-0.741954680704966,0.493415732051574,0.698008697642482
1580423524.95548,-0.194094758525978,1.48464179446097,0.283451590753032
1580423524.98785,-1.32741283283742,-0.529060807202258,-0.268314641031511
1580423525.02022,-2.50174715800717,-0.0729991607537954,0.511482413977266
1580423525.05259,0.668711375600825,1.12916762035553,0.978774700541695
1580423525.08496,-0.173586633096818,0.932387273975738,0.477790493629357
1580423525.11733,-0.74244296940566,0.226321812771801,1.30543984130617
1580423525.1497,-0.679453727016098,0.829358358129245,1.0212558175021
1580423525.18207,-0.732677195391775,0.95533684290837,0.92799267566949
1580423525.21444,-1.14381628137636,0.649668116273748,0.91090257114519
1580423525.24681,-1.53786526283665,0.693125810635539,0.603280689707791
1580423525.27918,-1.95535210193027,-0.256595712214848,0.146242465857938
1580423525.31155,-1.64675364309148,-0.520759899290455,-0.598397802700847
1580423525.34418,-1.35231555657282,-0.397222858014802,-1.12672617685206
1580423525.37655,-1.243427176318,-0.228763256275272,-0.800061036087587
1580423525.40892,-1.05885404745556,-0.599374380102235,-0.367925535973145
1580423525.44129,-1.01197833218891,-0.205813687342641,-0.0324711985961699
1580423525.47366,-1.53933012893873,1.04957656214237,0.834729533836882
1580423525.50603,-0.708751049057755,0.765392538338293,0.99635309376669
1580423525.5384,-0.302006561379416,0.756115053025102,0.950453955901427
1580423525.57077,0.23999389639124,0.658457312886245,0.753185320820936
1580423525.60314,0.510017547875183,0.642832074464028,0.517341878385597
1580423525.63552,0.034424353398947,0.857679102769513,0.260013733119706
1580423525.66789,-0.145265888456549,0.897718776226444,0.102296482795452
1580423525.70026,-0.163332570382238,0.708262760357062,0.550545510032808
1580423525.73263,-0.596932936598764,1.30104524299992,0.88355840390631
1580423525.765,-1.05641260395209,0.843518730449379,0.988052185854887
1580423525.79737,-0.752697032120242,0.790783550774396,0.986587319752804
1580423525.82974,-0.126710917830167,1.26393530174716,0.256595712214846
1580423525.86211,-1.31081101701381,0.102296482795452,-0.457282368200199
1580423525.89448,-2.99540703440909,-1.13795681696803,0.734142061493859
1580423525.92686,-0.626718547341115,2.62967879758908,-0.381597619592585
1580423525.95923,-0.278568703746091,1.34352635996033,0.454352635996031
1580423525.9916,-0.629648279545281,0.407965209430074,1.51247425040055
1580423526.02397,-0.911879148546578,0.135011825741969,0.946547646295873
1580423526.05634,-0.55201037613489,0.907972838941024,0.916762035553521
1580423526.08871,-0.802990768291753,0.786388952468148,1.00514229037919
1580423526.12108,-1.33522545204852,0.613046463721677,0.858167391470207
1580423526.15345,-1.7815213244831,0.273685816739146,0.408453498130768
1580423526.18582,-2.10379186694133,-0.239505607690546,-0.244388494697489
1580423526.21819,-1.55495536736095,-0.373296711680782,-0.911879148546578
1580423526.25057,-1.36061646448463,-0.551522087434195,-1.16530098420691
1580423526.28294,-1.27956054016938,-0.305912870984971,-0.554451819638361
1580423526.31531,-1.12916762035553,-0.414801251239796,0.0183108262760356
1580423526.34768,-1.06129549095903,0.434332799267565,0.592050049591823
1580423526.38005,-1.06910811017014,0.967544060425727,0.574959945067523
1580423526.41242,-0.380132753490502,0.707286182955674,0.773693446250096
1580423526.44479,0.214114595254443,0.623300526436257,0.880628671702144
1580423526.47716,0.559822995346,0.398687724116883,0.760509651331351
1580423526.50953,0.186770428015564,0.237064164187075,0.426031891355763
1580423526.54191,-0.286381322957199,0.50171663996338,0.212649729152361
1580423526.57428,-0.583749141680018,0.760021362630656,0.722423132677196
1580423526.60665,-0.646738384069581,1.48805981536583,0.523689631494623
1580423526.63925,-1.04322880903334,1.3972381170367,0.555428397039751
1580423526.67162,-1.05397116044862,-0.386480506599527,1.29958037689784
1580423526.70399,-0.731212329289692,1.52370489051652,0.34253452353704
1580423526.73637,-0.55884641794461,1.01979095140002,-0.193118181124589
1580423526.76874,-2.24490730144198,-1.23610284580758,0.125734340428778
1580423526.80111,-1.02174410620279,2.09842069123369,0.10766765850309
1580423526.83348,0.140871290150301,0.92799267566949,0.459723811703668
1580423526.86585,-1.0124666208896,0.722423132677196,1.50319676508736
1580423526.89822,-0.648691538872358,-0.140383001449607,0.932875562676433
1580423526.93059,-0.663340199893186,0.872816052491036,1.10231174181735
1580423526.96297,-1.01881437399863,0.690196078431374,0.991958495460441
1580423526.99534,-1.64089417868315,0.425543602655068,0.608651865415428
1580423527.02771,-1.96267643244068,0.0983901731898982,0.247318226901655
1580423527.06008,-1.74929427023728,-0.542732890821698,-0.344487678339819
1580423527.09245,-1.37282368200198,-0.380621042191196,-1.22975509269856
1580423527.12482,-1.2605172808423,-0.209231708247501,-0.959731441214618
1580423527.1572,-1.19557488364996,-0.433356221866179,-0.345952544441902
1580423527.18957,-0.925062943465324,0.0534676127260241,0.348393987945371
1580423527.22194,-1.08375677119097,0.726329442282751,0.634531166552225
1580423527.25431,-0.751720454718853,0.567147325856414,0.484626535439077
1580423527.28668,-0.299565117875945,0.861097123674373,0.610116731517511
1580423527.31905,0.225833524071106,0.709727626459145,0.986587319752804
1580423527.35142,0.402105745021743,0.360112916762034,0.581795986877243
1580423527.3838,-0.107179369802395,0.42114900434882,0.462653543907834
1580423527.41617,-0.314213778896773,0.60767528801404,0.314213778896772
1580423527.44854,-0.721446555275806,0.847913328755627,0.510017547875183
1580423527.48091,-0.84596017395285,1.36794079499504,0.593514915693905
1580423527.51328,-1.17360189211871,0.159914549477378,1.05690089265278
1580423527.54565,-0.990981918059052,0.332768749523154,1.11354238193332
1580423527.57802,-0.459235523002976,1.62233920805676,0.2434119172961
1580423527.6104,-0.928969253070878,0.388433661402303,-1.05787747005417
1580423527.64277,-1.63796444647898,-0.0363775082017241,0.995376516365301
1580423527.67514,0.750255588616771,0.105714503700312,1.30788128480964
1580423527.70751,-0.486579690241856,1.0891279468986,0.0725108720531011
1580423527.73988,-0.951430533302815,0.698496986343176,1.06031891355764
1580423527.77225,-0.837170977340353,0.555428397039751,1.16530098420691
1580423527.80463,-0.69459067673762,0.705333028152896,1.02906843671321
1580423527.837,-1.21608300907912,0.652597848477914,0.837170977340353
1580423527.86937,-1.88699168383307,0.461188677805751,0.371343556878003
1580423527.90174,-1.90212863355459,-0.0529793240253298,-0.0354009308003356
1580423527.93433,-1.38112458991379,-0.601327534905012,-0.698496986343175
1580423527.9667,-1.23952086671244,-0.189211871519035,-1.28053711757076
1580423527.99907,-1.25319295033188,-0.140383001449607,-0.719005111772335
1580423528.03144,-1.16237125200275,-0.438727397573816,-0.0632333867399097
1580423528.06381,-1.09059281300069,0.0505378805218584,0.626230258640422
1580423528.09619,-1.2087586785687,0.433844510566871,0.585702296482797
1580423528.12856,-0.755138475623713,0.491462577248797,0.573983367666134
1580423528.16093,-0.133546959639887,0.935805294880598,0.901136797131304
1580423528.1933,0.323979552910657,0.823987182421607,0.871839475089647
1580423528.22567,0.296147096971083,0.399176012817577,0.561776150148777
1580423528.25805,-0.157473105973907,0.446051728084228,0.374761577782863
1580423528.29042,-0.51783016708629,0.442145418478674,0.588632028686963
1580423528.32279,-0.613534752422369,0.82203402761883,0.23999389639124
1580423528.35516,-1.03932249942779,2.04226749065385,0.277103837644006
1580423528.38753,-1.04029907682918,-0.292729076066225,1.18971541924163
1580423528.41991,-0.622323949034866,0.752208743419548,0.718516823071642
1580423528.45228,-1.42897688258183,0.969985503929198,0.357671473258563
1580423528.48465,-2.61600671396963,-0.736583504997329,-0.224368657969023
1580423528.51702,-0.96900892652781,2.79130235751888,0.993911650263218
1580423528.54939,-0.349370565346762,0.116456855115587,0.0407721065079727
1580423528.58177,-0.882581826504921,1.24733348592355,1.39137865262837
1580423528.61414,-0.469489585717556,0.682383459220265,1.14332799267567
1580423528.64651,-0.755138475623713,0.809826810101473,1.11158922713054
1580423528.67888,-1.05641260395209,0.477302204928662,0.829358358129245
1580423528.71125,-1.62722209506371,0.514412146181431,0.485603112840465
1580423528.74363,-1.66530861371786,0.149172198062104,0.117433432516975
1580423528.776,-1.36452277409018,-0.35376516365301,-0.294193942168308
1580423528.80837,-1.18385595483329,-0.285404745555811,-0.862073701075762
1580423528.84074,-1.19752803845273,-0.221927214465552,-1.01930266269932
1580423528.87311,-1.02516212710765,-0.535896849011978,-0.525154497596704
1580423528.90549,-1.06276035706111,-0.366948958571756,-0.0490730144197755
1580423528.93786,-1.28395513847562,0.60083924620432,0.759533073929962
1580423528.97023,-1.32692454413672,0.892835889219501,0.707286182955674
1580423529.0026,-0.646250095368886,0.28101014724956,0.772228580148013
1580423529.03497,-0.163820859082932,0.519295033188374,1.00709544518196
1580423529.06735,0.240482185091935,0.678965438315405,0.688731212329291
1580423529.09972,-0.0627450980392155,0.83228809033341,0.300541695277332
1580423529.13209,-0.144289311055161,1.19948119325551,0.167238879987792
1580423529.16446,-0.207766842145418,0.894300755321584,0.385015640497443
1580423529.19683,-0.443121995880064,-0.102296482795452,0.508064393072406
1580423529.22931,-1.15700007629511,1.35524528877699,0.927504386968796
1580423529.26168,-1.02369726100557,0.541268024719617,0.906019684138247
1580423529.29405,-0.379156176089113,1.02906843671321,0.881605249103533
1580423529.32642,-0.931898985275044,1.0212558175021,0.163820859082932
1580423529.3588,-2.83085374227512,-1.90310521095598,0.153078507667658
1580423529.39117,-1.32399481193256,2.11697566186007,0.169192034790569
1580423529.42354,0.268314641031509,0.862073701075762,1.5681391622797
1580423529.45591,-0.71851682307164,0.658457312886245,1.2600289921416
1580423529.48828,-0.746837567711909,0.0563973449301898,1.07447928587777
1580423529.52066,-0.747325856412603,0.824475471122302,1.19703974975204
1580423529.55303,-0.889417868314641,0.753185320820936,0.96217288471809
1580423529.5854,-1.63405813687343,0.432867933165483,0.616464484626537
1580423529.61777,-1.98611429007401,0.0593270771343555,0.23999389639124
1580423529.65014,-1.65114824139773,-0.511970702677958,-0.275638971541925
1580423529.68252,-1.3630579079881,-0.371831845578699,-1.15700007629511
1580423529.71489,-1.26344701304646,-0.259525444419014,-1.12819104295415
1580423529.74726,-1.2859082932784,-0.440192263675899,-0.528572518501564
1580423529.77963,-1.11061264972915,-0.235599298084992,0.182864118410009
1580423529.81201,-1.24489204242008,0.60425726710918,0.630136568245977
1580423529.84438,-0.97926298924239,0.588632028686963,0.608163576714734
1580423529.87675,-0.362554360265507,0.763439383535516,0.812268253604945
1580423529.90912,0.261966887922483,0.65552758068208,0.909925993743801
1580423529.94149,0.583260852979326,0.37671473258564,0.725352864881362
1580423529.97387,0.0886243991760125,0.423590447852291,0.402105745021743
1580423530.00624,-0.328374151216908,0.686289768825819,0.148195620660715
1580423530.03861,-0.719005111772335,0.556893263141834,0.391851682307163
1580423530.07098,-0.787365529869536,1.21803616388189,0.937758449683376
1580423530.10335,-1.23268482490272,0.896253910124361,0.757579919127185
1580423530.13573,-1.04078736552987,0.565194171053637,1.22682536049439
1580423530.1681,-0.553475242236972,0.984145876249332,0.359136339360646
1580423530.20047,-0.865491721980622,0.342046234836346,-0.709727626459143
1580423530.23284,-1.6789806973373,-0.288822766460671,0.483649958037688
1580423530.26521,-0.181887541008621,1.30495155260548,1.24489204242008
1580423530.29759,-0.423590447852293,0.324956130312046,0.203860532539863
1580423530.32996,-0.923109788662547,0.896742198825056,0.90406652933547
1580423530.36233,-0.743907835507743,0.573006790264746,0.991470206759747
1580423530.3947,-0.733653772793163,0.830334935530633,0.99635309376669
1580423530.42707,-1.03443961242084,0.765392538338293,0.869398031586176
1580423530.45944,-1.7131609063859,0.415777828641183,0.594979781795988
1580423530.49182,-1.89431601434348,0.119386587319752,0.158449683375295
1580423530.52444,-1.52663462272068,-0.352788586251622,-0.336186770428016
1580423530.55682,-1.23317311360342,-0.447516594186313,-1.17262531471733
1580423530.58919,-1.21559472037842,-0.409430075532159,-1.06910811017014
1580423530.62156,-1.16725413900969,-0.388433661402305,-0.250736247806516
1580423530.65393,-1.04615854123751,-0.303959716182193,0.194094758525978
1580423530.68631,-1.36989394979782,0.833752956435493,0.709727626459145
1580423530.71868,-1.06617837796597,0.761486228732739,0.596932936598765
1580423530.75105,-0.54517433432517,0.683360036621654,0.720958266575114
1580423530.78342,0.134035248340581,0.684336614023042,0.990981918059052
1580423530.8158,0.506599526970323,0.474860761425191,0.653574425879302
1580423530.84817,-0.175539787899595,0.647226672770277,0.351323720149537
1580423530.88054,-0.33325703822385,0.748790722514688,0.232181277180132
1580423530.91291,-0.480720225833524,0.495368886854351,0.669687953002214
1580423530.94529,-0.496833752956436,0.82887006942855,0.418707560845348
1580423530.97766,-0.94850080109865,1.67360952162966,0.857679102769513
1580423531.01003,-0.977309834439613,-0.201419089036392,1.37819485770962
1580423531.0424,-0.553475242236972,0.961684596017395,0.608651865415428
1580423531.07478,-1.20289921416037,0.829358358129245,-0.40845349813077
1580423531.10715,-1.63210498207065,-0.0993667505912867,0.680918593118182
1580423531.13952,0.247318226901655,0.579842832074466,1.53054093232624
1580423531.17189,-0.340581368734265,0.23999389639124,0.0549324788281069
1580423531.20427,-0.925062943465324,0.926039520866713,0.964126039520867
1580423531.23664,-0.857679102769513,0.740978103303579,1.11158922713054
1580423531.26901,-0.726329442282749,0.750743877317465,0.984634164950027
1580423531.30138,-1.10475318532082,0.647226672770277,0.77759975585565
1580423531.33376,-1.59841306172274,0.459723811703668,0.446540016784922
1580423531.36613,-1.71560234988937,0.0495613031204698,0.181399252307926
1580423531.3985,-1.33131914244297,-0.229739833676661,-0.34692912184329
1580423531.43087,-1.32399481193256,-0.268314641031511,-0.996841382467384
1580423531.46325,-1.35182726787213,-0.303471427481499,-0.942641336690318
1580423531.49562,-1.23952086671244,-0.363530937666896,-0.36743724727245
1580423531.52799,-1.19850461585412,-0.122804608224612,0.105714503700312
1580423531.56036,-1.39382009613184,0.750743877317465,0.79810788128481
1580423531.59274,-0.864026855878539,0.62476539253834,0.550545510032808
1580423531.62511,-0.42896162355993,0.84596017395285,0.815686274509805
1580423531.65748,0.199954222934309,0.905531395437553,0.974868390936141
1580423531.68985,0.646250095368888,0.348882276646066,0.666758220798048
1580423531.72223,0.034424353398947,0.262455176623178,0.389410238803691
1580423531.7546,-0.217532616159303,0.503181506065463,0.207278553444723
1580423531.78697,-0.683848325322346,0.667734798199437,0.599862668802931
1580423531.81958,-0.765392538338293,0.959243152513924,0.341557946135651
1580423531.85195,-1.11989013504234,1.31764705882353,0.949965667200733
1580423531.88433,-0.692637521934843,0.706797894254979,1.03736934462501
1580423531.9167,-0.97242694743267,0.874769207293813,0.854261081864653
1580423531.94907,-2.5847562371252,-2.16531624322881,-0.901625085831999
1580423531.98144,0.0217288471808956,1.89040970473793,-0.227786678873883
1580423532.01382,0.60425726710918,0.749767299916076,2.28201724269474
1580423532.04619,-0.812756542305639,0.558846417944611,1.37624170290684
1580423532.07856,-0.606698710612649,0.0646982528419926,0.955825131609064
1580423532.11094,-0.810315098802167,0.91773861295491,1.09108110170138
1580423532.14331,-0.700938429846646,0.608651865415428,1.07350270847639
1580423532.17568,-1.35622186617838,0.494392309452962,0.688242923628597
1580423532.20806,-1.850370031281,0.43482108796826,0.249759670405126
1580423532.24043,-1.58571755550469,-0.425055313954376,-0.178469520103761
1580423532.2728,-1.35133897917144,-0.428473334859236,-0.722911421377889
1580423532.30517,-1.26735332265202,-0.366460669871062,-0.998794537270161
1580423532.33755,-1.18678568703746,-0.457770656900893,-0.592538338292515
1580423532.36992,-1.15407034409094,-0.461188677805753,-0.252201113908599
1580423532.40229,-1.08424505989166,0.333745326924543,0.437262531471731
1580423532.43467,-1.09108110170138,0.850843060959793,0.737560082398719
1580423532.46704,-0.707774471656366,0.723887998779279,0.381597619592583
1580423532.49941,-0.290775921263448,0.59742122529946,1.06178377965972
1580423532.53179,0.182864118410009,0.485114824139771,1.03443961242084
1580423532.56416,0.01196307316701,0.145265888456549,0.502204928664074
1580423532.59653,-0.47681391622797,0.603280689707791,0.247806515602349
1580423532.6289,-0.404547188525216,1.23170824750133,0.382085908293277
1580423532.66128,-0.272220950637065,1.04908827344167,0.0559090562294955
1580423532.69365,-1.16334782940413,0.739024948500802,1.14772259098192
1580423532.72602,-1.19313344014649,-0.566170748455024,0.932387273975738
1580423532.75839,-0.32642099641413,1.87185473411154,0.399176012817577
1580423532.79077,-0.430426489662013,1.39479667353323,0.274662394140535
1580423532.82314,-2.68925001907378,-1.85915922789349,-0.162355992980849
1580423532.85551,-1.1062180514229,1.32057679102769,-0.0124513618677042
1580423532.88789,0.724864576180668,1.13112077515831,2.90263218127718
1580423532.92026,-0.499763485160601,0.294682230869,1.10084687571527
1580423532.95263,-0.957778286411841,0.0124513618677042,1.08326848249027
1580423532.98501,-0.728282597085526,0.867933165484093,1.06666666666667
1580423533.01738,-0.872816052491036,0.642832074464028,0.98951705195697
1580423533.04975,-1.42653543907836,0.483649958037688,0.687266346227208
1580423533.08212,-1.71462577248798,0.345464255741206,0.307866025787746
1580423533.11468,-1.84451056687266,-0.197024490730143,-0.0427252613107498
1580423533.14706,-1.39186694132906,-0.558358129243915,-0.867933165484093
1580423533.17943,-1.2429388876173,-0.203860532539863,-1.21657129777981
1580423533.2118,-1.25758754863813,-0.602304112306401,-0.580331120775158
1580423533.24418,-1.18141451132982,-0.439703974975204,-0.0798352025635154
1580423533.27655,-1.07154955367361,0.350835431448843,0.516853589684903
1580423533.30892,-1.1833676661326,0.846448462653544,0.658457312886245
1580423533.3413,-0.676035706111238,0.654062714579997,0.630136568245977
1580423533.37367,-0.0451667048142212,0.823987182421607,0.89039444571603
1580423533.40604,0.505622949568934,0.740001525902191,0.807385366598002
1580423533.43841,0.45191119249256,0.62134737163348,0.47925535973144
1580423533.47079,-0.138918135347524,0.864026855878539,0.27075608453498
1580423533.50316,-0.0568856336308841,0.536385137712674,0.284916456855115
1580423533.53553,-0.609140154116121,0.473884184023802,0.518318455786986
1580423533.56791,-1.26198214694438,1.28542000457771,0.490974288548102
1580423533.60028,-1.30397497520409,0.213138017853055,1.31471732661936
1580423533.63265,-0.817639429312582,1.28297856107423,0.79468986037995
1580423533.66502,-0.709727626459143,1.16871900511177,0.31860837720302
1580423533.6974,-2.13748378728923,-2.27957579919127,-0.824475471122302
1580423533.72977,-1.07692072938125,1.66921492332342,1.20192263675898
1580423533.76214,0.937758449683376,-0.334721904325933,1.16871900511177
1580423533.79452,-0.709727626459143,1.18971541924163,1.03639276722362
1580423533.82689,-0.757579919127185,0.346440833142594,0.919691767757687
1580423533.85926,-0.639902342259861,0.680918593118182,1.0720378423743
1580423533.89164,-0.696543831540398,0.809826810101473,1.04176394293126
1580423533.92401,-1.12916762035553,0.731700617990388,0.807385366598002
1580423533.95638,-1.62185091935607,0.264408331425955,0.60425726710918
1580423533.98875,-2.10525673304341,0.0886243991760125,0.0837415121690697
1580423534.02113,-1.40798046845197,-0.431403067063401,-0.606210421911955
1580423534.0535,-1.53005264362554,-0.504646372167544,-1.21705958648051
1580423534.08587,-1.39040207522698,-0.234622720683603,-0.830334935530633
1580423534.11825,-1.27028305485618,-0.43921568627451,-0.067139696345464
1580423534.15062,-1.07936217288472,0.114015411612115,0.29126420996414
1580423534.18299,-1.22389562829023,0.875257495994507,0.676035706111239
1580423534.21536,-0.726329442282749,0.605722133211263,0.812756542305639
1580423534.24774,-0.316655222400245,0.543709468223089,1.03443961242084
1580423534.28011,0.252201113908598,0.34937056534676,0.824963759822996
1580423534.31248,0.10083161669337,0.191165026321812,0.244388494697489
1580423534.34486,-0.339604791332876,0.98609903105211,-0.0793469138628211
1580423534.37723,-0.499275196459907,1.5593499656672,0.368413824673837
1580423534.40979,-0.471931029221027,1.1067063401236,0.0944838635843439
1580423534.44216,-1.36208133058671,1.1921568627451,0.805920500495919
1580423534.47454,-1.04176394293126,0.103273060196841,1.45241474021515
1580423534.50691,-0.55201037613489,0.554940108339057,0.900160219729916
1580423534.53928,-0.92115663385977,-0.0144045166704814,-0.436285954070344
1580423534.57165,-1.24147402151522,0.603280689707791,1.33180743114366
1580423534.60403,0.62476539253834,0.00268558785381856,1.29567406729229
1580423534.6364,-0.436774242771039,0.887953002212559,-0.302006561379416
1580423534.66877,-0.760509651331351,0.626718547341117,0.792736705577173
1580423534.70115,-0.778576333257039,0.786388952468148,1.02906843671321
1580423534.73352,-0.690684367132066,0.851819638361182,0.957289997711147
1580423534.76589,-0.933852140077821,0.61792935072862,0.834241245136187
1580423534.79826,-1.63552300297551,0.417242694743265,0.605233844510568
1580423534.83064,-2.03884946974899,0.302983138780803,0.113527122911421
1580423534.86301,-1.4060273136492,-0.310307469291219,-0.420172426947433
1580423534.89538,-1.42067597467002,-0.495368886854353,-1.04274052033265
1580423534.92776,-1.32252994583047,-0.291752498664836,-0.968032349126421
1580423534.96013,-1.20680552376593,-0.419195849546044,-0.391851682307164
1580423534.9925,-1.13356221866178,-0.183352407110704,0.174074921797512
1580423535.02488,-1.31325246051728,0.778088044556345,0.79127183947509
1580423535.05725,-0.846936751354239,0.829846646829939,0.557381551842528
1580423535.08962,-0.327397573815519,0.596444647898071,0.805920500495919
1580423535.12199,0.177492942702372,0.699961852445259,0.885511558709087
1580423535.15437,0.390875104905774,0.292729076066223,0.639902342259862
1580423535.18674,-0.113527122911421,0.279545281147477,0.289799343862057
1580423535.21911,-0.298588540474556,0.90406652933547,0.187258716716258
1580423535.25149,-0.623788815136949,1.31374074921797,0.263431754024566
1580423535.28386,-0.442145418478676,1.34059662775616,0.391363393606468
1580423535.31623,-1.34987411306935,-0.658457312886243,1.40993362325475
1580423535.3486,-0.86988632028687,1.66823834592203,0.683848325322348
1580423535.38098,-0.947524223697261,1.10377660791943,0.699961852445259
1580423535.41335,-2.28299382009613,-1.93191424429694,-0.893324177920196
1580423535.44572,-0.573495078965438,1.72585641260395,0.969985503929198
1580423535.4781,0.77759975585565,-0.345464255741208,2.097932402533
1580423535.51047,-0.879652094300756,0.821545738918136,1.67849240863661
1580423535.54284,-0.48364995803769,-0.216556038757915,1.18580910963607
1580423535.57522,-0.830334935530633,0.959243152513924,1.18776226443885
1580423535.60759,-0.858167391470207,0.765880827038988,1.07057297627222
1580423535.63996,-1.61013199053941,0.449958037689782,0.724864576180668
1580423535.67233,-1.83572137026017,0.203372243839169,0.319096665903714
1580423535.70492,-1.66579690241855,-0.535408560311284,-0.373785000381476
1580423535.7373,-1.42360570687419,-0.395757991912719,-1.2522163729305
1580423535.76967,-1.29811551079576,-0.283939879453728,-1.01149004348821
1580423535.80204,-1.33180743114366,-0.461188677805753,-0.419684138246739
1580423535.83442,-1.03883421072709,0.0314946211947813,0.073975738155184
1580423535.86679,-1.26832990005341,0.468024719615471,0.572030212863357
1580423535.89917,-0.791760128175785,0.2605020218204,0.632578011749448
1580423535.93154,-0.169192034790569,0.824963759822996,0.858167391470207
1580423535.96391,0.402594033722437,0.952895399404898,0.787365529869536
1580423535.99629,0.5085526817731,0.624277103837645,0.558358129243917
1580423536.02866,0.060303654535744,0.512947280079349,0.374273289082169
1580423536.06103,-0.352788586251622,0.277103837644006,0.191653315022506
1580423536.09341,-0.762951094834822,0.649668116273748,0.551033798733503
1580423536.12578,-0.901625085831999,2.0974441138323,0.28442816815442
1580423536.15815,-1.31960021362631,0.381109330891888,1.15602349889372
1580423536.19053,-0.95875486381323,0.239505607690546,1.09840543221179
1580423536.2229,-0.405523765926604,1.13698023956664,0.649179827573054
1580423536.25527,-1.29274433508812,-0.657969024185549,-1.20631723506523
1580423536.28765,-1.27223620965896,0.903578240634776,1.12233157854581
1580423536.32002,0.746349279011216,-0.557381551842527,1.83425650415808
1580423536.35239,-0.461188677805753,1.06764324406805,0.660898756389717
1580423536.38477,-0.906996261539636,0.343511100938429,0.673594262607768
1580423536.41714,-0.88697642481117,0.902601663233387,1.14186312657359
1580423536.44951,-0.655527580682078,0.625253681239034,1.09059281300069
1580423536.48189,-1.23024338139925,0.6452735179675,0.752208743419548
1580423536.51426,-2.0549629968719,0.439703974975203,0.227786678873883
1580423536.54663,-1.77663843747616,-0.309330891889831,-0.207766842145418
1580423536.57901,-1.41091020065614,-0.318608377203022,-0.962661173418784
1580423536.61138,-1.25856412603952,-0.110109102006561,-1.24782177462425
1580423536.64375,-1.24098573281453,-0.178469520103761,-0.673594262607766
1580423536.67613,-1.20631723506523,-0.300541695277333,0.0798352025635154
1580423536.7085,-1.3205767910277,0.572518501564051,0.613046463721677
1580423536.74088,-1.00904859998474,0.307866025787746,0.732677195391776
1580423536.77325,-0.538826581216144,0.295658808270389,0.941176470588236
1580423536.80562,0.253177691309986,0.304448004882886,0.959731441214618
1580423536.83799,0.347905699244677,0.375738155184251,0.450934615091171
1580423536.87037,-0.073975738155184,0.786877241168842,0.513435568780043
1580423536.90274,-0.266361486228734,0.854749370565347,0.272709239337757
1580423536.93511,-0.543221179522392,0.28101014724956,0.916273746852827
1580423536.96749,-0.635996032654306,0.268802929732203,0.872327763790341
1580423537.00006,-1.22096589608606,1.74148165102617,0.434332799267565
1580423537.03243,-0.821057450217442,1.11305409323262,1.22096589608606
1580423537.06481,-0.730235751888303,0.547127489127949,0.613534752422371
1580423537.09718,-0.611581597619592,0.813244831006333,-0.138429846646829
1580423537.12955,-2.39383535515374,-0.219485770962081,0.0607919432364383
1580423537.16193,-0.349370565346762,1.75759517814908,0.953383688105593
1580423537.1943,-0.396734569314107,0.266361486228732,0.155519951171129
1580423537.22668,-1.00025940337224,0.527595941100177,1.11110093842985
1580423537.25905,-0.955825131609064,0.867444876783399,1.09059281300069
1580423537.29142,-0.88014038300145,0.648203250171665,0.985610742351415
1580423537.32379,-1.45925078202487,0.287357900358586,0.747325856412605
1580423537.35617,-1.97683680476081,0.201419089036392,0.303471427481497
1580423537.38854,-1.80544747081712,-0.147219043259327,-0.297611963073168
1580423537.42091,-1.41725795376516,-0.379644464789807,-1.10475318532082
1580423537.45329,-1.33522545204852,-0.161379415579461,-1.2175478751812
1580423537.48566,-1.19459830624857,-0.231204699778743,-0.442145418478676
1580423537.51804,-0.977798123140307,-0.183352407110704,0.284916456855115
1580423537.55041,-0.94166475928893,0.228274967574578,0.606210421911957
1580423537.58278,-0.696055542839703,0.4143129625391,0.577401388570994
1580423537.61516,-0.501228351262684,1.05250629434653,0.720958266575114
1580423537.64753,-0.0324711985961699,1.00953688868544,0.763439383535516
1580423537.6799,0.485114824139771,0.524666208896011,0.737560082398719
1580423537.71228,0.0969253070878153,0.235111009384298,0.614023041123065
1580423537.74465,-0.344487678339819,0.203372243839169,0.309330891889829
1580423537.77702,-0.838147554741742,0.579842832074466,0.625741969939728
1580423537.8094,-0.86305027847715,1.29518577859159,0.565682459754331
1580423537.84177,-1.19264515144579,1.06569008926528,0.829846646829939
1580423537.87414,-0.853284504463264,0.751232166018159,1.28786144808118
1580423537.90652,-0.426520180056459,0.793224994277868,0.677012283512628
1580423537.93889,-0.954848554207675,0.449958037689782,-0.40503547722591
1580423537.97126,-3.03105210955978,-0.379644464789807,-0.458747234302281
1580423538.00364,-0.940688181887541,3.03984130617227,0.506111238269629
1580423538.03601,-0.34692912184329,0.504158083466852,0.509040970473794
1580423538.06838,-0.769787136644542,0.538338292515451,1.18922713054093
1580423538.10076,-0.697032120241092,0.428473334859234,1.03395132372015
1580423538.13313,-0.710215915159838,0.725841153582056,1.1916685740444
1580423538.1655,-1.05152971694514,0.621835660334174,1.04225223163195
1580423538.19788,-1.53786526283665,0.620859082932785,0.572518501564051
1580423538.23025,-1.97244220645457,0.0539559014267184,0.281498435950255
1580423538.26262,-1.69216449225605,-0.424567025253682,-0.299076829175251
1580423538.29523,-1.42946517128252,-0.288822766460671,-1.12819104295415
1580423538.3276,-1.22731364919509,-0.214114595254443,-1.00074769207294
1580423538.35997,-1.13453879606317,-0.496833752956436,-0.525154497596704
1580423538.39235,-0.974380102235447,-0.39478141451133,0.0490730144197755
1580423538.42472,-1.33180743114366,0.691660944533457,0.871351186388953
1580423538.4571,-1.07936217288472,0.762462806134128,0.831799801632716
1580423538.48947,-0.326909285114825,0.450934615091171,1.01686121919585
1580423538.52184,0.142824444953078,0.793224994277868,0.899671931029221
1580423538.55422,0.370855268177309,0.785412375066759,0.529549095902954
1580423538.58659,0.0373540856031127,0.778088044556345,0.274662394140535
1580423538.61897,-0.0959487296864268,1.00270084687572,0.149172198062104
1580423538.65134,-0.12133974212253,0.632578011749448,0.487556267643242
1580423538.68371,-0.589608606088349,0.99635309376669,0.421637293049514
1580423538.71609,-1.22145418478675,0.727306019684139,0.571053635461968
1580423538.74846,-1.13649195086595,0.343022812237734,0.940688181887541
1580423538.78083,-0.432867933165484,1.243427176318,0.463630121309222
1580423538.81321,-0.863538567177844,-0.0563973449301898,-0.311284046692608
1580423538.84558,-2.76639963378348,-0.327397573815519,0.748790722514688
1580423538.87796,0.302006561379415,1.03102159151598,0.0725108720531011
1580423538.91033,-0.188723582818341,1.15407034409094,0.817639429312582
1580423538.9427,-0.709727626459143,0.389410238803691,1.26930647745479
1580423538.97508,-0.874769207293813,0.384039063096054,1.01441977569238
1580423539.00745,-0.78101777676051,0.933363851377127,0.899671931029221
1580423539.03983,-1.07057297627222,0.567147325856414,0.785412375066759
1580423539.0722,-1.60280766002899,0.416754406042571,0.375249866483557
1580423539.10457,-2.03982604715038,-0.0778820477607383,0.0939955748836496
1580423539.13695,-1.57936980239567,-0.602304112306401,-0.579842832074464
1580423539.16932,-1.38258945601587,-0.368413824673839,-1.27272449835966
1580423539.2017,-1.28004882887007,-0.231692988479438,-0.823498893720913
1580423539.23407,-1.13112077515831,-0.685801480125123,-0.305912870984971
1580423539.26644,-0.92457465476463,-0.326909285114825,0.0690928511482412
1580423539.29882,-1.05836575875486,0.649668116273748,0.591561760891128
1580423539.33119,-0.999282825970855,1.71071946288243,1.18483253223468
1580423539.36357,-0.186770428015564,1.10572976272221,0.734630350194553
1580423539.39594,0.183840695811398,0.561776150148777,0.823010605020219
1580423539.42831,0.527595941100177,0.162844281681544,0.835217822537576
1580423539.46069,-0.139406424048218,0.0715342946517126,0.0813000686655982
1580423539.49306,-0.441168841077287,0.593026626993211,0.0187991149767299
1580423539.52543,-0.552986953536278,1.79128709849699,0.289799343862057
1580423539.55781,-0.662363622491798,1.54616617074846,0.398199435416188
1580423539.59042,-1.34987411306935,-0.554940108339055,1.79568169680324
1580423539.6228,-0.936293583581293,1.07106126497291,0.94850080109865
1580423539.65517,-0.281010147249562,1.27565423056382,0.418219272144654
1580423539.68754,-1.80056458381018,-1.74831769283589,-0.719493400473029
1580423539.71992,-1.52858777752346,0.918226901655604,1.06129549095903
1580423539.75229,0.928969253070878,0.179446097505149,1.87917906462196
1580423539.78467,-0.31958495460441,0.82887006942855,0.83228809033341
1580423539.81704,-0.82887006942855,0.368413824673837,1.0300450141146
1580423539.84941,-0.766369115739682,0.852307927061876,1.17067215991455
1580423539.88179,-0.726329442282749,0.885999847409781,1.01344319829099
1580423539.91416,-1.12623788815137,0.630624856946671,0.949965667200733
1580423539.94654,-1.92458991378653,0.521248187991151,0.420660715648125
1580423539.97891,-2.09011978332189,-0.229739833676661,-0.0754406042572668
1580423540.01128,-1.58376440070191,-0.865980010681316,-1.08033875028611
1580423540.04366,-1.18190280003052,-0.368413824673839,-1.44704356450752
1580423540.07603,-1.36403448538949,-0.183840695811398,-0.732677195391775
1580423540.10841,-1.30983443961242,-0.537850003814755,-0.067139696345464
1580423540.14078,-0.981704432745861,0.226810101472495,0.489509422446019
1580423540.17315,-1.06129549095903,0.536385137712674,0.693125810635539
1580423540.20553,-0.549080643930724,0.514412146181431,0.82887006942855
1580423540.2379,0.167727168688486,0.835217822537576,0.947035934996567
1580423540.27027,0.531990539406426,0.847913328755627,0.740978103303579
1580423540.30265,0.220462348363469,0.483161669336994,0.412848096437017
1580423540.33502,-0.214114595254443,0.428961623559928,0.0910658426794839
1580423540.3674,-0.557381551842527,0.603280689707791,0.630136568245977
1580423540.39977,-0.667734798199435,1.12623788815137,0.5769130998703
1580423540.43214,-0.94166475928893,1.65554283970398,0.473395895323108
1580423540.46452,-0.906507972838941,-0.301518272678722,1.2600289921416
1580423540.49689,-0.39478141451133,1.40505073624781,0.317631799801632
1580423540.52927,-1.39333180743114,0.837170977340353,0.35962462806134
1580423540.56164,-2.37723353933013,-1.89480430304418,0.198489356832226
1580423540.59401,-0.98268101014725,2.1916838330663,0.84937819485771
1580423540.62639,-0.0324711985961699,0.714610513466088,0.157473105973907
1580423540.65876,-0.839612420843824,0.905531395437553,1.27467765316243
1580423540.69114,-0.729259174486915,0.426031891355763,1.02613870450904
1580423540.72351,-0.806408789196613,1.06178377965972,1.02027924010071
1580423540.75588,-0.913832303349356,0.637949187457085,0.983169298847944
1580423540.78826,-1.61696803234913,0.51538872358282,0.64869153887236
1580423540.82063,-1.98464942397192,0.167727168688486,0.150148775463492
1580423540.85301,-1.58132295719844,-0.608651865415426,-0.293217364766919
1580423540.88562,-1.29225604638743,-0.390386816205082,-1.1408865491722
1580423540.91799,-1.25905241474022,-0.224856946669718,-0.920668345159076
1580423540.95037,-1.23610284580758,-0.736095216296635,-0.355718318455787
1580423540.98274,-0.987075608453498,-0.279545281147479,0.00268558785381856
1580423541.01512,-1.10719462882429,0.710704203860534,0.407965209430074
1580423541.04749,-0.951430533302815,0.748790722514688,0.583260852979326
1580423541.07987,-0.41528953994049,1.1067063401236,0.752208743419548
1580423541.11224,0.195071335927366,1.07838559548333,0.859143968871596
1580423541.14461,0.611581597619594,0.705821316853591,0.676523994811934
1580423541.17699,0.295658808270389,0.284916456855115,0.383062485694666
1580423541.20936,-0.195071335927366,0.35278858625162,0.172610055695429
1580423541.24174,-0.440192263675899,0.691172655832762,0.381109330891888
1580423541.27411,-0.675059128709849,1.1233081559472,0.358159761959257
1580423541.30649,-1.12721446555276,1.15114061188678,0.45191119249256
1580423541.33886,-1.24098573281453,-0.46997787441825,1.17409018081941
1580423541.37123,-0.654551003280689,1.19508659494926,0.606210421911957
1580423541.40361,-0.248294804303043,1.38649576562142,-0.0153810940718699
1580423541.43598,-2.7644464789807,-1.65456626230259,-0.173586633096818
1580423541.46836,-1.71462577248798,1.6872816052491,0.503181506065463
1580423541.50073,0.371831845578697,0.640878919661251,2.31375600823987
1580423541.53311,-0.315678644998856,0.995864805065995,1.15553521019303
1580423541.56548,-0.886488136110476,0.156984817273212,1.08473334859235
1580423541.59786,-0.695567254139009,0.593514915693905,1.12526131074998
1580423541.63023,-0.683848325322346,0.873792629892424,0.969985503929198
1580423541.66261,-1.17360189211871,0.718028534370948,0.78785381857023
1580423541.69498,-1.61599145494774,0.351323720149537,0.412848096437017
1580423541.72735,-1.91042954146639,-0.0944838635843439,0.0573739223315783
1580423541.75973,-1.45485618371862,-0.419195849546044,-0.676035706111238
1580423541.7921,-1.40309758144503,-0.34692912184329,-1.19703974975204
1580423541.82448,-1.36794079499504,-0.423590447852293,-0.697032120241092
1580423541.85685,-1.35182726787213,-0.714610513466086,-0.297123674372473
1580423541.88923,-1.20582894636454,-0.0612802319371326,0.357183184557869
1580423541.9216,-1.22975509269856,1.15700007629511,0.861097123674373
1580423541.95397,-0.933363851377127,1.34401464866102,1.09010452429999
1580423541.98635,0.101808194094758,0.640390630960557,0.872327763790341
1580423542.01872,0.630136568245977,0.518318455786986,0.899671931029221
1580423542.0511,0.844007019150073,0.183840695811398,0.564217593652248
1580423542.08347,0.110597390707255,0.0500495918211641,0.0700694285496297
1580423542.11585,-0.317631799801633,0.850843060959793,0.166262302586404
1580423542.14822,-0.309819180590525,1.45729762722209,0.436774242771037
1580423542.18085,-1.09987029831388,1.91335927367056,0.544197756923783
1580423542.21322,-1.22389562829023,-1.59938963912413,1.93630884260319
1580423542.2456,-0.769298847943848,1.62624551766232,0.28784618905928
1580423542.27797,-0.201907377737086,1.30836957351034,0.168215457389181
1580423542.31035,-2.39920653086137,-2.18631265735866,-0.442145418478676
1580423542.34272,-1.73659876401923,0.790295262073702,0.978774700541695
1580423542.3751,1.06520180056458,0.316655222400243,1.61745632104982
1580423542.40747,-0.51099412527657,0.840588998245213,0.496833752956434
1580423542.43985,-1.13942168307011,0.329839017318989,0.966079194323644
1580423542.47222,-0.757091630426491,0.731212329289693,1.1067063401236
1580423542.5046,-0.77759975585565,0.752697032120242,0.98268101014725
1580423542.53697,-1.31960021362631,0.551522087434197,0.740001525902191
1580423542.56934,-1.89138628213932,0.42456702525368,0.204348821240558
1580423542.60172,-1.73806363012131,-0.32300297550927,-0.224856946669718
1580423542.63409,-1.45534447241932,-0.675059128709849,-0.995864805065995
1580423542.66647,-1.41530479896239,-0.297123674372473,-1.17897306782635
1580423542.69884,-1.39235523002976,-0.513435568780041,-0.409430075532159
1580423542.73122,-1.06276035706111,-0.518806744487678,-0.060303654535744
1580423542.76359,-0.950942244602121,0.419195849546043,0.491950865949491
1580423542.79597,-0.892835889219501,1.06080720225834,0.360601205462729
1580423542.82834,-0.505622949568933,0.96217288471809,0.553963530937668
1580423542.86072,0.0261234454871442,0.917250324254216,0.957778286411841
1580423542.89309,0.598397802700848,0.440680552376591,0.909925993743801
1580423542.92547,0.235111009384298,-0.0563973449301898,0.466559853513388
1580423542.95784,-0.516853589684901,0.476325627527274,0.239017318989852
1580423542.99022,-0.672617685206378,1.14235141527428,0.496345464255739
1580423543.02259,-0.752697032120242,1.8674601358053,0.329350728618294
1580423543.05497,-1.22340733958953,0.372320134279391,1.02613870450904
1580423543.08734,-0.997817959868772,0.230228122377355,0.999282825970855
1580423543.11972,-0.393316548409247,1.29616235599298,0.6281834134432
1580423543.15209,-1.01881437399863,0.136476691844052,-0.181887541008621
1580423543.18447,-2.03738460364691,-0.217532616159303,0.626718547341117
1580423543.21684,-0.178469520103761,1.61452658884566,0.545174334325171
1580423543.24922,-0.402105745021744,0.686778057526514,0.181887541008621
1580423543.28159,-0.886488136110476,0.555916685740446,1.18532082093538
1580423543.31397,-0.776134889753568,0.778088044556345,1.15114061188678
1580423543.34634,-0.733165484092469,0.907972838941024,0.933852140077821
1580423543.37872,-1.2605172808423,0.632089723048754,0.872327763790341
1580423543.41109,-1.80154116121157,0.584725719081408,0.502693217364769
1580423543.44347,-1.72048523689631,-0.192141603723201,0.0852063782711525
1580423543.47604,-1.4309300373846,-0.535896849011978,-0.554940108339055
1580423543.50842,-1.29176775768673,-0.23315785458152,-1.15992980849927
1580423543.54079,-1.149187457084,-0.360112916762036,-0.778088044556345
1580423543.57317,-1.05397116044862,-0.502204928664073,-0.258548867017625
1580423543.60554,-0.99293507286183,0.201419089036392,0.214602883955138
1580423543.63792,-1.21705958648051,0.810803387502862,0.518318455786986
1580423543.67029,-0.78785381857023,0.481696803234911,0.690684367132068
1580423543.70267,-0.324956130312048,0.675547417410545,1.06715495536736
1580423543.73504,0.104737926298924,0.646250095368888,0.91090257114519
1580423543.76742,0.261966887922483,0.503669794766157,0.443610284580757
1580423543.79979,-0.284916456855116,0.951430533302815,0.0349126420996413
1580423543.83217,-0.327885862516213,1.08278019378958,0.254642557412069
1580423543.86454,-0.247318226901655,0.488532845044631,0.275638971541923
1580423543.89692,-0.952895399404898,1.14332799267567,0.736095216296636
1580423543.92929,-1.0212558175021,-0.414312962539102,1.08278019378958
1580423543.96167,-0.69459067673762,1.55251392385748,0.626230258640422
1580423543.99404,-1.52175173571374,1.13258564126039,0.633554589150837
1580423544.02642,-2.40213626306554,-1.65944914930953,0.333745326924543
1580423544.05879,-0.871839475089647,2.53202105745022,0.389410238803691
1580423544.09117,-0.199465934233615,0.86646829938201,0.234622720683603
1580423544.12354,-0.84596017395285,1.0896162355993,1.60817883573663
1580423544.15592,-0.575448233768215,0.350835431448843,1.34303807125963
1580423544.18829,-0.718028534370946,0.808850232700085,1.18043793392843
1580423544.22066,-0.988540474555581,0.689707789730679,0.985122453650721
1580423544.25304,-1.93923857480736,0.504158083466852,0.555428397039751
1580423544.28541,-1.86941329060807,0.0803234912642097,-0.116456855115587
1580423544.31779,-1.42507057297627,-0.549080643930724,-0.651621271076523
1580423544.35016,-1.44753185320821,-0.40161745632105,-1.18434424353399
1580423544.38254,-1.25856412603952,-0.39136339360647,-0.781506065461205
1580423544.41491,-1.03981078812848,-0.392828259708553,-0.149172198062104
