Timestamp_seconds,Accel_X_g,Accel_Y_g,Accel_Z_g
1580423490.04798,-0.916273746852827,0.346440833142594,-0.222903791866941
1580423490.07973,-0.91432059205005,0.344487678339817,-0.212161440451666
1580423490.11147,-0.901136797131304,0.353276874952314,-0.218509193560692
1580423490.14322,-0.915297169451438,0.353276874952314,-0.215579461356526
1580423490.17497,-0.912367437247273,0.340581368734263,-0.223392080567635
1580423490.20694,-0.906019684138247,0.352300297550926,-0.209719996948195
1580423490.23869,-0.922133211261158,0.346929121843289,-0.203860532539863
1580423490.27043,-0.911390859845884,0.351812008850231,-0.204837109941252
1580423490.30218,-0.922133211261158,0.362066071564811,-0.192141603723201
1580423490.33393,-0.908461127641718,0.350835431448843,-0.210208285648889
1580423490.36567,-0.905043106736859,0.367437247272449,-0.201907377737086
1580423490.39742,-0.914808880750744,0.361089494163423,-0.204348821240558
1580423490.42916,-0.917250324254216,0.344487678339817,-0.187258716716258
1580423490.46091,-0.912367437247273,0.34253452353704,-0.206790264744029
1580423490.49266,-0.906019684138247,0.354741741054397,-0.198489356832226
1580423490.5244,-0.913832303349356,0.358648050659951,-0.213138017853055
1580423490.55615,-0.909437705043107,0.35620660715648,-0.209719996948195
1580423490.5879,-0.919691767757687,0.34937056534676,-0.208743419546806
1580423490.61964,-0.912367437247273,0.35620660715648,-0.200930800335698
1580423490.65139,-0.909437705043107,0.343511100938429,-0.211184863050278
1580423490.68314,-0.911390859845884,0.349858854047454,-0.217532616159303
1580423490.71488,-0.911390859845884,0.35278858625162,-0.215091172655832
1580423490.74663,-0.910414282444496,0.345464255741206,-0.209719996948195
1580423490.77837,-0.910414282444496,0.351323720149537,-0.212649729152361
1580423490.81012,-0.908949416342413,0.34937056534676,-0.217532616159303
1580423490.84187,-0.911390859845884,0.352300297550926,-0.198977645532921
1580423490.87361,-0.905043106736859,0.337163347829403,-0.215579461356526
1580423490.90536,-0.912367437247273,0.347905699244677,-0.198977645532921
1580423490.93711,-0.909437705043107,0.344487678339817,-0.214602883955138
1580423490.96885,-0.905043106736859,0.330815594720377,-0.208255130846112
1580423491.0006,-0.917250324254216,0.334721904325932,-0.219485770962081
1580423491.03234,-0.90748455024033,0.346929121843289,-0.215579461356526
1580423491.06409,-0.916762035553521,0.344975967040511,-0.238529030289158
1580423491.09584,-0.900160219729916,0.338139925230792,-0.237064164187075
1580423491.12758,-0.909925993743801,0.344975967040511,-0.246341649500266
1580423491.15933,-0.906507972838941,0.337163347829403,-0.245853360799572
1580423491.19108,-0.913344014648661,0.336675059128709,-0.256107423514154
1580423491.22282,-0.903089951934081,0.338628213931486,-0.248783093003738
1580423491.25457,-0.895277332722973,0.325932707713434,-0.278568703746091
1580423491.28632,-0.900160219729916,0.330815594720377,-0.286869611657893
1580423491.31806,-0.90748455024033,0.320561532005797,-0.269779507133594
1580423491.34981,-0.878187228198673,0.305424582284274,-0.241458762493323
1580423491.38156,-0.860120546272984,0.294193942168306,-0.253177691309988
1580423491.4133,-0.884046692607004,0.267826352330815,-0.258548867017625
1580423491.44505,-0.894789044022279,0.284916456855115,-0.373785000381476
1580423491.47696,-0.84596017395285,0.334721904325932,-0.363530937666896
1580423491.50871,-0.814709697108416,0.356694895857174,-0.455817502098116
1580423491.54045,-0.816174563210499,0.314213778896772,-0.488044556343938
1580423491.5722,-0.747814145113297,0.221927214465552,-0.516853589684901
1580423491.60395,-0.74586099031052,0.192629892423895,-0.642343785763332
1580423491.63569,-0.850354772259099,0.211673151750972,-0.571541924162661
1580423491.66744,-0.771740291447319,0.368902113374531,-0.512947280079347
1580423491.69919,-0.731700617990386,0.398687724116883,-0.46997787441825
1580423491.73093,-0.793713282978562,0.239505607690546,-0.595468070496681
1580423491.76268,-0.918226901655604,0.268802929732203,-0.357671473258565
1580423491.79443,-1.11891355764095,0.438727397573814,-0.481208514534218
1580423491.82617,-1.09205767910277,0.462653543907834,-1.15651178759441
1580423491.85792,-0.895277332722973,0.0583504997329669,-0.769787136644542
1580423491.88967,-1.14723430228122,-0.272220950637065,-0.0295414663920042
1580423491.92141,-1.12672617685206,0.10424963759823,-0.212161440451666
1580423491.95316,-0.953383688105593,-0.433844510566873,-0.570565346761272
1580423491.98491,-0.792248416876479,-0.426520180056459,-0.267826352330816
1580423492.01666,-0.97584496833753,-0.0827649347676811,-0.321049820706493
1580423492.0484,-0.823987182421607,0.228763256275272,-0.549080643930724
1580423492.08015,-0.726329442282749,0.323979552910657,-0.446540016784924
1580423492.1119,-0.733165484092469,0.123781185626001,-0.525154497596704
1580423492.14364,-0.691660944533455,-0.156496528572518,-0.576913099870298
1580423492.17539,-0.771252002746625,-0.395757991912719,-0.559822995345998
1580423492.20714,-0.854749370565347,-0.37427328908217,-0.45630579079881
1580423492.23888,-0.949477378500038,-0.260013733119708,-0.410406652933547
1580423492.27063,-1.08424505989166,-0.113527122911421,-0.380621042191196
1580423492.30238,-1.0295567254139,-0.0686045624475469,-0.295170519569696
1580423492.33412,-0.776134889753568,-0.160402838178072,-0.637460898756389
1580423492.36587,-0.461676966506447,-0.364995803768979,-1.22780193789578
1580423492.39762,-0.193606469825284,-0.424078736552987,-1.2004577706569
1580423492.42936,0.134035248340581,-0.286869611657893,-1.29909208819715
1580423492.46111,-0.443121995880064,-0.103761348897535,-0.843030441748684
1580423492.49286,-2.89628442816815,0.331303883421072,-0.320073243305105
1580423492.52461,-1.62917524986648,0.35278858625162,-0.283451590753033
1580423492.55635,-1.80447089341573,0.830334935530633,-0.212649729152361
1580423492.5881,-1.51149767299916,-0.261966887922485,-1.09254596780346
1580423492.61985,-0.351812008850233,-1.09059281300069,0.752208743419548
1580423492.65159,-0.231204699778743,-0.781994354161899,0.323491264209963
1580423492.68334,-0.0490730144197755,-0.300541695277333,-1.32790112153811
1580423492.71509,0.467536430914777,2.52176699473564,-0.803967345693142
1580423492.74695,-0.546639200427252,0.462653543907834,-1.58327611200122
1580423492.77869,-1.42165255207141,-2.22195773250935,-2.09646753643091
1580423492.81044,-1.79568169680324,1.5598382543679,-0.195071335927366
1580423492.84219,-1.67312123292897,1.48757152666514,1.3801480125124
1580423492.87393,-2.27518120088502,-0.949965667200733,-0.331792172121768
1580423492.90568,-2.04959182116426,-1.35280384527352,-0.238040741588463
1580423492.93743,-1.37282368200198,-0.621347371633478,-0.702891584649423
1580423492.96918,-1.17360189211871,-0.437262531471733,-1.01051346608682
1580423493.00092,-0.459235523002976,0.258060578316929,-1.06764324406805
1580423493.03267,-0.155031662470435,0.114015411612115,-1.41530479896239
1580423493.06442,-0.300541695277333,-0.465094987411307,-1.14576943617914
1580423493.09616,-0.0588387884336612,-0.368902113374533,-1.12281986724651
1580423493.12791,0.765880827038988,-0.227786678873883,-1.05152971694514
1580423493.15966,0.594491493095294,-0.614999618524452,-0.795178149080645
1580423493.1914,-0.704356450751506,-0.0563973449301898,0.245853360799572
1580423493.22315,-2.63553826199741,1.02809185931182,-0.305912870984971
1580423493.2549,-2.01297016861219,-0.468024719615473,-1.59304188601511
1580423493.28664,-1.71804379339284,-0.0974135957885096,-0.928480964370184
1580423493.31839,-2.23123521782254,-0.316166933699551,-0.594003204394598
1580423493.35014,-1.84499885557336,-0.364507515068285,-0.0983901731898982
1580423493.38188,-1.26637674525063,-0.479255359731441,-0.0471198596169984
1580423493.41363,-1.09938200961318,1.15309376668955,-0.162844281681544
1580423493.44538,-0.404547188525216,-0.924086366063936,0.0388189517051956
1580423493.47713,-0.137453269245441,-0.471442740520333,-0.750255588616771
1580423493.50887,0.198977645532921,-0.00122072175173571,-0.693614099336232
1580423493.54062,0.202883955138475,0.290287632562752,-0.259037155718319
1580423493.57237,-0.182375829709315,-0.0817883573662925,-0.91090257114519
1580423493.60411,-0.608163576714732,-0.232181277180132,-0.573983367666132
1580423493.63586,-2.32498664835584,-0.681406881818875,-0.041260395208667
1580423493.66761,-1.0300450141146,1.06080720225834,-0.220462348363469
1580423493.69935,-1.54421301594568,0.489997711146714,0.218509193560692
1580423493.7311,-2.10720988784619,-0.937758449683376,-0.957778286411841
1580423493.76285,-1.8498817425803,-1.25368123903258,-0.298100251773862
1580423493.79459,-1.94216830701152,-0.584237430380712,-0.541268024719615
1580423493.82634,-1.70778973067826,0.178957808804455,-0.548104066529335
1580423493.85809,-1.33571374074922,0.329350728618294,-1.05690089265278
1580423493.88983,-0.302983138780805,-0.489997711146716,-2.32449835965515
1580423493.92158,1.05104142824445,-0.576913099870298,-0.841077286945907
1580423493.95333,0.571053635461968,-0.117433432516975,-0.865491721980622
1580423493.98508,0.219485770962081,-0.137941557946135,-0.628671702143892
1580423494.01697,-0.303471427481499,-0.185305561913481,-0.300541695277333
1580423494.04871,-0.930434119172961,0.0725108720531011,-0.296635385671779
1580423494.08046,-2.42069123369192,-0.313725490196079,-0.385992217898833
1580423494.11221,-1.65212481879911,0.0993667505912867,-0.624765392538338
1580423494.14396,-1.70534828717479,-0.160402838178072,-1.15309376668955
1580423494.1757,-1.74099336232547,-0.122316319523918,-0.900160219729916
1580423494.20745,-1.76980239566644,-0.288822766460671,-0.580819409475852
1580423494.2392,-1.46950484473945,-0.427496757457847,0.355718318455786
1580423494.27095,-1.51442740520333,-0.995376516365301,-0.508552681773098
1580423494.30269,-0.209719996948195,0.0861829556725411,-0.658457312886243
1580423494.33444,0.154543373769741,-0.0129396505683985,-0.575448233768215
1580423494.36619,0.421637293049514,0.258548867017623,-0.836194399938964
1580423494.39793,-0.137941557946135,-0.193118181124589,-0.455329213397421
1580423494.42968,-0.0461432822156098,-0.0871595330739297,0.0573739223315783
1580423494.46143,-0.706309605554283,-0.358648050659953,-0.764904249637599
1580423494.49318,-0.309819180590525,-1.30983443961242,-0.920668345159076
1580423494.52492,-1.55202563515679,0.990005340657664,-0.284916456855116
1580423494.55667,-1.61208514534218,0.544686045624477,0.87672236209659
1580423494.58842,-1.99343862058442,0.482673380636299,0.428473334859234
1580423494.62017,-1.93435568780041,-0.564217593652247,-0.668223086900129
1580423494.65191,-2.02468909742885,-0.97584496833753,-0.0651865415426869
1580423494.68366,-1.80398260471504,-0.788830395971619,-0.368413824673839
1580423494.71541,-1.25123979552911,0.123781185626001,-0.98951705195697
1580423494.74716,-0.902113374532693,0.235111009384298,-1.37233539330129
1580423494.7789,-0.557381551842527,-0.375249866483559,-1.28395513847562
1580423494.81065,0.64869153887236,-0.596444647898069,-1.39967956054017
1580423494.8424,0.698496986343176,-0.01196307316701,-0.776623178454262
1580423494.87415,0.280033569848172,-0.0432135500114441,-0.627695124742504
1580423494.90589,-0.0891126878767068,-0.197512779430838,-0.457282368200199
1580423494.93764,-1.29665064469368,0.0339360646982527,-0.378667887388419
1580423494.96939,-2.50125886930648,-0.167727168688486,-0.244388494697489
1580423495.00113,-1.60524910353246,0.235599298084992,-0.280521858548868
1580423495.03288,-1.93044937819486,-0.0744640268558783,-1.50563820859083
1580423495.06463,-1.78103303578241,-0.214114595254443,-0.974868390936141
1580423495.09638,-1.98806744487678,-0.482673380636301,0.204348821240558
1580423495.12812,-1.5681391622797,-0.198489356832226,1.53835355153735
1580423495.15987,-0.958266575112535,0.645761806668194,-1.17067215991455
1580423495.19162,0.41773098344396,-0.889906157015336,-0.352300297550928
1580423495.22337,0.133546959639887,0.656504158083468,-0.301518272678722
1580423495.25511,-0.0324711985961699,-0.499763485160601,-0.457770656900893
1580423495.28693,-0.137453269245441,-0.0280766002899213,-0.278080415045396
1580423495.31867,-0.282475013351645,-0.280521858548868,-0.915785458152133
1580423495.35042,-0.572518501564049,-0.894789044022279,-0.734630350194552
1580423495.38217,-1.850370031281,1.03541618982223,-0.268802929732205
1580423495.41391,-1.5681391622797,0.383062485694666,0.825940337224385
1580423495.44566,-1.6789806973373,0.717540245670254,0.406012054627297
1580423495.47741,-2.12283512626841,-0.288334477759976,-0.369878690775922
1580423495.50916,-2.08523689631495,-1.10963607232776,-0.100343327992675
1580423495.5409,-1.74831769283589,-0.720469977874417,-0.517341878385595
1580423495.57265,-1.1916685740444,-0.096437018387121,-1.26295872434577
1580423495.6044,-0.876234073395896,0.0598153658350498,-1.32594796673533
1580423495.63615,-0.273685816739148,-0.472419317921721,-1.47634088654917
1580423495.66789,0.90406652933547,-0.288822766460671,-1.18190280003052
1580423495.69964,0.508064393072406,0.205325398641946,-0.910414282444496
1580423495.73139,0.0778820477607383,-0.307866025787748,-0.635507743953612
1580423495.76314,-0.47339589532311,-0.323979552910659,-0.538826581216144
1580423495.79488,-2.23074692912184,0.167238879987792,-0.287357900358588
1580423495.82663,-2.11355764095521,-0.0900892652780954,-0.313725490196079
1580423495.85838,-1.77175555046922,0.129640650034332,-0.780529488059816
1580423495.89013,-2.0637521934844,-0.170168612191958,-1.26979476615549
1580423495.92187,-1.86843671320668,-0.0368657969024184,-0.427496757457847
1580423495.95362,-1.70681315327687,-0.381597619592585,0.254154268711375
1580423495.98537,-1.23219653620203,-0.0417486839093613,0.805920500495919
1580423496.01711,-0.92799267566949,0.0974135957885096,-0.823010605020219
1580423496.04886,0.249759670405126,-0.540291447318227,-0.489509422446021
1580423496.08061,0.238529030289158,0.547615777828643,-0.585214007782101
1580423496.11236,-0.0168459601739528,-0.238529030289158,-0.333745326924545
1580423496.1441,-0.0495613031204698,-0.0842298008697639,-0.290775921263448
1580423496.17585,-0.53150225070573,-0.146242465857938,-0.765392538338293
1580423496.2076,-0.80836194399939,-2.83036545357443,-0.657969024185549
1580423496.23935,-1.5339589532311,0.317631799801632,0.422125581750208
1580423496.27109,-1.62868696116579,0.838635843442436,0.646250095368888
1580423496.30284,-1.65847257190814,0.162844281681544,-0.619882505531395
1580423496.33459,-2.29324788281071,-1.38063630121309,-0.199954222934309
1580423496.36633,-1.80154116121157,-1.1574883649958,-0.113038834210727
1580423496.39808,-1.64040588998245,-0.324956130312048,-0.762951094834822
1580423496.42983,-1.22780193789578,0.226321812771801,-0.864515144579233
1580423496.46158,-0.802990768291753,0.0490730144197755,-1.64870679789425
1580423496.49332,0.305912870984969,-0.659433890287632,-1.79421683070115
1580423496.52507,1.06617837796597,-0.185793850614175,-0.966079194323644
1580423496.55701,0.4484931715877,0.226810101472495,-0.760021362630656
1580423496.58875,-0.181887541008621,-0.351323720149539,-0.465094987411307
1580423496.6205,-1.03590447852293,-0.0456549935149155,-0.464606698710613
1580423496.65225,-2.77714198519875,-0.744396124208437,0.123292896925307
1580423496.684,-1.6277103837644,0.0441901274128327,-0.640390630960555
1580423496.71575,-1.9016403448539,-0.218997482261386,-1.39284351873045
1580423496.74749,-2.04959182116426,-0.165774013885709,-0.628183413443198
1580423496.77924,-1.79958800640879,-0.309819180590525,0.0295414663920042
1580423496.81099,-1.56911573968109,-0.0393072404058898,0.851331349660487
1580423496.84274,-0.932387273975738,0.664805065995271,-1.07545586327916
1580423496.87449,0.0905775539787896,-1.19899290455482,-0.250736247806516
1580423496.90623,0.0695811398489354,0.472907606622414,-0.605233844510566
1580423496.93798,0.0622568093385212,-0.447028305485619,-0.44946974898909
1580423496.96973,0.0842298008697639,0.0622568093385212,-0.309330891889831
1580423497.00148,-0.348393987945373,-0.407965209430076,-0.738536659800106
1580423497.03322,-0.81519798580911,-0.758068207827879,-0.531013962005035
1580423497.06497,-1.70974288548104,0.923109788662547,-0.370366979476616
1580423497.09672,-1.60915541313802,0.037842374303807,0.850354772259099
1580423497.12847,-1.95925841153582,0.561776150148777,0.683360036621654
1580423497.16021,-2.07449454489967,-0.727306019684137,-0.679942015716792
1580423497.19196,-1.84402227817197,-0.929457541771573,-0.354253452353705
1580423497.22371,-1.73464560921645,-0.662851911192492,-0.523201342793927
1580423497.25546,-1.12770275425345,0.101808194094758,-1.08863965819791
1580423497.28721,-0.731212329289692,0.134523537041275,-1.19118028534371
1580423497.31895,-0.188723582818341,-0.687266346227206,-1.38747234302281
1580423497.3507,0.919691767757687,-0.206301976043335,-0.507087815671015
1580423497.38245,0.469489585717554,-0.0349126420996413,-0.90748455024033
1580423497.4142,0.146730754558632,-0.237064164187075,-0.689707789730678
1580423497.44595,-0.529549095902953,-0.240970473792629,-0.55201037613489
1580423497.47769,-2.93876554512856,-0.452399481193256,-0.247318226901655
1580423497.50944,-1.84646372167544,-0.00805676356145568,-0.103273060196841
1580423497.54119,-1.97586022735943,0.130617227435721,-0.572518501564049
1580423497.57294,-1.80349431601434,-0.153078507667658,-1.36842908369574
1580423497.60468,-1.78347447928588,-0.245853360799572,-0.714122224765392
1580423497.63643,-1.74294651712825,-0.199954222934309,0.337651636530097
1580423497.66818,-1.40163271534295,-0.129152361333638,1.95437552452888
1580423497.69993,-0.846936751354239,-0.0632333867399097,-1.46657511253529
1580423497.73168,0.533943694209203,-0.74244296940566,-0.502693217364767
1580423497.76342,0.224368657969023,0.394781414511328,-0.419195849546044
1580423497.79517,-0.158937972075989,-0.332280460822462,-0.409918364232853
1580423497.82706,-0.0183108262760356,0.00659189745937283,-0.411383230334936
1580423497.8588,-0.46314183260853,0.0900892652780954,-0.676035706111238
1580423497.89055,-0.802502479591059,-1.56081483176928,-0.681406881818875
1580423497.9223,-1.39626153963531,0.589608606088351,-0.0144045166704814
1580423497.95405,-1.52565804531929,0.037842374303807,0.960708018616007
1580423497.9858,-1.77468528267338,0.312260624093994,-0.209231708247501
1580423498.01754,-2.06570534828717,-0.549568932631418,-0.0700694285496297
1580423498.04929,-1.86257724879835,-0.911390859845884,-0.200930800335698
1580423498.08104,-1.67458609903105,-0.579842832074464,-0.40161745632105
1580423498.11279,-1.44069581139849,0.0803234912642097,-0.807873655298696
1580423498.14453,-1.26832990005341,0.0939955748836496,-1.11891355764095
1580423498.17628,-0.652597848477912,-0.192629892423895,-1.64333562218662
1580423498.20803,0.728282597085528,-0.45630579079881,-1.20534065766384
1580423498.23978,0.643808651865417,-0.672129396505683,-0.855237659266042
1580423498.27153,-0.0441901274128327,-0.0163576714732585,-0.820569161516747
1580423498.30327,-0.0129396505683985,-0.217532616159303,-0.648203250171663
1580423498.33502,-1.21022354467079,-0.122804608224612,-0.281498435950256
1580423498.36677,-2.44119935912108,-0.0954604409857325,0.080811779964904
1580423498.39852,-1.55349050125887,0.286381322957197,-0.316166933699551
1580423498.43026,-1.72439154650187,0.2434119172961,-1.16237125200275
1580423498.46201,-1.76247806515602,-0.306889448386359,-1.57936980239567
1580423498.49376,-2.2947127489128,-0.595956359197375,-0.0441901274128327
1580423498.52551,-1.93972686350805,-0.362066071564813,0.619882505531397
1580423498.55726,-1.02809185931182,0.194583047226672,0.205813687342641
1580423498.589,-0.396246280613413,-0.0769054703593497,-0.760997940032045
1580423498.62075,-0.100343327992675,-0.416754406042573,-0.190188448920424
1580423498.6525,-0.000732433051041426,0.371831845578697,-0.872327763790341
1580423498.68425,-0.0754406042572668,-0.0715342946517126,-0.376714732585642
1580423498.71599,0.0920424200808725,-0.0168459601739528,-0.0407721065079727
1580423498.74774,-0.781994354161899,-0.240970473792629,-1.08668650339513
1580423498.77949,-0.820569161516747,-2.24246585793851,-0.648691538872358
1580423498.81124,-1.75466544594492,0.398199435416188,0.00219729915312428
1580423498.84299,-1.46120393682765,-0.0744640268558783,0.684824902723737
1580423498.87473,-1.95779354543374,0.143801022354467,0.148683909361409
1580423498.90648,-1.88601510643168,-0.44605172808423,-0.678965438315403
1580423498.93823,-1.88747997253376,-0.618905928130006,-0.265384908827345
1580423498.96998,-1.72097352559701,-0.82545204852369,-0.0783703364614325
1580423499.00173,-1.21950102998398,-0.160891126878766,-1.21412985427634
1580423499.03347,-0.911390859845884,0.0632333867399097,-1.51931029221027
1580423499.06522,-0.497810330357824,-0.0573739223315783,-1.10914778362707
1580423499.09708,1.12037842374304,-0.392339971007859,-0.836682688639659
1580423499.12882,0.522713054093234,-0.0549324788281069,-1.05836575875486
1580423499.16057,0.126710917830167,-0.208255130846112,-0.802502479591059
1580423499.19232,-0.172610055695429,-0.384039063096056,-0.516853589684901
1580423499.22407,-2.19754329747463,0.104737926298924,-0.123292896925307
1580423499.25582,-2.20486762798505,-0.101808194094758,-0.617929350728618
1580423499.28757,-1.68239871824216,0.218020904859998,-0.741466392004272
1580423499.31931,-2.03738460364691,-0.106691081101701,-1.40798046845197
1580423499.35106,-1.82790875104906,-0.344975967040513,-0.805432211795225
1580423499.38281,-2.04080262455177,-0.381597619592585,1.28639658197909
1580423499.41456,-1.81081864652476,-0.607186999313344,0.470954451819637
1580423499.44631,-0.197512779430838,0.291752498664835,-0.612069886320286
1580423499.47806,0.0456549935149155,-0.738048371099412,-0.335210193026628
1580423499.5098,0.211673151750972,0.619394216830703,-0.797131303883422
1580423499.54155,-0.0891126878767068,-0.286381322957199,-0.358648050659953
1580423499.5733,-0.031006332494087,0.278568703746089,-0.49390402075227
1580423499.60505,-0.571053635461967,-0.172610055695429,-0.920180056458381
1580423499.6368,-1.44704356450752,-2.29861905851835,-0.221927214465552
1580423499.66855,-1.7990997177081,0.3117723353933,0.037842374303807
1580423499.70029,-1.43776607919432,0.392339971007857,0.468513008316165
1580423499.73204,-1.82790875104906,0.224368657969023,-0.331303883421073
1580423499.76379,-1.95877012283513,-0.831311512932022,-0.420172426947433
1580423499.79554,-1.84646372167544,-0.966079194323644,-0.0471198596169984
1580423499.82729,-1.57155718318456,-0.53150225070573,-0.492439154650187
1580423499.85904,-1.19118028534371,0.225833524071106,-0.990005340657664
1580423499.89078,-0.940199893186847,0.121828030823224,-1.1403982604715
1580423499.92253,-0.684824902723735,-0.415777828641184,-1.14723430228122
1580423499.95428,0.656015869382774,-0.83912413214313,-1.51247425040055
1580423499.98603,0.509040970473794,-0.240970473792629,-0.448493171587701
1580423500.01778,0.313237201495383,0.140871290150301,-0.757579919127185
1580423500.04953,-0.227786678873883,-0.0451667048142212,-0.681406881818875
1580423500.08127,-2.11062790875105,0.275638971541923,-0.44946974898909
1580423500.11302,-2.15066758220798,-0.136476691844052,-0.223392080567635
1580423500.14477,-1.5339589532311,0.0720225833524069,-0.376226443884947
1580423500.17652,-1.94070344090944,-0.168703746089875,-1.44948500801099
1580423500.20827,-1.93240253299764,-0.235111009384298,-0.870374608987564
1580423500.24002,-1.80788891432059,-0.0832532234683754,0.108155947203784
1580423500.27176,-1.30690470740826,0.169192034790569,0.748302433813993
1580423500.30351,-1.35573357747768,-0.754650186923019,-0.43921568627451
1580423500.33526,0.185305561913481,-0.0935072861829553,-0.796643015182728
1580423500.36716,0.406012054627297,-0.113527122911421,-0.52466620889601
1580423500.39891,0.0788586251621268,-0.0046387426565957,-0.644296940566109
1580423500.43065,-0.144289311055161,-0.265873197528039,-0.373296711680782
1580423500.4624,-0.317143511100939,-0.315190356298162,-0.851331349660487
1580423500.49415,-0.976333257038224,-0.865003433279927,-0.286869611657893
1580423500.5259,-1.73562218661784,0.968032349126421,-0.111573968108644
1580423500.55765,-1.36696421759365,0.0432135500114441,0.406500343327991
1580423500.5894,-1.81765468833448,0.200442511635003,0.147707331960021
1580423500.62114,-1.83083848325322,-0.52124818799115,-0.526131074998093
1580423500.65289,-1.9695124742504,-0.957778286411841,0.0910658426794839
1580423500.68464,-1.73806363012131,-0.719493400473029,-0.323979552910659
1580423500.71639,-1.30397497520409,0.106202792401007,-0.969985503929198
1580423500.74814,-0.886488136110476,0.3288624399176,-1.15016403448539
1580423500.77988,-0.675547417410543,-0.0319829098954756,-1.10475318532082
1580423500.81163,0.144777599755855,-0.94508278019379,-1.62722209506371
1580423500.84338,0.767833981841765,-0.663340199893186,-0.580819409475852
1580423500.87513,0.313237201495383,-0.168215457389181,-0.563241016250858
1580423500.90688,0.0520027466239412,-0.123292896925307,-0.534431982909895
1580423500.93863,-0.748302433813992,0.0632333867399097,-0.685313191424429
1580423500.97037,-2.81766994735638,-0.183840695811398,-0.174074921797512
1580423501.00212,-1.43825436789502,0.0202639810788128,-0.234622720683603
1580423501.03387,-2.02566567483024,0.063721675440604,-1.0466468299382
1580423501.06562,-1.59890135042344,-0.0266117341878385,-1.33180743114366
1580423501.09737,-1.68972304875257,-0.151613641565575,-0.544197756923781
1580423501.12912,-1.69655909056229,-0.223880369268329,-0.0173342488746471
1580423501.16086,-0.957778286411841,-0.522713054093233,0.439703974975203
1580423501.19261,-0.955825131609064,-0.752208743419548,-0.491950865949493
1580423501.22436,0.375249866483557,0.729259174486916,-0.184328984512092
1580423501.25611,0.272220950637063,-0.0163576714732585,-0.701915007248035
1580423501.28786,-0.0485847257190812,0.385992217898831,-0.280521858548868
1580423501.3196,-0.187747005416952,-0.432867933165484,-0.498298619058518
1580423501.35135,-0.665293354695963,-0.371831845578699,-1.06861982146944
1580423501.3831,-2.0461738002594,-0.892347600518807,-0.285404745555811
1580423501.41485,-1.56667429617761,0.725841153582056,0.194094758525978
1580423501.4466,-1.45192645151446,0.866956588082704,0.36646066987106
1580423501.47835,-2.28641184100099,-0.404547188525216,-0.389410238803693
1580423501.51009,-1.88259708552682,-1.29518577859159,-0.372808422980087
1580423501.54184,-1.661890592813,-0.729259174486915,-0.478767071030747
1580423501.57359,-1.49391927977417,0.00805676356145568,-0.816662851911193
1580423501.60534,-1.05738918135348,0.320561532005797,-0.796643015182728
1580423501.63721,-0.614511329823758,-0.0397955291065841,-1.42848859388113
1580423501.66895,0.375738155184251,-0.800549324788282,-1.62526894026093
1580423501.7007,0.818127718013276,-0.491950865949493,-0.53150225070573
1580423501.73245,0.561776150148777,-0.0407721065079727,-0.793713282978562
1580423501.7642,-0.0661631189440754,-0.0612802319371326,-0.508064393072404
1580423501.79595,-0.828381780727856,0.0759288929579611,-0.756115053025102
1580423501.8277,-2.59598687724117,-0.520271610589761,-0.429449912260624
1580423501.85944,-1.65407797360189,-0.178469520103761,-0.398687724116884
1580423501.89119,-2.0461738002594,-0.218997482261386,-0.911390859845884
1580423501.92294,-1.80495918211643,-0.0993667505912867,-1.0295567254139
1580423501.95469,-1.80349431601434,-0.112550545510032,-0.695567254139009
1580423501.98644,-1.90701152056153,-0.0295414663920042,0.402105745021743
1580423502.01819,-1.25416952773327,-0.0930189974822611,0.983169298847944
1580423502.04993,-0.759533073929962,-0.0817883573662925,-1.05885404745556
1580423502.08168,0.0197756923781185,-0.573983367666132,-0.196047913328755
1580423502.11343,0.00805676356145568,0.357671473258563,-0.564705882352941
1580423502.14518,0.0759288929579611,-0.0886243991760125,-0.429449912260624
1580423502.17693,-0.0505378805218584,0.338628213931486,-0.172610055695429
1580423502.20868,-0.681895170519569,-0.306889448386359,-0.759044785229268
1580423502.24042,-0.48706797894255,-2.49344625009537,-0.782970931563288
1580423502.27217,-0.96559090562295,1.08815136949721,-0.172610055695429
1580423502.30392,-1.66091401541161,0.245365072098878,0.713633936064699
1580423502.33567,-1.6877698939498,0.65210955977722,0.107179369802395
1580423502.36742,-2.00271610589761,-0.540291447318227,-0.477790493629358
1580423502.39917,-1.98171969176776,-0.937270160982681,0.0813000686655982
1580423502.43091,-1.77956816968032,-0.935805294880598,-0.297123674372473
1580423502.46266,-1.09498741130693,-0.0930189974822611,-1.14674601358053
1580423502.49441,-1.04567025253681,0.192629892423895,-1.24928664072633
1580423502.52616,-0.469489585717556,-0.43237964446479,-1.68044556343938
1580423502.55791,0.80836194399939,-0.313725490196079,-0.750255588616771
1580423502.58966,0.661875333791105,-0.229739833676661,-0.855237659266042
1580423502.6214,0.181399252307926,-0.256107423514154,-0.702891584649423
1580423502.65315,-0.199954222934309,-0.355230029755093,-0.589120317387655
1580423502.6849,-2.23318837262531,0.283939879453726,-0.10766765850309
1580423502.71665,-2.02566567483024,-0.132570382238498,-0.388921950102999
1580423502.7484,-1.65993743801022,0.268802929732203,-0.865003433279927
1580423502.78014,-1.87771419851988,0.0534676127260241,-1.21022354467079
1580423502.81189,-1.71755550469215,-0.208255130846112,-0.672129396505683
1580423502.84364,-1.71706721599145,-0.186770428015564,-0.0520027466239412
1580423502.87539,-1.26198214694438,0.00170901045242999,0.934340428778516
1580423502.90723,-1.15700007629511,-0.375249866483559,-0.731700617990386
1580423502.93897,0.0563973449301898,-0.46655985351339,-0.409430075532159
1580423502.97072,0.0217288471808956,0.222415503166246,-0.287357900358588
1580423503.00247,0.102784771496147,-0.154055085069047,-0.466071564812696
1580423503.03422,-0.0573739223315783,-0.0134279392690928,-0.476325627527276
1580423503.06597,-0.356694895857176,-0.150637064164187,-0.722911421377889
1580423503.09772,-0.782970931563288,-1.4651102464332,-0.521736476691844
1580423503.12946,-1.61989776455329,0.581795986877243,-0.119874876020447
1580423503.16121,-1.49245441367208,0.157473105973907,0.598397802700848
1580423503.19296,-1.76540779736019,0.343999389639123,0.30151827267872
1580423503.22471,-1.95437552452888,-0.329350728618296,-0.23315785458152
1580423503.25646,-2.0808422980087,-0.886488136110476,-0.0129396505683985
1580423503.28821,-1.70632486457618,-0.666758220798046,-0.52124818799115
1580423503.31995,-0.995376516365301,0.0129396505683985,-1.0896162355993
1580423503.3517,-0.756115053025102,0.0783703364614325,-1.18190280003052
1580423503.38345,-0.599862668802929,-0.490974288548104,-1.28004882887007
1580423503.4152,0.605722133211263,-0.529060807202258,-1.13893339436942
1580423503.44695,0.584237430380714,0.0617685206378269,-0.750743877317465
1580423503.47869,0.269291218432897,-0.10766765850309,-0.728282597085526
1580423503.51044,-0.281986724650951,-0.229739833676661,-0.565194171053635
1580423503.54219,-1.97390707255665,0.294193942168306,-0.238529030289158
1580423503.57394,-2.15603875791562,-0.0124513618677042,-0.0979018844892039
1580423503.60569,-1.8332799267567,0.100343327992675,-0.149172198062104
1580423503.63744,-1.93777370870527,0.0646982528419926,-1.21315327687495
1580423503.66918,-1.51100938429847,-0.0788586251621268,-1.15602349889372
1580423503.70093,-1.74489967193103,-0.433844510566873,-0.373296711680782
1580423503.73268,-1.48024719615473,-0.237064164187075,0.137941557946135
1580423503.76443,-0.771740291447319,-0.604257267109178,1.44948500801098
1580423503.79618,-0.411383230334936,0.378667887388417,-1.59890135042344
1580423503.82793,0.882093537804227,-0.471931029221027,0.0520027466239412
1580423503.85967,0.205325398641946,0.219485770962081,-0.521736476691844
1580423503.89142,0.0339360646982527,-0.0290531776913099,-0.00512703135728998
1580423503.92317,-0.529060807202258,0.166750591287098,-1.08619821469444
1580423503.95492,-0.580331120775158,-1.66628519111925,-0.96217288471809
1580423503.98667,-1.62526894026093,0.379156176089111,0.458258945601585
1580423504.01842,-1.56569771877623,0.368413824673837,0.718028534370948
1580423504.05016,-1.67702754253452,0.460212100404362,-0.116945143816281
1580423504.08191,-2.17752346074617,-0.533455405508507,-0.177981231403066
1580423504.11366,-1.97097734035248,-0.789806973373008,-0.221927214465552
1580423504.14541,-1.69997711146715,-0.885511558709087,-0.305424582284276
1580423504.17728,-1.19996948195621,-0.127687495231555,-1.00611886778058
1580423504.20902,-0.940199893186847,0.215091172655832,-1.48464179446098
1580423504.24077,-0.451422903791867,-0.238529030289158,-1.3454795147631
1580423504.27252,0.687266346227208,-0.705821316853589,-1.31032272831312
1580423504.30427,0.671641107804991,-0.343022812237736,-0.645761806668192
1580423504.33602,0.265873197528038,-0.23315785458152,-0.652597848477912
1580423504.36777,-0.10083161669337,-0.222415503166246,-0.485114824139773
1580423504.39951,-1.4822003509575,0.165285725185015,-0.11450370031281
1580423504.43126,-2.5764553292134,0.145265888456549,0.210696574349583
1580423504.46301,-1.15846494239719,0.406012054627297,-0.316655222400245
1580423504.49476,-1.81521324483101,0.216556038757915,-1.48024719615473
1580423504.52651,-1.42604715037766,-0.112062256809338,-1.17360189211871
1580423504.55826,-1.68239871824216,-0.402594033722439,-0.532478828107118
1580423504.59,-1.54714274814984,-0.454840924696727,0.211673151750972
1580423504.62175,-1.04274052033265,-0.652597848477912,1.01783779659724
1580423504.6535,-1.15358205539025,0.0192874036774242,-1.16725413900969
1580423504.68525,0.375738155184251,-0.191653315022506,-0.0500495918211641
1580423504.717,0.25708400091554,0.359136339360646,-0.630136568245975
1580423504.74875,-0.165285725185015,0.144777599755855,0.0324711985961699
1580423504.78049,-0.447028305485619,-0.108644235904478,-0.347417410543985
1580423504.81224,-0.807385366598002,-0.182375829709315,-1.31471732661936
1580423504.84399,-2.07693598840314,-0.538826581216144,-1.01979095140002
1580423504.87574,-1.75271229114214,-0.0661631189440754,0.433844510566871
1580423504.90749,-1.41335164415961,0.368413824673837,0.759044785229268
1580423504.93923,-1.74001678492409,0.177492942702372,-0.472907606622416
1580423504.97098,-1.94119172961013,-0.640390630960555,-0.378667887388419
1580423505.00273,-1.9866025787747,-0.788342107270925,-0.144777599755855
1580423505.03448,-1.71999694819562,-0.792248416876479,-0.382085908293279
1580423505.06623,-1.43483634699016,-0.143312733653772,-1.51931029221027
1580423505.09798,-0.934340428778516,0.175539787899595,-1.42360570687419
1580423505.12972,0.324956130312046,-0.660898756389715,-1.38503089951934
1580423505.16147,0.834241245136187,-0.625253681239032,-1.04274052033265
1580423505.19322,0.0935072861829553,0.391363393606468,-0.728282597085526
1580423505.22497,0.0266117341878385,-0.246341649500266,-0.719005111772335
1580423505.25672,-0.378179598687725,-0.427008468757153,-0.512458991378653
1580423505.28847,-2.73270771343557,0.234134431982909,0.119386587319752
1580423505.32021,-2.21951628900587,0.0544441901274126,-0.24682993820096
1580423505.35196,-1.3889372091249,0.554940108339057,-0.487556267643244
1580423505.38371,-1.75759517814908,0.25708400091554,-1.50368505378805
1580423505.41546,-1.80349431601434,-0.515877012283513,-0.88355840390631
1580423505.44726,-1.85574120698863,-0.77418173495079,0.370855268177309
1580423505.47901,-1.39040207522698,-0.236087586785686,0.664316777294577
1580423505.51076,-1.06910811017014,-0.363042648966202,-0.731700617990386
1580423505.54251,0.483161669336994,-0.406012054627299,-0.173586633096818
1580423505.57426,-0.0432135500114441,0.679942015716794,-0.622323949034866
1580423505.60601,0.0666514076447697,-0.00366216525520713,-0.36060120546273
1580423505.63775,-0.118410009918364,0.0432135500114441,-0.00708018616006711
1580423505.6695,-0.380621042191196,-0.252689402609294,-0.785900663767453
1580423505.70125,-0.45972381170367,-2.95292591744869,-0.773693446250096
1580423505.733,-1.15114061188678,0.78101777676051,0.0383306630045013
1580423505.76475,-1.47780575265126,-0.00708018616006711,0.669687953002214
1580423505.7965,-1.68874647135119,0.645761806668194,-0.155519951171129
1580423505.82824,-2.14285496299687,-0.537361715114061,-0.501716639963378
1580423505.85999,-2.01394674601358,-0.769298847943848,-0.114991989013504
1580423505.89174,-1.77419699397269,-0.719493400473029,-0.381597619592585
1580423505.92349,-1.18922713054093,-0.180910963607232,-1.03297474631876
1580423505.95524,-0.96900892652781,0.0715342946517126,-1.38161287861448
1580423505.98699,-0.174074921797512,-0.238529030289158,-1.30836957351034
1580423506.01873,0.938735027084764,-0.661875333791103,-1.0642252231632
1580423506.05048,0.31519035629816,-0.173586633096818,-0.720958266575112
1580423506.08223,-0.258060578316931,-0.024170290684367,-0.665781643396658
1580423506.11398,-0.0969253070878153,-0.166262302586404,-0.549568932631418
1580423506.14573,-0.972915236133364,0.0944838635843439,-0.202395666437781
1580423506.17748,-2.62333104448005,-0.433844510566873,-0.303471427481499
1580423506.20922,-1.58767071030747,-0.0471198596169984,-0.509529259174487
1580423506.24097,-2.06033417257954,0.0568856336308841,-1.08863965819791
1580423506.27272,-1.76589608606088,-0.00317387655451284,-0.858167391470207
1580423506.30447,-1.77419699397269,-0.168215457389181,-0.423590447852293
1580423506.33622,-1.60964370183871,0.037842374303807,0.196536202029449
1580423506.36797,-1.04811169604028,0.338628213931486,0.574959945067523
1580423506.39971,-0.970962081330587,-0.306889448386359,-0.723887998779277
1580423506.43146,0.163820859082932,-0.474860761425193,-0.153078507667658
1580423506.46321,0.235111009384298,0.177981231403066,-0.823987182421607
1580423506.49496,0.0393072404058898,0.275638971541923,-0.312260624093996
1580423506.52671,-0.0759288929579611,-0.00952162966353853,-0.226810101472495
1580423506.55846,-0.521736476691844,-0.218020904859998,-0.817151140611887
1580423506.5902,-1.57351033798733,-2.82352941176471,-0.643320363164721
1580423506.62195,-1.35768673228046,0.189211871519035,-0.255619134813459
1580423506.6537,-1.33376058594644,0.391851682307163,0.57007705806058
1580423506.68545,-1.86453040360113,0.429449912260623,-0.00170901045242999
1580423506.71741,-1.87234302281224,-0.764415960936905,-0.837170977340353
1580423506.74916,-1.84792858777752,-0.937270160982681,0.0217288471808956
1580423506.7809,-1.9265430685893,-0.872327763790341,-0.106202792401007
1580423506.81265,-1.41530479896239,0.112550545510032,-1.34450293736172
1580423506.8444,-1.08717479209583,0.305424582284274,-1.31618219272145
1580423506.87615,-0.649179827573052,0.0515144579232469,-1.37282368200198
1580423506.9079,0.517341878385597,-0.936781872281987,-1.73073929961089
1580423506.93965,0.722423132677196,-0.646738384069581,-0.758068207827879
1580423506.9714,0.267826352330815,-0.0979018844892039,-0.671152819104295
1580423507.00315,-0.109132524605172,-0.0881361104753182,-0.565194171053635
1580423507.03489,-1.28102540627146,0.159914549477378,-0.317631799801633
1580423507.06664,-2.3196154726482,0.0822766460669868,-0.122316319523918
1580423507.09839,-1.41139848935683,0.192141603723201,-0.306401159685665
1580423507.13014,-1.93777370870527,0.224856946669718,-1.13942168307011
1580423507.16189,-1.62087434195468,-0.0690928511482412,-1.38991378652628
1580423507.19364,-1.87331960021363,-0.375738155184253,-0.457770656900893
1580423507.22539,-1.57302204928664,-0.223880369268329,0.306401159685663
1580423507.25714,-0.719005111772335,-0.40503547722591,0.599862668802931
1580423507.28888,-0.84254215304799,-1.08375677119097,-0.71509880216678
1580423507.32063,0.3117723353933,0.606698710612651,-0.364507515068285
1580423507.35238,0.490974288548102,0.0432135500114441,-0.773693446250096
1580423507.38413,-0.0905775539787896,0.58716716258488,-0.0490730144197755
1580423507.41588,-0.308842603189136,-0.672617685206378,-0.0207522697795071
1580423507.44763,-0.85621423666743,-0.143801022354467,-1.41530479896239
1580423507.47938,-1.42067597467002,-1.49098954757,-1.03248645761807
1580423507.51113,-1.90652323186084,-0.10766765850309,0.260990310521095
1580423507.54287,-1.35866330968185,0.385015640497443,0.605233844510568
1580423507.57462,-1.98025482566567,-0.177492942702372,-0.277103837644008
1580423507.60637,-1.94900434882124,-0.746349279011215,-0.484138246738384
1580423507.63812,-1.9099412527657,-0.814709697108416,-0.0891126878767068
1580423507.66987,-1.77419699397269,-0.598886091401541,-0.396246280613413
1580423507.70162,-1.07008468757153,0.341557946135651,-1.38747234302281
1580423507.73337,-0.981216144045167,0.114015411612115,-1.18922713054093
1580423507.76512,-0.119874876020447,-0.733653772793163,-1.64919508659495
1580423507.79686,1.24245059891661,-0.719493400473029,-0.789318684672313
1580423507.82861,0.216067750057221,-0.324956130312048,-0.643320363164721
1580423507.86036,-0.0939955748836496,-0.145754177157244,-0.595956359197375
1580423507.89211,-0.431403067063401,-0.0402838178072784,-0.531013962005035
1580423507.92386,-2.43582818341344,0.178957808804455,-0.180910963607232
1580423507.95561,-1.94509803921569,-0.0534676127260241,-0.451911192492561
1580423507.98749,-1.63747615777829,0.181887541008621,-0.725841153582055
1580423508.01924,-1.76980239566644,0.0314946211947813,-1.27077134355688
1580423508.05099,-1.76296635385672,-0.112550545510032,-0.796154726482033
1580423508.08273,-1.79324025329976,-0.217044327458609,-0.155519951171129
1580423508.11448,-1.26247043564508,-0.0173342488746471,0.0725108720531011
1580423508.14623,-0.953871976806287,-0.93824673838407,0.133058670939192
1580423508.17798,-0.358648050659953,0.721934843976502,-0.88697642481117
1580423508.20973,0.152590218966964,-0.474372472724498,-0.582772564278629
1580423508.24148,0.420660715648125,0.483161669336994,-0.560311284046692
1580423508.27323,-0.146242465857938,-0.101319905394064,-0.0266117341878385
1580423508.30498,-0.556404974441138,-0.303471427481499,-0.552498664835584
1580423508.33673,-0.836194399938964,-0.506111238269627,-0.991958495460441
1580423508.36848,-1.41676966506447,1.85281147478447,-0.111573968108644
1580423508.40023,-1.55495536736095,-0.337651636530099,0.829846646829939
1580423508.43198,-1.6531013962005,0.613046463721677,0.156008239871824
1580423508.46373,-2.0549629968719,-0.45972381170367,-0.496833752956436
1580423508.49547,-1.70876630807965,-0.645761806668192,-0.135011825741969
1580423508.52723,-1.850370031281,-0.77759975585565,0.00854505226214997
1580423508.55897,-1.23219653620203,-0.267826352330816,-0.786877241168842
1580423508.59072,-1.05250629434653,0.0261234454871442,-1.34059662775616
1580423508.62247,-0.567635614557107,-0.241947051194018,-1.4397192339971
1580423508.65422,0.385992217898831,-0.517341878385595,-1.17262531471733
1580423508.68597,0.789318684672313,-0.427985046158541,-0.969985503929198
1580423508.71772,-0.080811779964904,-0.0871595330739297,-0.875257495994507
1580423508.74947,-0.00708018616006711,-0.231204699778743,-0.623300526436255
1580423508.78122,-0.847425040054933,-0.228763256275272,-0.317631799801633
1580423508.81297,-3.21757839322499,-0.472907606622416,0.116945143816281
1580423508.84472,-1.36745250629435,0.0813000686655982,-0.296635385671779
1580423508.87647,-1.80984206912337,0.293705653467612,-0.7390249485008
1580423508.90822,-1.87917906462196,-0.177004654001678,-1.0383459220264
1580423508.93997,-1.70290684367132,-0.142336156252384,-0.912855725947967
1580423508.97171,-1.66042572671092,-0.157961394674601,0.448981460288394
1580423509.00346,-0.94850080109865,0.265873197528038,0.446540016784922
1580423509.03521,-1.12428473334859,-1.02613870450904,-0.549080643930724
1580423509.06696,-0.0231937132829785,-0.333745326924545,-0.637460898756389
1580423509.09871,0.0930189974822611,-0.382085908293279,-0.398687724116884
1580423509.13046,0.162355992980849,0.0886243991760125,-0.554940108339055
1580423509.16221,-0.0109864957656214,0.143801022354467,-0.349858854047456
1580423509.19396,-0.688242923628595,0.394293125810634,-0.852307927061876
1580423509.22571,-0.619882505531395,-2.64530403601129,-0.918715190356298
1580423509.25763,-1.46657511253529,0.502693217364769,0.213626306553749
1580423509.28938,-1.56569771877623,0.0129396505683985,0.717051956969559
1580423509.32113,-1.53981841763943,0.493415732051574,-0.224856946669718
1580423509.35288,-1.97097734035248,-0.235111009384298,-0.224856946669718
1580423509.38463,-2.08328374151217,-0.72877088578622,0.0988784618905925
1580423509.41637,-1.77810330357824,-0.842053864347296,-0.278568703746091
1580423509.44812,-1.07789730678263,-0.192629892423895,-1.39040207522698
1580423509.47987,-0.976333257038224,-0.00659189745937283,-1.35524528877699
1580423509.51162,-0.347905699244679,-0.31958495460441,-1.29713893339437
1580423509.54337,1.22829022659647,-0.571053635461967,-1.06861982146944
1580423509.57512,0.237064164187075,-0.204837109941252,-0.855725947966736
1580423509.60687,-0.276127260242619,-0.155031662470435,-0.74927901121538
1580423509.63862,-0.35034714274815,-0.216556038757915,-0.631113145647364
1580423509.67037,-1.91628900587472,0.276127260242617,0.3630426489662
1580423509.70212,-2.26492713817044,0.146730754558632,-0.417242694743267
1580423509.73387,-1.43239490348669,0.164797436484321,-0.666758220798046
1580423509.76562,-2.03494316014343,-0.140871290150301,-1.3713588158999
1580423509.79737,-1.79372854200046,-0.295170519569696,-0.802990768291753
1580423509.82911,-1.80202944991226,-0.409430075532159,-0.156008239871824
1580423509.86086,-1.44655527580682,-0.000732433051041426,0.0217288471808956
1580423509.89261,-1.03932249942779,0.0046387426565957,2.15799191271839
1580423509.92436,-0.274174105439842,0.463141832608528,-1.71023117418173
1580423509.95611,0.289799343862057,-0.768810559243153,-0.041260395208667
1580423509.98786,0.0427252613107498,-0.246341649500266,-0.79810788128481
1580423510.01961,0.161867704280155,0.0891126878767068,-0.276127260242619
1580423510.05136,-0.00561532005798426,0.0256351567864499,-0.580819409475852
1580423510.08311,-0.662363622491798,-0.503181506065461,-1.11012436102846
1580423510.11486,-2.93339436942092,0.471931029221025,-0.576913099870298
1580423510.14661,-1.72439154650187,-0.147219043259327,0.719981689173725
1580423510.17836,-1.69704737926299,0.728770885786222,0.582772564278631
1580423510.21011,-1.55251392385748,0.123781185626001,-0.573006790264744
1580423510.24186,-1.90212863355459,-0.420660715648127,-0.228274967574578
1580423510.2736,-2.22635233081559,-1.07496757457847,0.158449683375295
1580423510.30535,-1.35915159838254,-0.79468986037995,-0.853284504463264
1580423510.3371,-0.926527809567407,-0.0183108262760356,-1.6194094758526
1580423510.36885,-0.888929579613947,0.245365072098878,-1.06569008926528
1580423510.4006,-0.131105516136415,-0.0476081483176927,-1.20485236896315
1580423510.43235,1.17555504692149,-0.629648279545281,-0.978774700541695
1580423510.4641,0.00561532005798426,-0.364995803768979,-0.899671931029221
1580423510.49585,-0.193606469825284,-0.265384908827345,-0.636972610055695
1580423510.52771,-0.523689631494621,-0.179446097505149,-0.392339971007859
1580423510.55946,-2.60428778515297,0.181399252307926,0.0505378805218584
1580423510.59121,-2.04422064545663,-0.0329594872968642,-0.550545510032807
1580423510.62296,-1.65407797360189,0.25708400091554,-0.908949416342413
1580423510.65471,-1.72390325780117,0.0334477759975584,-1.27809567406729
1580423510.68646,-1.83132677195392,-0.120363164721141,-0.666269932097352
1580423510.71821,-1.65700770580606,-0.240482185091935,0.313725490196077
1580423510.74996,-1.0041657129778,-0.23999389639124,1.05934233615625
1580423510.78171,-1.13746852826734,-0.551522087434195,-0.484138246738384
1580423510.81346,0.149660486762798,-0.488044556343938,-0.37427328908217
1580423510.84521,-0.132570382238498,0.485114824139771,-0.49732204165713
1580423510.87696,0.193118181124589,0.0046387426565957,-0.457282368200199
1580423510.90871,-0.0617685206378269,-0.0632333867399097,0.0266117341878385
1580423510.94046,-0.654551003280689,-0.802990768291753,-0.52466620889601
1580423510.97221,-0.906507972838941,-0.671641107804989,-0.894300755321584
1580423511.00395,-1.23756771190967,1.63552300297551,0.163820859082932
1580423511.0357,-1.53786526283665,-0.0886243991760125,0.888441290913253
1580423511.06745,-1.77077897306783,0.496345464255739,0.221438925764858
1580423511.09921,-2.06277561608301,-0.87330434119173,-0.642832074464026
1580423511.13095,-1.57058060578317,-0.804455634393836,-0.313237201495385
1580423511.1627,-1.78835736629282,-0.838147554741742,-0.112550545510032
1580423511.19445,-1.30641641870756,0.0520027466239412,-0.836682688639659
1580423511.2262,-1.08815136949721,0.3801327534905,-1.00856031128405
1580423511.25795,-0.682383459220263,-0.116945143816281,-1.07643244068055
1580423511.2897,0.461188677805751,-0.966567483024338,-1.33620202944991
1580423511.32145,0.380621042191194,-0.656504158083466,-0.815686274509805
1580423511.3532,0.0563973449301898,-0.119874876020447,-0.96900892652781
1580423511.38495,-0.0935072861829553,0.0598153658350498,-0.605233844510566
1580423511.4167,-0.944106202792401,0.127199206530861,-0.0227054245822842
1580423511.44845,-2.37821011673152,0.195071335927366,-0.00219729915312428
1580423511.4802,-1.66530861371786,-0.0891126878767068,-0.737560082398717
1580423511.51195,-1.81716639963378,-0.135988403143358,-0.901136797131304
1580423511.5437,-1.73757534142061,-0.370366979476616,-1.32399481193256
1580423511.57545,-1.8581826504921,-0.269779507133594,-0.582284275577935
1580423511.6072,-1.68532845044633,-0.302494850080111,0.353276874952314
1580423511.63895,-1.07350270847639,-0.0847180895704582,0.924086366063936
1580423511.6707,-0.89039444571603,0.504646372167546,-1.01197833218891
1580423511.70245,0.297611963073166,-0.867444876783399,-0.178957808804455
1580423511.7342,-0.044678416113527,0.444098573281451,-0.489509422446021
1580423511.76595,-0.258060578316931,-0.498786907759213,-0.37427328908217
1580423511.79788,0.0295414663920042,0.267826352330815,-0.545662623025864
1580423511.82963,-0.391851682307164,0.138429846646829,-0.976821545738918
1580423511.86138,-1.10914778362707,-3.94561684596017,-0.644785229266803
1580423511.89313,-1.0808270389868,1.01441977569238,-0.174563210498206
1580423511.92488,-1.51198596169985,-0.0329594872968642,0.727306019684139
1580423511.95663,-1.57692835889219,0.629648279545282,0.0251468680857556
1580423511.98838,-2.15164415960937,-0.54859235523003,-0.447516594186313
1580423512.02013,-1.7649195086595,-0.543221179522392,-0.119386587319752
1580423512.05188,-1.82595559624628,-0.766857404440376,-0.0544441901274126
1580423512.08363,-1.24782177462425,-0.0949721522850382,-0.963149462119478
1580423512.11538,-1.10426489662013,0.0500495918211641,-1.25075150682841
1580423512.14713,-0.813733119707027,-0.317143511100939,-1.47780575265126
1580423512.17888,0.359136339360646,-0.768810559243153,-1.36354619668879
1580423512.21063,0.993423361562524,-0.169192034790569,-0.821057450217442
1580423512.24238,-0.122804608224612,-0.0476081483176927,-0.78785381857023
1580423512.27413,-0.246341649500266,-0.273197528038454,-0.725841153582055
1580423512.30588,-1.22487220569161,-0.140383001449607,-0.40503547722591
1580423512.33763,-2.71561760891127,-0.155031662470435,0.306889448386357
1580423512.36938,-1.4743877317464,0.139894712748912,-0.404547188525216
1580423512.40113,-2.06179903868162,0.189700160219729,-1.3718471046006
1580423512.43288,-1.73562218661784,0.116945143816281,-0.883070115205616
1580423512.46463,-1.76101319905394,-0.214114595254443,-0.176028076600289
1580423512.49638,-1.51784542610819,0.0173342488746471,0.620370794232091
1580423512.52813,-1.27663080796521,0.140871290150301,-0.118898298619058
1580423512.55988,0.198489356832226,-0.203372243839169,-0.651132982375829
1580423512.59162,-0.266849774929428,-0.448004882887007,-0.0861829556725411
1580423512.62337,0.0881361104753182,-0.0769054703593497,-0.308354314488442
1580423512.65512,0.00659189745937283,-0.122804608224612,-0.196536202029449
1580423512.68687,-0.239505607690546,0.127199206530861,-0.937758449683376
1580423512.71862,-0.998794537270161,-0.544686045624475,-0.910414282444496
1580423512.75037,-1.43923094529641,0.756603341725796,-0.247806515602349
1580423512.78212,-1.61794460975051,0.133058670939192,0.644296940566111
1580423512.81387,-1.43190661478599,0.409430075532157,0.110597390707255
1580423512.84562,-1.98220798046845,-0.348393987945373,-0.559334706645304
1580423512.87737,-1.80105287251087,-0.676035706111238,-0.0554207675288012
1580423512.90912,-1.96609445334554,-0.754650186923019,0.130617227435721
1580423512.94087,-1.32985427634089,-0.128175783932249,-0.670176241702906
1580423512.97262,-1.21559472037842,0.227786678873883,-1.21364156557565
1580423513.00437,-1.11110093842985,-0.158449683375295,-1.37428854810407
1580423513.03612,0.234622720683603,-0.53833829251545,-1.53054093232624
1580423513.06802,1.10572976272221,-0.574471656366827,-0.709727626459143
1580423513.09977,0.0500495918211641,-0.260502021820402,-0.695078965438315
1580423513.13152,-0.0783703364614325,-0.208255130846112,-0.721446555275806
1580423513.16327,-0.695078965438315,-0.214602883955138,-0.69117265583276
1580423513.19502,-3.21513694972152,-0.0949721522850382,0.429938200961317
1580423513.22677,-1.56374456397345,0.211673151750972,-0.386968795300222
1580423513.25852,-2.01687647821775,0.309330891889829,-1.03443961242084
1580423513.29027,-1.52419317921721,0.216067750057221,-1.04274052033265
1580423513.32202,-1.75515373464561,-0.174563210498206,-0.496833752956436
1580423513.35378,-1.72048523689631,-0.334721904325933,0.562752727550166
1580423513.38552,-1.11354238193332,-0.292240787365531,1.44704356450751
1580423513.41728,-0.729747463187609,0.00122072175173571,-1.33278400854505
1580423513.44903,0.420172426947431,-0.882581826504921,-0.308842603189136
1580423513.48078,0.331792172121766,1.06129549095903,-0.813733119707027
1580423513.51253,-0.0549324788281069,-0.0710460059510183,-0.186770428015564
1580423513.54428,-0.0681162737468526,0.0178225375753414,-0.664805065995269
1580423513.57603,-0.79810788128481,-0.468024719615473,-0.949477378500038
1580423513.60778,-2.81083390554666,0.0720225833524069,-0.739513237201495
1580423513.63953,-1.41872281986725,0.193606469825284,0.447516594186311
1580423513.67128,-1.62673380636301,0.469489585717554,0.475349050125885
1580423513.70303,-1.81228351262684,0.259525444419012,-0.459235523002976
1580423513.73478,-2.24490730144198,-0.748302433813992,-0.251712825207905
1580423513.76653,-2.02713054093233,-0.912367437247273,-0.0749523155565726
1580423513.79828,-1.51882200350957,-0.591073472190432,-0.563729304951552
1580423513.83003,-1.06227206836042,0.133058670939192,-1.19948119325551
1580423513.86178,-0.80494392309453,0.165774013885709,-1.05006485084306
1580423513.89353,-0.450934615091173,-0.386480506599527,-1.38600747692073
1580423513.92528,0.580819409475854,-0.859143968871596,-1.15016403448539
1580423513.95703,0.63843747615778,-0.317631799801633,-0.565194171053635
1580423513.98878,0.113527122911421,-0.170656900892652,-0.687266346227206
1580423514.02053,-0.104737926298924,-0.102784771496147,-0.771740291447319
1580423514.05228,-2.09500267032883,0.266361486228732,-0.313725490196079
1580423514.08403,-2.42508583199817,-0.0725108720531011,-0.209719996948195
1580423514.11578,-1.71804379339284,0.0358892195010299,-0.327397573815519
1580423514.14753,-2.02468909742885,0.183352407110704,-1.18825055313954
1580423514.17928,-1.86160067139696,0.267826352330815,-0.707286182955672
1580423514.21103,-1.76247806515602,-0.0271000228885327,-0.410894941634242
1580423514.24278,-1.49196612497139,-0.0500495918211641,0.179446097505149
1580423514.27453,-1.01100175478752,-0.284428168154422,1.23659113450828
1580423514.30628,-0.771252002746625,0.0236820019836728,-1.25368123903258
1580423514.33829,0.557869840543223,-0.601327534905012,-0.434332799267567
1580423514.37004,0.633066300450142,0.449469748989088,-0.743907835507743
1580423514.40179,-0.179446097505149,-0.0324711985961699,-0.173586633096818
1580423514.43354,-0.331792172121768,-0.0046387426565957,-0.358648050659953
1580423514.46529,-0.943617914091707,-0.148683909361409,-1.00123598077363
1580423514.49704,-1.97390707255665,-0.299565117875945,-0.71509880216678
1580423514.52879,-2.01052872510872,-0.202395666437781,0.363530937666894
1580423514.56054,-1.51442740520333,0.133546959639887,0.606210421911957
1580423514.59229,-1.57741664759289,0.216556038757915,-0.441657129777981
1580423514.62404,-2.05740444037537,-0.542732890821698,-0.156496528572518
1580423514.65579,-2.0549629968719,-0.733165484092469,-0.0139162279697871
1580423514.68754,-1.63064011596857,-0.709727626459143,-0.465094987411307
1580423514.7193,-1.05299458304723,-0.0319829098954756,-0.985610742351415
1580423514.75105,-1.12574959945067,-0.109620813305867,-1.29372091248951
1580423514.7828,-0.40503547722591,-0.45288776989395,-1.50222018768597
1580423514.81455,0.998794537270161,-0.403082322423133,-1.41774624246586
1580423514.8463,0.278568703746089,-0.0314946211947813,-0.83912413214313
1580423514.87805,0.0163576714732585,-0.209719996948195,-0.622323949034866
1580423514.9098,-0.594979781795987,-0.406500343327993,-0.713145647364003
1580423514.94155,-2.34110017547875,-0.174074921797512,0.244876783398183
1580423514.9733,-2.04275577935454,0.0944838635843439,-0.157961394674601
1580423515.00505,-1.49587243457694,0.33911650263218,-0.40845349813077
1580423515.0368,-1.84646372167544,0.262455176623178,-1.17213702601663
1580423515.06855,-1.7986114290074,-0.0817883573662925,-0.829846646829939
1580423515.1003,-1.72048523689631,-0.520759899290455,0.40747692072938
1580423515.13205,-1.32692454413672,-0.271244373235676,1.31374074921797
1580423515.16381,-1.1403982604715,0.221438925764858,-0.636484321355001
1580423515.19555,0.385992217898831,-1.05152971694514,-0.430914778362707
1580423515.22731,-0.0173342488746471,0.847913328755627,-0.373785000381476
1580423515.25906,-0.132082093537804,-0.424078736552987,-0.302494850080111
1580423515.29081,0.0227054245822842,0.139894712748912,-0.496345464255741
1580423515.32256,-0.643320363164721,-0.169192034790569,-0.782970931563288
1580423515.35431,-1.27663080796521,-2.39090562294957,-0.682383459220263
1580423515.38606,-1.48366521705959,0.531990539406426,0.00561532005798426
1580423515.41781,-1.6364995803769,-0.0983901731898982,0.599374380102237
1580423515.44956,-1.63698786907759,0.456794079499502,-0.0573739223315783
1580423515.48131,-2.19217212176699,-0.575936522468909,-0.305424582284276
1580423515.51306,-1.84597543297475,-0.575448233768215,-0.220950637064163
1580423515.54481,-1.67458609903105,-0.660410467689021,-0.215579461356526
1580423515.57656,-1.1916685740444,-0.228763256275272,-0.931898985275044
1580423515.60846,-1.17213702601663,-0.312748912794691,-1.36696421759365
1580423515.64021,-0.202395666437781,-0.621835660334172,-1.60622568093385
1580423515.67196,0.947524223697261,-0.488044556343938,-0.974380102235447
1580423515.70371,0.460700389105057,0.326909285114823,-0.843030441748684
1580423515.73546,-0.215579461356526,-0.080811779964904,-0.797619592584116
1580423515.76721,-0.0891126878767068,-0.347905699244679,-0.645761806668192
1580423515.79896,-1.49440756847486,-0.161867704280155,0.0676279850461583
1580423515.83071,-2.70048065918975,-0.248294804303043,-0.0158693827725642
1580423515.86246,-1.43434805828946,0.162355992980849,-0.641855497062638
1580423515.89421,-1.88845654993515,0.246341649500266,-1.31569390402075
1580423515.92597,-1.8161898222324,-0.0437018387121384,-0.984634164950027
1580423515.95772,-1.93142595559625,-0.393804837109942,-0.174074921797512
1580423515.98947,-1.41774624246586,-0.0158693827725642,0.703868162050814
1580423516.02122,-1.45290302891585,-0.459235523002976,0.0891126878767068
1580423516.05297,0.23657587548638,0.0485847257190812,-0.782970931563288
1580423516.08472,0.00366216525520713,-0.122316319523918,-0.102296482795452
1580423516.11647,-0.0373540856031127,-0.297611963073168,-0.23657587548638
1580423516.14822,-0.126710917830167,-0.34692912184329,-0.231204699778743
1580423516.17997,-0.149660486762798,0.3630426489662,-0.704356450751506
1580423516.21172,-0.815686274509805,-0.316655222400245,-0.88355840390631
1580423516.24347,-1.52175173571374,1.01539635309377,-0.485603112840467
1580423516.27522,-1.92507820248722,-0.280521858548868,0.973403524834058
1580423516.30697,-1.67263294422827,0.540779736018923,0.418707560845348
1580423516.33872,-1.90457007705806,-0.187258716716258,-0.614999618524452
1580423516.37047,-1.93679713130388,-0.410894941634242,0.0153810940718699
1580423516.40223,-1.96218814373999,-0.844007019150073,-0.0349126420996413
1580423516.43398,-1.29518577859159,-0.270267795834288,-0.768810559243153
1580423516.46573,-1.05738918135348,-0.237552452887769,-1.21803616388189
1580423516.49748,-0.682871747920958,-0.298100251773862,-1.19362172884718
1580423516.52923,0.698496986343176,-0.258548867017625,-1.01832608529793
1580423516.56098,-0.00122072175173571,-0.55884641794461,-1.28053711757076
1580423516.59273,0.247806515602349,-0.370366979476616,-0.92457465476463
1580423516.62448,-0.134523537041275,-0.234134431982909,-0.646250095368886
1580423516.65623,-0.619394216830701,-0.120363164721141,-0.193606469825284
1580423516.68798,-2.48514534218357,0.316166933699549,-0.0144045166704814
1580423516.71973,-2.05300984206912,0.125246051728084,-0.557869840543221
1580423516.75148,-1.76687266346227,0.0354009308003356,-0.513435568780041
1580423516.78323,-1.94314488441291,-0.229251544975966,-1.06227206836042
1580423516.81499,-1.68679331654841,-0.196047913328755,-0.892347600518807
1580423516.84674,-1.76003662165255,-0.342534523537042,0.00268558785381856
1580423516.87863,-1.27907225146868,-0.106691081101701,-0.0861829556725411
1580423516.91038,-1.16383611810483,0.209231708247501,0.422613870450903
1580423516.94213,0.0109864957656214,-0.171145189593346,-0.796154726482033
1580423516.97388,-0.186770428015564,-0.230716411078049,-0.330327306019685
1580423517.00564,0.0876478217746239,-0.190676737621118,-0.324467841611353
1580423517.03739,0.0207522697795071,0.0725108720531011,-0.161379415579461
1580423517.06914,-0.100343327992675,0.233646143282215,-0.455329213397421
1580423517.10089,-1.16090638590066,-0.567147325856412,-0.874769207293813
1580423517.13264,-1.42555886167697,1.10963607232776,-0.7048447394522
1580423517.16439,-1.52419317921721,-0.52466620889601,0.722911421377891
1580423517.19614,-1.64235904478523,0.55640497444114,0.671152819104297
1580423517.22789,-1.87380788891432,0.0207522697795071,-0.666269932097352
1580423517.25964,-1.89187457084001,-0.315190356298162,-0.176028076600289
1580423517.2914,-2.14724956130312,-0.841565575646602,-0.0725108720531011
1580423517.32315,-1.54470130464637,-0.752697032120242,-0.643808651865415
1580423517.3549,-1.17848477912566,-0.255130846112765,-1.59938963912413
1580423517.38665,-0.620859082932784,-0.159426260776684,-1.32448310063325
1580423517.4184,0.595468070496683,-0.226321812771801,-0.889417868314641
1580423517.45015,0.258548867017623,-0.52124818799115,-1.02565041580835
1580423517.4819,0.201907377737086,-0.143801022354467,-0.943617914091707
1580423517.51365,0.0427252613107498,-0.172610055695429,-0.420660715648127
1580423517.5454,-0.626718547341115,-0.185793850614175,-0.229739833676661
1580423517.57716,-2.45584802014191,0.0607919432364383,-0.027588311589227
1580423517.60891,-1.66775005722133,-0.0476081483176927,-0.729259174486915
1580423517.64066,-1.73220416571298,0.113527122911421,-0.740489814602883
1580423517.67241,-2.18777752346075,-0.24682993820096,-1.12770275425345
1580423517.70416,-2.00466926070039,-0.365972381170367,-0.607186999313344
1580423517.73591,-1.74441138323033,-0.331792172121768,0.261966887922483
1580423517.76766,-1.25612268253605,0.0144045166704814,0.756603341725796
1580423517.79941,-1.43923094529641,1.16237125200275,-0.663828488593881
1580423517.83117,0.695567254139011,-1.79128709849699,-0.318608377203022
1580423517.86292,0.0490730144197755,0.646250095368888,-0.371343556878005
1580423517.89467,-0.290287632562753,-0.729747463187609,-0.340581368734265
1580423517.92642,0.0124513618677042,0.226810101472495,-0.440680552376593
1580423517.95817,-0.594003204394598,0.272709239337757,-0.55884641794461
1580423517.98992,-1.01393148699168,-1.51491569390402,-0.688242923628595
1580423518.02167,-1.20582894636454,0.933852140077821,-0.381597619592585
1580423518.05342,-1.58913557640955,-0.248783093003738,0.81177996490425
1580423518.08518,-1.50368505378805,0.465583276112,0.111573968108644
1580423518.11693,-1.81765468833448,-0.240482185091935,-0.627695124742504
1580423518.1489,-2.0207827878233,-0.55201037613489,-0.060303654535744
1580423518.18065,-2.03933775844968,-0.859143968871596,-0.0280766002899213
1580423518.2124,-1.35280384527352,-0.110109102006561,-1.13795681696803
1580423518.24415,-0.986587319752804,0.191165026321812,-1.25123979552911
1580423518.2759,-0.77076371404593,-0.273197528038454,-1.24196231021591
1580423518.30765,0.743907835507745,-0.576424811169604,-1.40114442664225
1580423518.3394,0.559334706645306,-0.53492027161059,-1.00221255817502
1580423518.37115,0.0896009765774011,-0.262455176623179,-0.68433661402304
1580423518.4029,-0.363042648966202,-0.244388494697489,-0.404547188525216
1580423518.43465,-0.968032349126421,-0.0715342946517126,0.0285648889906156
1580423518.46641,-2.62381933318074,-0.0651865415426869,-0.224368657969023
1580423518.49816,-1.52175173571374,-0.00415045395590141,-0.457282368200199
1580423518.52991,-1.82937361715114,0.225345235370412,-1.08033875028611
1580423518.56166,-1.4055390249485,0.198001068131532,-1.2004577706569
1580423518.59341,-1.97586022735943,-0.0759288929579611,-0.399176012817579
1580423518.62516,-1.41969939726864,-0.249759670405126,-0.0227054245822842
1580423518.65691,-0.86305027847715,-0.324956130312048,0.671152819104297
1580423518.68866,-1.0300450141146,-1.225848783093,-0.0544441901274126
1580423518.72042,-0.00415045395590141,0.447516594186311,-0.407965209430076
1580423518.75217,-0.0632333867399097,0.156496528572518,-0.547615777828641
1580423518.78392,0.101808194094758,0.230716411078049,-0.326909285114825
1580423518.81567,-0.2434119172961,-0.280521858548868,0.210696574349583
1580423518.84742,-0.506111238269627,-0.176028076600289,-0.460212100404364
1580423518.87917,-0.867444876783399,-0.031006332494087,-1.32301823453117
1580423518.91092,-1.28297856107424,1.14283970397497,-0.135988403143358
1580423518.94267,-1.93630884260319,0.186770428015564,1.07740901808194
1580423518.97442,-1.37380025940337,0.830823224231327,-0.127199206530861
1580423519.00618,-1.76736095216297,-0.373785000381476,-0.896742198825056
1580423519.03793,-1.77810330357824,-1.04029907682918,0.154543373769741
1580423519.06968,-1.99343862058442,-0.931898985275044,-0.160891126878766
1580423519.10143,-1.4314183260853,-0.361089494163425,-0.694102388036926
1580423519.13318,-0.960219729915313,0.379644464789806,-1.14967574578469
1580423519.16493,-0.925062943465324,0.23315785458152,-1.08424505989166
1580423519.19668,-0.321538109407188,-0.502693217364767,-1.25465781643397
1580423519.22843,0.854749370565347,-0.866956588082704,-1.16090638590066
1580423519.26019,0.262455176623178,-0.245365072098878,-0.83228809033341
1580423519.29194,0.0593270771343555,-0.0749523155565726,-0.71851682307164
1580423519.32369,-0.468513008316167,-0.0246585793850613,-0.605233844510566
1580423519.35544,-2.44852368963149,0.0383306630045013,-0.0979018844892039
1580423519.38719,-2.07009994659342,-0.145265888456549,-0.406500343327993
1580423519.41904,-1.69948882276646,0.0100099183642328,-0.603768978408484
1580423519.45079,-1.87966735332265,-0.0656748302433812,-1.23170824750133
1580423519.48254,-2.0720531013962,-0.212649729152361,-0.595956359197375
1580423519.51429,-1.83913939116503,-0.239017318989852,0.223880369268329
1580423519.54604,-1.1150072480354,0.136964980544747,0.620370794232091
1580423519.5778,-1.18287937743191,-0.427008468757153,-0.757091630426491
1580423519.60955,0.179446097505149,-0.451422903791867,-0.354253452353705
1580423519.6413,-0.0891126878767068,-0.0710460059510183,-0.541268024719615
1580423519.67305,0.119386587319752,0.037842374303807,-0.621347371633478
1580423519.7048,0.0813000686655982,0.237552452887769,-0.193118181124589
1580423519.73655,-0.433844510566873,-0.416266117341879,-0.337163347829405
1580423519.7683,-0.84937819485771,-0.509040970473793,-1.07887388418402
1580423519.80006,-1.52614633401999,1.86062409399558,-0.179934386205844
1580423519.83181,-1.66335545891508,-0.492927443350881,0.739024948500802
1580423519.86356,-1.58083466849775,0.467048142214082,0.209719996948195
1580423519.89531,-1.89431601434348,-0.155519951171129,-0.371831845578699
1580423519.92706,-1.86599526970321,-0.585702296482795,-0.161379415579461
1580423519.95881,-1.90505836575876,-0.56568245975433,-0.0354009308003356
1580423519.99057,-1.33620202944991,-0.34009308003357,-0.744884412909132
1580423520.02232,-1.00660715648127,-0.0168459601739528,-1.44167238879988
1580423520.05407,-0.731212329289692,-0.445563439383536,-1.41921110856794
1580423520.08582,0.292729076066223,-0.535408560311284,-1.17164873731594
1580423520.11757,0.87672236209659,-0.0427252613107498,-0.532478828107118
1580423520.14932,0.0227054245822842,0.139894712748912,-0.751232166018159
1580423520.18108,0.0441901274128327,-0.179446097505149,-0.800061036087587
1580423520.21283,-0.410894941634242,-0.322514686808576,-0.632578011749446
1580423520.24458,-3.16826123445487,-0.795666437781339,0.0563973449301898
1580423520.27633,-1.68630502784771,-0.162355992980849,-0.503181506065461
1580423520.30808,-2.02566567483024,0.262943465323872,-0.724864576180666
1580423520.33983,-1.65651941710536,0.279545281147477,-0.999282825970855
1580423520.37158,-1.86599526970321,0.0842298008697639,-0.69800869764248
1580423520.40334,-1.84353398947128,-0.236087586785686,0.178957808804455
1580423520.43509,-1.13600366216525,-0.125734340428778,0.524666208896011
1580423520.46684,-1.02565041580835,-0.95875486381323,-0.717540245670252
1580423520.49859,0.137453269245441,-0.31958495460441,-0.199954222934309
1580423520.53034,0.291752498664835,-0.187747005416952,-0.507087815671015
1580423520.56209,-0.146242465857938,0.0236820019836728,-0.393804837109942
1580423520.59385,-0.0690928511482412,0.264896620126649,-0.0451667048142212
1580423520.6256,-0.553475242236972,0.00659189745937283,-0.550057221332112
1580423520.65735,-0.721446555275806,-0.743907835507743,-1.11012436102846
1580423520.68933,-1.59792477302205,1.22096589608606,-0.488532845044633
1580423520.72108,-1.6448004882887,-0.0144045166704814,0.617441062027925
1580423520.75284,-1.59938963912413,0.53931486991684,0.283451590753032
1580423520.78459,-2.0891432059205,-0.343999389639125,-0.513435568780041
1580423520.81634,-1.74587624933242,-0.579842832074464,0.0646982528419926
1580423520.84809,-2.14334325169757,-0.688242923628595,-0.0720225833524069
1580423520.87984,-1.35573357747768,-0.281010147249562,-0.964126039520867
1580423520.91159,-1.23952086671244,0.139894712748912,-1.21705958648051
1580423520.94335,-0.497810330357824,-0.456794079499504,-1.56569771877623
1580423520.9751,0.610116731517511,-0.477790493629358,-0.81519798580911
1580423521.00685,0.593026626993211,-0.169680323491264,-0.902601663233387
1580423521.0386,0.0793469138628211,-0.130617227435721,-0.823987182421607
1580423521.07036,-0.0856946669718468,-0.157961394674601,-0.486091401541161
1580423521.10211,-0.729747463187609,0.0632333867399097,-0.198977645532921
1580423521.13386,-2.7302662699321,-0.371343556878005,0.0686045624475469
1580423521.16561,-1.45387960631724,-0.0290531776913099,-1.03395132372015
1580423521.19736,-1.89578088044556,-0.0842298008697639,-0.880628671702144
1580423521.22912,-1.87624933241779,-0.230228122377355,-0.799572747386893
1580423521.26087,-1.9182421606775,-0.181887541008621,-0.48706797894255
1580423521.29262,-1.7048599984741,0.0578622110322726,0.102784771496147
1580423521.32437,-0.869398031586176,0.0993667505912867,0.960708018616007
1580423521.35612,-0.84254215304799,-0.354741741054399,-1.00318913557641
1580423521.38788,0.41773098344396,-0.655527580682078,-0.440680552376593
1580423521.41963,0.236087586785686,0.306889448386357,-0.657480735484855
1580423521.45138,-0.223880369268329,-0.350835431448845,-0.23315785458152
1580423521.48313,-0.223880369268329,0.466071564812694,-0.464118410009918
1580423521.51489,-0.600839246204318,0.336675059128709,-1.10280003051804
1580423521.54664,-1.89187457084001,-3.17216754406043,-0.834241245136187
1580423521.57839,-1.89724574654765,-0.394293125810636,0.3117723353933
1580423521.61014,-1.5847409781033,-0.104737926298924,0.888441290913253
1580423521.64189,-1.64773022049287,0.389898527504386,-0.373785000381476
1580423521.67365,-1.97976653696498,-0.285893034256505,-0.285404745555811
1580423521.7054,-2.1321126115816,-0.559822995345998,-0.0935072861829553
1580423521.73715,-1.75173571374075,-0.644296940566109,-0.511970702677958
1580423521.7689,-1.12184328984512,-0.286381322957199,-1.27125963225757
1580423521.80065,-0.919203479056993,0.0969253070878153,-1.2859082932784
1580423521.83241,0.32202639810788,-0.263431754024568,-0.96900892652781
1580423521.86416,0.40405889982452,-0.50757610437171,-1.25026321812772
1580423521.89591,0.120363164721141,-0.287357900358588,-0.851819638361182
1580423521.92766,-0.262943465323874,-0.0314946211947813,-0.476325627527276
1580423521.95959,-0.215579461356526,0.0295414663920042,-0.414312962539102
1580423521.99135,-1.11256580453193,0.0598153658350498,-0.229739833676661
1580423522.0231,-2.65018692301823,-0.302494850080111,-0.365484092469673
1580423522.05485,-1.87234302281224,-0.206790264744029,-0.347905699244679
1580423522.0866,-2.18533607995727,0.0178225375753414,-0.803967345693142
1580423522.11836,-2.04861524376287,0.0656748302433812,-0.882093537804227
1580423522.15011,-1.89382772564279,-0.132082093537804,-0.407965209430076
1580423522.18186,-1.39040207522698,-0.266361486228734,0.264408331425955
1580423522.21361,-1.10865949492637,0.258548867017623,0.824963759822996
1580423522.24536,-0.429449912260624,0.92457465476463,-0.856702525368124
1580423522.27711,0.31519035629816,-1.34157320515755,-0.336186770428016
1580423522.30887,0.313237201495383,0.510994125276572,-0.453864347295339
1580423522.34062,-0.238040741588463,-0.659433890287632,-0.116945143816281
1580423522.37237,0.0046387426565957,0.467536430914777,-0.983169298847944
1580423522.40412,-0.701915007248035,0.149660486762798,-0.949965667200733
1580423522.43588,-2.47830930037385,0.184817273212786,-0.309819180590525
1580423522.46763,-1.67458609903105,-0.140383001449607,0.664316777294577
1580423522.49938,-1.74587624933242,0.077393759060044,0.5085526817731
1580423522.53113,-1.52761120012207,0.0930189974822611,-0.562752727550164
1580423522.56288,-1.9866025787747,-0.297611963073168,-0.142336156252384
1580423522.59464,-2.21072709239338,-0.552986953536278,0.205325398641946
1580423522.62639,-1.52907606622415,-0.600839246204318,-0.513435568780041
1580423522.65814,-1.41139848935683,-0.352788586251622,-1.27809567406729
1580423522.68989,-0.767833981841765,-0.199954222934309,-1.33815518425269
1580423522.72164,0.402105745021743,-0.305912870984971,-1.3034866865034
1580423522.7534,0.494880598153657,-0.653574425879301,-1.29958037689784
1580423522.78515,0.0847180895704582,-0.368902113374533,-0.889417868314641
1580423522.8169,-0.0427252613107498,-0.149660486762798,-0.594003204394598
1580423522.84865,-0.724864576180666,0.00659189745937283,-0.291264209964142
1580423522.88041,-2.27371633478294,0.346440833142594,0.212649729152361
1580423522.91216,-1.91433585107195,0.115968566414892,-0.458258945601587
1580423522.94391,-1.64431219958801,0.135011825741969,-0.594979781795987
1580423522.97566,-2.0549629968719,-0.0900892652780954,-1.05934233615625
1580423523.00741,-1.85085831998169,-0.42212558175021,-0.959731441214618
1580423523.03917,-1.8669718471046,-0.588143739986267,0.2775921263447
1580423523.07092,-1.35524528877699,-0.42554360265507,2.18094148165103
1580423523.10267,-0.95533684290837,2.16726939803159,-1.52077515831235
1580423523.13442,0.569588769359886,-1.88894483863584,-0.0676279850461583
1580423523.16617,0.206301976043335,0.826428625925079,-0.77076371404593
1580423523.19793,-0.308354314488442,-0.839612420843824,-0.394293125810636
1580423523.22974,0.114015411612115,0.370366979476614,-0.570565346761272
1580423523.26149,-0.682383459220263,0.0461432822156098,-0.650644693675135
1580423523.29324,-1.12819104295415,-2.03738460364691,-0.243900205996795
1580423523.32499,-1.40358587014572,0.761486228732739,-0.116456855115587
1580423523.35675,-1.66872663462272,-0.392339971007859,1.02174410620279
1580423523.3885,-1.88601510643168,0.575936522468911,0.0153810940718699
1580423523.42025,-1.72634470130465,-0.0129396505683985,-0.347417410543985
1580423523.452,-2.02371252002747,-0.550057221332112,-0.0744640268558783
1580423523.48376,-1.81960784313726,-0.823498893720913,-0.105226214999618
1580423523.51551,-1.18776226443885,-0.427985046158541,-1.64870679789425
1580423523.54726,-0.733653772793163,-0.321538109407188,-1.63698786907759
1580423523.57901,0.181887541008621,-0.284916456855116,-1.14381628137636
1580423523.61077,0.791760128175785,0.0900892652780954,-1.0720378423743
1580423523.64252,-0.0866712443732354,0.00854505226214997,-0.995864805065995
1580423523.67427,0.0402838178072784,-0.187258716716258,-0.660898756389715
1580423523.70602,-0.399176012817579,-0.479255359731441,-0.413824673838407
1580423523.73778,-2.79667353322652,-0.0197756923781185,0.24682993820096
1580423523.76953,-2.38162813763638,-0.238529030289158,-0.50074006256199
1580423523.80128,-1.71169604028382,0.285893034256503,-0.746349279011215
1580423523.83303,-1.9265430685893,0.0798352025635154,-1.10133516441596
1580423523.86479,-1.7820096131838,-0.0246585793850613,-0.635996032654306
1580423523.89654,-1.8332799267567,-0.222903791866941,0.50513466086824
1580423523.92829,-1.17604333562219,0.179446097505149,1.40309758144503
1580423523.96004,-0.969497215228504,-0.375249866483559,-1.28493171587701
1580423523.9918,0.247806515602349,-1.16530098420691,-0.174074921797512
1580423524.02355,0.179446097505149,0.554451819638363,-0.788830395971619
1580423524.0553,-0.0959487296864268,-0.298100251773862,-0.439703974975204
1580423524.08706,-0.0837415121690697,0.396246280613411,0.000732433051041426
1580423524.11881,-0.71851682307164,0.110597390707255,-0.494392309452964
1580423524.15056,-0.508064393072404,-1.36403448538949,-1.3884489204242
1580423524.18231,-1.48024719615473,1.09596398870832,-0.0656748302433812
1580423524.21407,-1.60720225833524,-0.477302204928664,1.2004577706569
1580423524.24582,-1.66579690241855,0.503669794766157,-0.0207522697795071
1580423524.27757,-1.94460975051499,-0.241458762493323,-0.578377965972381
1580423524.30932,-1.74343480582895,-0.308354314488442,-0.0871595330739297
1580423524.34108,-2.15652704661631,-0.751232166018159,0.258060578316929
1580423524.37283,-1.52419317921721,-0.367925535973145,-1.00660715648127
1580423524.40458,-1.0383459220264,-0.105226214999618,-1.73562218661784
1580423524.43633,-0.456794079499504,-0.311772335393302,-1.60671396963455
1580423524.46809,0.833264667734799,-0.484626535439078,-1.23512626840619
1580423524.50006,0.354741741054397,-0.254642557412071,-1.17164873731594
1580423524.53181,0.027588311589227,0.0236820019836728,-0.820080872816053
1580423524.56357,-0.159914549477378,-0.169192034790569,-0.433356221866179
1580423524.59532,-1.11061264972915,0.00366216525520713,-0.0529793240253298
1580423524.62707,-2.63456168459602,-0.251712825207905,0.063721675440604
1580423524.65882,-1.5251697566186,0.0559090562294955,-0.428473334859236
1580423524.69058,-1.87869077592126,0.260990310521095,-1.09254596780346
1580423524.72233,-1.74245822842756,-0.234134431982909,-1.31032272831312
1580423524.75408,-2.01687647821775,-0.47681391622797,0.0930189974822611
1580423524.78583,-1.40456244754711,-0.174074921797512,0.319096665903714
1580423524.81759,-1.28249027237354,0.850354772259099,0.810315098802167
1580423524.84934,0.0573739223315783,0.237064164187075,-1.13453879606317
1580423524.88109,-0.146730754558632,-0.342534523537042,-0.104737926298924
1580423524.91284,-0.0783703364614325,-0.138918135347524,-0.370366979476616
1580423524.9446,-0.147707331960021,-0.427496757457847,-0.187258716716258
1580423524.97635,-0.0666514076447697,0.587655451285574,-0.118410009918364
1580423525.0081,-1.01344319829099,0.225833524071106,-1.35036240177005
1580423525.03986,-1.32301823453117,0.106202792401007,-1.04274052033265
1580423525.07161,-2.03103685053788,-0.776623178454262,0.59742122529946
1580423525.10336,-1.40212100404364,0.489509422446019,0.629159990844588
1580423525.13511,-1.8240024414435,0.473884184023802,-0.199954222934309
1580423525.16686,-1.78689250019074,-0.309819180590525,-0.198977645532921
1580423525.19862,-2.12039368276493,-0.619394216830701,-0.0920424200808725
1580423525.23037,-1.57888151369497,-0.587167162584878,-0.521736476691844
1580423525.26212,-1.15602349889372,-0.354741741054399,-1.13112077515831
1580423525.29387,-0.621835660334172,-1.02662699320974,-1.53884184023804
1580423525.32563,0.0256351567864499,-0.0573739223315783,-1.00611886778058
1580423525.35738,0.528572518501566,0.267826352330815,-1.0720378423743
1580423525.38913,0.0144045166704814,-0.151613641565575,-1.0642252231632
1580423525.42089,0.238040741588463,-0.406012054627299,-0.78785381857023
1580423525.45264,-0.276615548943314,-0.41528953994049,-0.221927214465552
1580423525.48439,-2.44461738002594,0.100343327992675,0.228274967574578
1580423525.51614,-2.17410543984131,-0.150148775463492,-1.18629739833677
1580423525.5479,-1.67995727473869,-0.00610360875867855,-0.55884641794461
1580423525.57965,-2.26443884946975,0.10424963759823,-1.10768291752499
1580423525.6114,-2.00076295109483,-0.0974135957885096,-0.922133211261158
1580423525.64315,-1.86501869230182,-0.404547188525216,-0.145265888456549
1580423525.67491,-1.30006866559854,-0.362554360265507,0.819592584115359
1580423525.70666,-1.04567025253681,0.36987869077592,-0.462165255207141
1580423525.73841,0.285404745555809,-0.817639429312582,-0.230228122377355
1580423525.77029,0.024170290684367,0.685313191424431,-0.467048142214084
1580423525.80205,-0.0988784618905925,-0.488532845044633,-0.2434119172961
1580423525.8338,-0.0271000228885327,0.0280766002899213,-0.048096437018387
1580423525.86555,-0.203860532539863,0.196536202029449,-0.727306019684137
1580423525.89731,-1.06617837796597,-0.239017318989852,-1.26100556954299
1580423525.92906,-1.31227588311589,1.43630121309224,-0.747814145113297
1580423525.96081,-1.83962767986572,-0.176516365300984,0.78785381857023
1580423525.99256,-1.59597161821927,0.506111238269629,0.654062714579997
1580423526.02432,-1.70730144197757,0.185305561913481,-0.789806973373008
1580423526.05607,-1.7903105210956,-0.495368886854353,-0.221927214465552
1580423526.08782,-2.06912336919203,-0.802014190890365,0.246341649500266
1580423526.11958,-1.61794460975051,-0.580331120775158,-0.525154497596704
1580423526.15133,-1.19655146105135,0.0891126878767068,-1.1750667582208
1580423526.18308,-0.982192721446555,-0.468513008316167,-1.34499122606241
1580423526.21484,0.134523537041275,-0.751232166018159,-1.65114824139773
1580423526.24659,0.602792401007097,-0.160402838178072,-0.914808880750744
1580423526.27834,0.156008239871824,0.114015411612115,-0.949477378500038
1580423526.3101,0.0803234912642097,-0.150637064164187,-0.725841153582055
1580423526.34185,-0.507087815671015,-0.423102159151599,-0.50074006256199
1580423526.3736,-2.20779736018921,-0.103273060196841,0.205325398641946
1580423526.40535,-2.16873426413367,-0.0651865415426869,-0.44263370717937
1580423526.43711,-1.69802395666438,0.239017318989852,-0.605233844510566
1580423526.46886,-1.84255741206989,-0.0593270771343555,-1.32545967803464
1580423526.50061,-1.70876630807965,-0.317631799801633,-0.772228580148013
1580423526.53237,-1.80788891432059,-0.331792172121768,0.333745326924543
1580423526.56412,-1.23805600061036,0.0949721522850382,1.43190661478599
1580423526.59587,-0.849866483558404,0.291752498664835,-1.2693064774548
1580423526.62763,0.146242465857938,-1.40358587014572,-0.221438925764858
1580423526.65938,0.0441901274128327,0.927016098268101,-0.663340199893186
1580423526.69113,-0.352300297550928,-0.543709468223087,-0.327397573815519
1580423526.72289,-0.0236820019836728,0.331303883421072,-0.278568703746091
1580423526.75464,-0.350835431448845,-0.0144045166704814,-0.670664530403601
1580423526.78639,-0.936781872281987,-1.13990997177081,-0.464606698710613
1580423526.81815,-1.09840543221179,1.00856031128405,-0.489509422446021
1580423526.8499,-1.68093385214008,-0.660898756389715,0.553475242236974
1580423526.88165,-1.70730144197757,0.251712825207903,0.527595941100177
1580423526.9134,-1.74538796063172,-0.211184863050278,-0.740001525902189
1580423526.94516,-1.83767452506294,-0.306889448386359,0.0456549935149155
1580423526.97691,-1.99050888838025,-0.591073472190432,0.096437018387121
1580423527.00866,-1.1750667582208,-0.189700160219729,-1.18727397573815
1580423527.04062,-0.885511558709087,-0.105226214999618,-1.42214084077211
1580423527.07237,-0.474860761425193,-0.760021362630656,-1.34499122606241
1580423527.10413,0.92115663385977,-0.480720225833524,-1.0378576333257
1580423527.13588,0.387457084000914,0.12475776302739,-0.800549324788282
1580423527.16763,-0.00610360875867855,0.0280766002899213,-0.834241245136187
1580423527.19939,-0.335698481727322,-0.12475776302739,-0.621347371633478
1580423527.23114,-2.33914702067598,0.120851453421835,-0.0725108720531011
1580423527.2629,-2.18582436865797,-0.198001068131532,-0.041260395208667
1580423527.29465,-1.78493934538796,0.0837415121690697,-0.48364995803769
1580423527.3264,-1.91970702677958,0.169192034790569,-1.10963607232776
1580423527.35816,-1.63405813687343,0.136964980544747,-0.809338521400779
1580423527.38991,-1.85085831998169,-0.399664301518273,0.127687495231555
1580423527.42167,-1.39235523002976,-0.129152361333638,1.24684519722286
1580423527.45342,-1.60915541313802,0.00610360875867855,-0.624277103837644
1580423527.48517,0.285893034256503,-0.760509651331351,-0.836682688639659
1580423527.51693,0.166262302586404,-0.151613641565575,-0.328862439917602
1580423527.54868,-0.119386587319752,-0.424078736552987,-0.379156176089113
1580423527.58044,-0.130617227435721,-0.251224536507211,-0.302494850080111
1580423527.61219,-0.139894712748912,0.0627450980392155,-0.419195849546044
1580423527.64394,-0.916273746852827,0.344975967040511,-0.95875486381323
1580423527.6757,-1.86160067139696,0.997817959868772,-0.369390402075227
1580423527.70745,-1.92214847028306,-0.877210650797284,0.889417868314641
1580423527.73921,-1.62819867246509,0.299565117875943,0.258060578316929
1580423527.77096,-1.66823834592203,-0.0495613031204698,-0.685313191424429
1580423527.80271,-1.94656290531777,-0.448981460288396,0.0144045166704814
1580423527.83447,-1.93337911039902,-0.611581597619592,0.0349126420996413
1580423527.86622,-1.26686503395132,-0.258548867017625,-1.07789730678263
1580423527.89798,-0.846936751354239,0.142336156252384,-1.49587243457694
1580423527.92973,-0.566659037155718,-0.415777828641184,-1.37721828030823
1580423527.96148,0.637949187457085,-0.663340199893186,-1.20241092545968
1580423527.99324,0.788830395971619,-0.0617685206378269,-0.726817730983443
1580423528.02499,-0.239505607690546,0.0139162279697871,-0.743419546807049
1580423528.05675,-0.396246280613413,-0.171633478294041,-0.595956359197375
1580423528.0885,-1.55690852216373,-0.132570382238498,-0.103761348897535
1580423528.12025,-2.34207675288014,-0.284916456855116,0.0744640268558783
1580423528.15201,-1.60915541313802,0.116456855115587,-0.42554360265507
1580423528.18376,-2.05691615167468,0.122804608224612,-1.52809948882277
1580423528.21552,-2.09451438162814,-0.0905775539787896,-0.767833981841765
1580423528.24727,-1.76736095216297,-0.299076829175251,-0.0397955291065841
1580423528.27902,-1.55593194476234,0.260990310521095,1.12819104295415
1580423528.31091,-1.56423285267414,0.255619134813458,-0.123781185626001
1580423528.34267,0.439215686274508,-1.24098573281453,-0.575448233768215
1580423528.37442,0.184817273212786,-0.0681162737468526,-0.382574196993973
1580423528.40617,0.0788586251621268,-0.212649729152361,-0.39136339360647
1580423528.43793,-0.126710917830167,-0.0559090562294955,-0.417242694743267
1580423528.46968,-0.478278782330053,-0.213138017853055,-0.889906157015336
1580423528.50144,-1.10377660791943,-1.49587243457694,-0.427496757457847
1580423528.53319,-1.54470130464637,0.608651865415428,-0.121828030823224
1580423528.56494,-1.51198596169985,0.0109864957656214,0.500251773861297
1580423528.5967,-1.83816281376364,0.466559853513388,0.330327306019683
1580423528.62845,-2.09939726863508,-0.329350728618296,-0.139406424048218
1580423528.66021,-2.07986572060731,-0.648203250171663,-0.0402838178072784
1580423528.69196,-1.5334706645304,-0.743419546807049,-0.382085908293279
1580423528.72371,-1.08619821469444,-0.110109102006561,-1.10328831921874
1580423528.75547,-0.755138475623713,0.0847180895704582,-1.17555504692149
1580423528.78722,-0.532967116807813,-0.167727168688486,-1.08668650339513
1580423528.81898,0.276615548943312,-0.494880598153658,-1.14967574578469
1580423528.85073,0.819104295414665,-0.203860532539863,-0.82887006942855
1580423528.88248,0.148683909361409,-0.186282139314869,-0.67750057221332
1580423528.91424,0.0607919432364383,-0.278568703746091,-0.652597848477912
1580423528.94599,-1.25075150682841,0.0251468680857556,-0.323491264209965
1580423528.97775,-2.74247348744945,-0.429938200961319,0.024170290684367
1580423529.0095,-1.46852826733806,-0.101808194094758,-0.351812008850233
1580423529.04125,-1.98464942397192,0.202395666437781,-1.15016403448539
1580423529.07301,-1.81374837872892,0.313237201495383,-0.720958266575112
1580423529.10476,-1.7302510109102,-0.159914549477378,-0.730235751888303
1580423529.13652,-1.62575722896162,-0.315678644998856,0.240482185091935
1580423529.16827,-1.06569008926528,-0.430426489662013,1.37038223849851
1580423529.20002,-1.04078736552987,-0.256107423514154,-0.728282597085526
1580423529.23178,0.465583276112,-0.506111238269627,-0.393316548409247
1580423529.26353,0.310307469291217,0.549080643930726,-0.580819409475852
1580423529.29529,-0.203372243839169,-0.0158693827725642,-0.212649729152361
1580423529.32704,-0.256595712214848,-0.201907377737086,-0.402105745021744
1580423529.35879,-0.867444876783399,-0.123292896925307,-0.893324177920196
1580423529.39055,-1.51100938429847,-1.83962767986572,-0.69800869764248
1580423529.4223,-1.83035019455253,0.174074921797512,0.165774013885709
1580423529.45406,-1.5422598611429,0.12133974212253,0.877698939497979
1580423529.48581,-1.82839703974975,0.309819180590523,-0.229739833676661
1580423529.51757,-2.01443503471427,-0.520271610589761,-0.283451590753033
1580423529.54932,-2.0119935912108,-0.719981689173723,0.0324711985961699
1580423529.58121,-1.52809948882277,-0.593026626993209,-0.50757610437171
1580423529.61296,-0.955825131609064,-0.119874876020447,-1.41628137636378
1580423529.64472,-0.835217822537576,-0.299076829175251,-1.414328221561
1580423529.67647,0.0617685206378269,-0.42896162355993,-1.29958037689784
1580423529.70823,0.772228580148013,-0.224368657969023,-0.947035934996567
1580423529.73998,0.121828030823224,0.0153810940718699,-0.945571068894484
1580423529.77173,-0.044678416113527,-0.156496528572518,-0.724864576180666
1580423529.80349,-0.556893263141832,-0.323979552910659,-0.433356221866179
1580423529.83524,-2.63358510719463,-0.426031891355764,0.31519035629816
1580423529.867,-2.00027466239414,-0.112062256809338,-0.380621042191196
1580423529.89875,-1.78640421149004,0.126710917830167,-0.822522316319525
1580423529.93051,-1.738551918822,0.0334477759975584,-1.32545967803464
1580423529.96226,-1.93484397650111,-0.270267795834288,-0.587655451285572
1580423529.99401,-1.74587624933242,-0.275150682841231,0.585702296482797
1580423530.02577,-1.08278019378958,0.186282139314869,2.24930189974823
1580423530.05752,-0.682383459220263,0.152590218966964,-2.03591973754482
1580423530.08928,0.413336385137711,-1.25905241474022,-0.148683909361409
1580423530.12103,0.102784771496147,0.817151140611887,-0.739513237201495
1580423530.15279,-0.209231708247501,-0.463630121309224,-0.48706797894255
1580423530.18454,-0.0563973449301898,0.33911650263218,-0.261966887922485
1580423530.2163,-0.80152590218967,-0.119386587319752,-0.7390249485008
1580423530.24805,-1.09938200961318,-1.85525291828794,-0.843518730449379
1580423530.27981,-1.72780956740673,-0.0251468680857556,0.204837109941252
1580423530.31156,-1.38747234302281,-0.0559090562294955,0.782970931563288
1580423530.34331,-1.69558251316091,0.341557946135651,-0.145265888456549
1580423530.37507,-2.003692683299,-0.334721904325933,-0.275638971541925
1580423530.40682,-1.78884565499352,-0.453376058594644,-0.189211871519035
1580423530.43858,-1.88113221942474,-0.637949187457084,0.0329594872968642
1580423530.47033,-1.22731364919509,-0.129640650034332,-1.19264515144579
1580423530.50209,-0.896253910124361,-0.0549324788281069,-1.36647592889296
1580423530.53384,-0.466071564812696,-0.533943694209201,-1.25807583733883
1580423530.5656,0.669687953002214,-0.596932936598764,-1.16725413900969
1580423530.59735,0.591561760891128,0.0441901274128327,-0.840100709544519
1580423530.6291,0.10083161669337,-0.159426260776684,-0.902113374532693
1580423530.66086,-0.153078507667658,-0.203372243839169,-0.67750057221332
1580423530.69261,-1.69362935835813,-0.0422369726100555,-0.0642099641412983
1580423530.72437,-2.54032196536202,-0.252201113908599,0.0744640268558783
1580423530.75612,-1.55446707866026,0.12475776302739,-0.425055313954376
1580423530.78788,-1.88259708552682,0.271244373235675,-1.38649576562142
1580423530.81963,-1.61745632104982,0.172121766994735,-1.06276035706111
1580423530.85156,-1.90603494316014,-0.227298390173189,-0.453864347295339
1580423530.88332,-1.5593499656672,-0.281010147249562,0.282475013351643
1580423530.91507,-1.19948119325551,-0.472419317921721,1.22243076218814
1580423530.94683,-0.736583504997329,0.00952162966353853,-1.41921110856794
1580423530.97858,0.429938200961317,-0.509529259174487,-0.155031662470435
1580423531.01033,0.441168841077285,0.541756313420311,-0.599374380102235
1580423531.04209,-0.149172198062104,0.146730754558632,-0.164797436484321
1580423531.07384,-0.274174105439842,-0.142336156252384,-0.619394216830701
1580423531.1056,-0.96900892652781,-0.165774013885709,-1.03199816891737
1580423531.13735,-1.8586709391928,0.943129625391013,-0.373296711680782
1580423531.16911,-1.67165636682689,-0.366460669871062,0.591561760891128
1580423531.20086,-1.61696803234913,0.327397573815517,0.441168841077285
1580423531.23262,-1.86404211490044,0.0681162737468526,-0.354253452353705
1580423531.26437,-1.92458991378653,-0.362066071564813,-0.297123674372473
1580423531.29612,-1.82937361715114,-0.554451819638361,0.00708018616006711
1580423531.32788,-1.24391546501869,-0.462165255207141,-0.601815823605707
1580423531.35963,-0.948012512397955,0.0544441901274126,-1.31374074921798
1580423531.39139,-0.683848325322346,-0.266849774929428,-1.21852445258259
1580423531.42314,0.0778820477607383,-0.68091859311818,-1.22829022659647
1580423531.4549,0.772716868848708,-0.248783093003738,-0.688731212329289
1580423531.48665,0.214602883955138,-0.0661631189440754,-1.0041657129778
1580423531.51841,0.0485847257190812,-0.0593270771343555,-0.872816052491036
1580423531.55016,-0.640390630960555,-0.120851453421835,-0.590585183489738
1580423531.58191,-2.91728084229801,-0.561776150148775,0.0627450980392155
1580423531.61367,-1.81814297703517,-0.288334477759976,-0.335698481727322
1580423531.64542,-2.13260090028229,-0.0192874036774242,-0.769787136644542
1580423531.67718,-1.76394293125811,0.0393072404058898,-1.16237125200275
1580423531.70893,-1.85574120698863,-0.140871290150301,-0.671641107804989
1580423531.74069,-1.63942931258106,-0.154055085069047,0.181399252307926
1580423531.77244,-1.24098573281453,0.269779507133592,1.45583276112001
1580423531.8042,-0.83570611123827,-0.334233615625239,-0.733165484092469
1580423531.83595,0.618905928130008,-0.880628671702144,-0.424567025253682
1580423531.86771,0.239505607690546,0.747325856412605,-0.428473334859236
1580423531.89946,-0.171633478294041,-0.379644464789807,-0.283451590753033
1580423531.93121,-0.0588387884336612,0.105714503700312,-0.994888227664607
1580423531.96297,-0.616464484626535,-0.391851682307164,-0.81861600671397
1580423531.99472,-2.35233081559472,-0.0358892195010299,-0.11108567940795
1580423532.02648,-1.80642404821851,0.120851453421835,0.412359807736323
1580423532.05823,-1.74929427023728,0.208255130846112,0.346929121843289
1580423532.08999,-1.80495918211643,-0.0612802319371326,-0.239505607690546
1580423532.12189,-2.04129091325246,-0.612069886320286,-0.0612802319371326
1580423532.15364,-1.88747997253376,-0.697032120241092,-0.0876478217746239
1580423532.1854,-1.13990997177081,-0.430426489662013,-0.778088044556345
1580423532.21715,-0.830823224231327,0.0134279392690928,-1.42604715037766
1580423532.24891,-0.602304112306401,-0.10766765850309,-1.20241092545968
1580423532.28066,-0.249759670405126,-0.469489585717556,-1.0378576333257
1580423532.31242,0.946547646295873,-0.499763485160601,-1.07936217288472
1580423532.34417,0.283451590753032,-0.171145189593346,-0.728282597085526
1580423532.37593,0.031006332494087,-0.163332570382238,-0.595956359197375
1580423532.40768,-0.648203250171663,-0.166262302586404,-0.614999618524452
1580423532.43944,-3.1145494773785,-0.382085908293279,0.0451667048142212
1580423532.47119,-1.38405432211795,0.0339360646982527,-0.228763256275272
1580423532.50295,-1.78884565499352,0.0847180895704582,-0.932387273975738
1580423532.5347,-1.86306553749905,-0.0549324788281069,-1.21266498817426
1580423532.56646,-1.99783321889067,-0.262455176623179,-0.292729076066225
1580423532.59821,-1.52419317921721,-0.260990310521096,-0.157961394674601
1580423532.62997,-1.04225223163195,-0.168703746089875,0.86646829938201
1580423532.66172,-0.903089951934081,-0.0358892195010299,-0.840588998245213
1580423532.69348,0.00854505226214997,-0.556893263141832,-0.211184863050278
1580423532.72523,0.141847867551689,0.23315785458152,-0.536873426413367
1580423532.75699,-0.00268558785381856,-0.114991989013504,-0.287846189059282
1580423532.78874,-0.0388189517051956,-0.0231937132829785,-0.0485847257190812
1580423532.8205,-0.790783550774396,0.169192034790569,-0.78101777676051
1580423532.85225,-0.94166475928893,-3.01933318074311,-1.18043793392843
1580423532.88401,-1.33131914244297,0.334721904325932,0.334721904325932
1580423532.91576,-1.79714656290532,-0.0563973449301898,0.870374608987564
1580423532.94752,-1.63796444647898,0.43482108796826,-0.300053406576639
1580423532.97927,-2.1404135194934,-0.646738384069581,-0.265384908827345
1580423533.01103,-1.85329976348516,-0.650644693675135,-0.0324711985961699
1580423533.04278,-1.71169604028382,-0.599374380102235,-0.224856946669718
1580423533.07454,-1.05690089265278,0.0549324788281069,-1.05250629434653
1580423533.10629,-1.03395132372015,0.127687495231555,-1.23561455710689
1580423533.13805,-0.704356450751506,-0.439703974975204,-1.25465781643397
1580423533.1698,0.853772793163959,-0.792248416876479,-1.37380025940337
1580423533.20156,0.523201342793929,-0.366460669871062,-0.600350957503624
1580423533.23331,0.213626306553749,-0.216067750057221,-1.05250629434653
1580423533.26507,-0.152101930266269,-0.0725108720531011,-0.635996032654306
1580423533.29682,-2.34891279468986,0.282963302052337,-0.0744640268558783
1580423533.32858,-2.16482795452811,-0.0925307087815668,0.00561532005798426
1580423533.36033,-1.71169604028382,-0.0832532234683754,-0.426031891355764
1580423533.39215,-1.98123140306706,0.188723582818341,-1.17897306782635
1580423533.4239,-1.95535210193027,0.30493629358358,-0.700450141145952
1580423533.45566,-1.92263675898375,-0.175539787899595,-0.204837109941252
1580423533.48741,-1.46657511253529,0.0319829098954756,0.46216525520714
1580423533.51917,-0.79468986037995,0.137453269245441,0.821545738918136
1580423533.55093,-0.549080643930724,-0.648691538872358,-1.10328831921874
1580423533.58268,0.288334477759975,-0.52466620889601,-0.610116731517509
1580423533.61443,0.426031891355763,0.370855268177309,-0.809826810101473
1580423533.64619,-0.194583047226672,0.169680323491264,-0.269291218432899
1580423533.67794,-0.169192034790569,-0.0544441901274126,-0.531990539406424
1580423533.7097,-0.608163576714732,-0.321538109407188,-0.614511329823758
1580423533.74145,-1.84499885557336,-1.10963607232776,-0.536873426413367
1580423533.77321,-1.78493934538796,0.0314946211947813,0.0578622110322726
1580423533.80497,-1.52614633401999,0.0349126420996413,0.623788815136951
1580423533.83672,-1.5505607690547,0.178469520103761,-0.375249866483559
1580423533.86847,-2.0378728923476,-0.456794079499504,-0.264896620126651
1580423533.90023,-2.0461738002594,-0.695567254139009,0.0495613031204698
1580423533.93198,-1.42165255207141,-0.676523994811932,-0.440680552376593
1580423533.96374,-1.09205767910277,-0.0588387884336612,-1.23219653620203
1580423533.99549,-0.848401617456322,-0.178957808804455,-1.32545967803464
1580423534.02725,-0.262455176623179,-0.475349050125887,-1.36891737239643
1580423534.05901,0.853772793163959,-0.635996032654306,-0.854261081864653
1580423534.09076,0.363530937666894,0.01196307316701,-0.836194399938964
1580423534.12251,-0.0222171358815899,-0.0939955748836496,-0.881605249103533
1580423534.15427,-0.335210193026628,-0.248783093003738,-0.796154726482033
1580423534.18602,-2.71708247501335,0.127687495231555,-0.0266117341878385
1580423534.21778,-1.91238269626917,-0.280521858548868,-0.244388494697489
1580423534.24953,-1.69411764705882,0.0441901274128327,-0.965102616922255
1580423534.28129,-1.67751583123522,-0.0261234454871442,-1.52370489051652
1580423534.31305,-1.98513771267262,0.000244144350347142,-0.657969024185549
1580423534.3448,-1.95095750362402,0.00415045395590141,0.355230029755091
1580423534.37655,-1.02027924010071,0.290287632562752,1.44655527580682
1580423534.40831,-0.618905928130006,-0.123781185626001,-1.5168688487068
1580423534.44006,0.192629892423895,-0.583749141680018,0.160891126878766
1580423534.47182,0.0847180895704582,0.136964980544747,-0.688731212329289
1580423534.50357,-0.105714503700312,0.226321812771801,-0.200442511635003
1580423534.53533,-0.212649729152361,-0.253177691309988,-0.537850003814755
1580423534.56708,-1.00465400167849,-0.76734569314107,-0.768322270542459
1580423534.59884,-1.57351033798733,0.742931258106356,-1.25026321812772
1580423534.63059,-1.70681315327687,-0.502693217364767,0.421637293049514
1580423534.66251,-1.52175173571374,0.447516594186311,0.502693217364769
1580423534.69426,-1.73806363012131,-0.00415045395590141,-0.544686045624475
1580423534.72602,-1.97732509346151,-0.550057221332112,-0.158449683375295
1580423534.75777,-1.82253757534142,-0.543709468223087,-0.189700160219729
1580423534.78953,-1.36940566109712,-0.458747234302281,-0.390875104905776
1580423534.82128,-0.990981918059052,0.0656748302433812,-1.26149385824369
1580423534.85304,-0.92799267566949,-0.130617227435721,-1.32692454413672
1580423534.88479,0.184817273212786,-0.709727626459143,-1.65896086060883
1580423534.91654,0.756115053025102,-0.51441214618143,-0.478767071030747
1580423534.9483,0.267826352330815,-0.0651865415426869,-0.855237659266042
1580423534.98005,0.0305180437933927,-0.0759288929579611,-0.789806973373008
1580423535.01181,-0.744884412909132,-0.107179369802395,-0.653086137178606
1580423535.04357,-3.01103227283131,-0.464606698710613,0.193606469825284
1580423535.07532,-1.4826886396582,-0.0979018844892039,-0.402105745021744
1580423535.10707,-2.02175936522469,-0.0524910353246355,-0.964126039520867
1580423535.13883,-1.7556420233463,0.159426260776684,-1.01490806439307
1580423535.17058,-1.77663843747616,-0.104737926298924,-0.578866254673075
1580423535.20234,-1.55446707866026,-0.0896009765774011,0.302494850080109
1580423535.23409,-1.19264515144579,0.355230029755091,1.67214465552758
1580423535.26585,-0.355718318455787,-0.080811779964904,-1.07740901808194
1580423535.29761,0.275638971541923,-0.542732890821698,-0.297123674372473
1580423535.32936,0.102784771496147,0.630136568245977,-0.56910048065919
1580423535.36111,-0.109132524605172,-0.219974059662775,-0.398687724116884
1580423535.39287,0.0354009308003356,0.264408331425955,-0.798596169985505
1580423535.42462,-0.886488136110476,-0.237064164187075,-0.740489814602883
1580423535.45638,-2.14480811779965,-0.295170519569696,-0.167727168688486
1580423535.48813,-1.61843289845121,0.240970473792629,0.181399252307926
1580423535.51989,-1.65114824139773,0.0212405584802013,0.467536430914777
1580423535.55165,-1.87380788891432,0.135011825741969,-0.294193942168308
1580423535.5834,-2.22000457770657,-0.680430304417486,0.037842374303807
1580423535.61515,-1.88308537422751,-0.748302433813992,-0.258548867017625
1580423535.64691,-1.33864347295338,-0.36743724727245,-0.891859311818113
1580423535.67866,-1.00123598077363,-0.109620813305867,-1.51442740520333
1580423535.71042,-0.406012054627299,-0.157473105973907,-1.43923094529641
1580423535.74217,0.691660944533457,-0.389898527504387,-1.0471351186389
1580423535.77393,0.391363393606468,0.00903334096284425,-1.14332799267567
1580423535.80569,-0.123781185626001,-0.205813687342641,-0.816662851911193
1580423535.83744,-0.135988403143358,-0.420660715648127,-0.522224765392538
1580423535.86919,-1.36989394979782,-0.237552452887769,-0.161379415579461
1580423535.90095,-2.40360112916762,0.116945143816281,0.202883955138475
1580423535.93289,-1.75661860074769,0.306889448386357,-0.432867933165484
1580423535.96465,-2.13015945677882,0.315678644998854,-1.21217669947356
1580423535.9964,-1.88503852903029,0.0134279392690928,-0.81519798580911
1580423536.02816,-1.70290684367132,-0.417730983443962,0.0520027466239412
1580423536.05991,-1.36110475318532,-0.105714503700312,0.720469977874419
1580423536.09167,-1.15602349889372,0.298588540474555,0.402105745021743
1580423536.12342,0.615487907225148,-0.060303654535744,-1.2087586785687
1580423536.15518,-0.0373540856031127,-0.184817273212786,-0.0871595330739297
1580423536.18693,-0.256595712214848,-0.48706797894255,-0.47339589532311
1580423536.21869,-0.108644235904478,-0.0500495918211641,-0.266361486228734
1580423536.25045,-0.214114595254443,0.000732433051041426,-0.455817502098116
1580423536.2822,-1.03102159151598,-0.276615548943314,-0.71168078126192
1580423536.31396,-1.3034866865034,1.06031891355764,-0.275638971541925
1580423536.34571,-1.72683299000534,-0.582772564278629,0.666269932097354
1580423536.37747,-1.83962767986572,0.249759670405126,0.0632333867399097
1580423536.40922,-1.81374837872892,-0.156496528572518,-0.433356221866179
1580423536.44098,-1.83083848325322,-0.508552681773098,0.01196307316701
1580423536.47273,-1.81911955443656,-0.44263370717937,-0.330815594720379
1580423536.50449,-1.22682536049439,-0.0886243991760125,-0.925062943465324
1580423536.53624,-0.906507972838941,0.224368657969023,-1.26344701304646
1580423536.568,-0.462653543907836,-0.40503547722591,-1.41139848935683
1580423536.59976,0.964126039520867,-1.05641260395209,-1.01930266269932
1580423536.63151,0.282475013351643,-0.223880369268329,-0.7390249485008
1580423536.66327,-0.210696574349583,0.176028076600289,-0.739513237201495
1580423536.69502,-0.291752498664836,-0.041260395208667,-0.626718547341115
1580423536.72678,-2.24490730144198,0.130128938735027,0.104737926298924
1580423536.75853,-2.18435950255589,-0.109620813305867,-0.202883955138475
1580423536.79029,-1.68874647135119,0.124269474326695,-0.471931029221027
1580423536.82204,-1.92556649118792,0.0905775539787896,-1.20631723506523
1580423536.8538,-1.69655909056229,-0.0388189517051956,-0.753185320820936
1580423536.88556,-1.65651941710536,-0.359136339360647,0.509529259174489
1580423536.91731,-1.2776073853666,0.170168612191958,1.18287937743191
1580423536.94907,-1.34889753566796,0.29810025177386,-0.653574425879301
1580423536.98082,0.487556267643242,-1.46999313344015,-0.376714732585642
1580423537.01258,-0.253665980010682,0.33911650263218,-0.213626306553749
1580423537.04433,-0.234622720683603,-0.355230029755093,-0.46997787441825
1580423537.07609,-0.188723582818341,0.150148775463492,-0.254154268711376
1580423537.10784,-0.519783321889067,-0.211673151750972,-0.223392080567635
1580423537.1396,-0.838635843442436,-0.863538567177844,-1.06959639887083
1580423537.17135,-1.57155718318456,1.40944533455405,0.106691081101701
1580423537.20322,-1.65114824139773,-0.109620813305867,0.99635309376669
1580423537.23497,-1.86941329060807,0.307866025787746,-0.148683909361409
1580423537.26673,-2.02615396353094,-0.562752727550164,-0.154543373769741
1580423537.29848,-1.75515373464561,-0.794201571679256,-0.349858854047456
1580423537.33024,-1.65261310749981,-0.439703974975204,-0.45630579079881
1580423537.36199,-0.899671931029221,0.0129396505683985,-1.37721828030823
1580423537.39375,-0.839612420843824,-0.358648050659953,-1.27565423056382
1580423537.4255,0.110109102006561,-0.668223086900129,-1.62722209506371
1580423537.45726,0.879163805600061,-0.154055085069047,-0.681406881818875
1580423537.48901,0.283451590753032,-0.00512703135728998,-0.740489814602883
1580423537.52077,-0.0925307087815668,-0.114991989013504,-0.599862668802929
1580423537.55252,-1.00025940337224,0.0075684748607614,-0.546150911726558
1580423537.58428,-2.4568245975433,-0.11792172121767,0.293217364766917
1580423537.61603,-1.97195391775387,0.143801022354467,-0.0651865415426869
1580423537.64779,-2.03591973754482,0.10766765850309,-1.07643244068055
1580423537.67954,-1.77712672617685,-0.0319829098954756,-0.928969253070878
1580423537.7113,-1.64187075608453,-0.0891126878767068,-0.505622949568933
1580423537.74305,-1.54714274814984,-0.362066071564813,0.417242694743265
1580423537.77481,-1.36940566109712,-0.692149233234149,1.61501487754635
1580423537.80656,-0.197024490730143,0.443121995880063,-1.32594796673533
1580423537.83832,0.595956359197377,-0.638437476157778,-0.409918364232853
1580423537.87007,0.230228122377355,0.810315098802167,-0.605722133211261
1580423537.90183,-0.190188448920424,-0.392339971007859,-0.39819943541619
1580423537.93358,-0.177981231403066,0.23999389639124,-0.148195620660715
1580423537.96533,-1.13307392996109,0.0690928511482412,-1.17701991302357
1580423537.99709,-0.916762035553521,-1.661890592813,-0.946059357595178
1580423538.02884,-2.3879758907454,-0.603280689707789,0.220950637064163
1580423538.0606,-1.44704356450752,0.25024795910582,1.09889372091249
1580423538.09236,-1.87820248722057,0.424078736552985,-0.0915541313801782
1580423538.12411,-1.87429617761502,-0.250736247806516,-0.560799572747387
1580423538.15586,-2.05349813076982,-0.629159990844586,0.110597390707255
1580423538.18762,-1.61110856794079,-0.766857404440376,-0.302983138780805
1580423538.21937,-1.05104142824445,-0.241947051194018,-1.34401464866102
1580423538.25113,-0.616952773327229,-0.342046234836348,-1.59938963912413
1580423538.28288,-0.172121766994735,0.00561532005798426,-0.789806973373008
1580423538.31464,0.972915236133364,-0.252201113908599,-1.09938200961318
1580423538.3464,0.080811779964904,-0.0515144579232469,-0.809826810101473
1580423538.37815,-0.0217288471808956,-0.350835431448845,-0.650644693675135
1580423538.4099,-0.262455176623179,-0.242923628595406,-0.475837338826581
1580423538.44166,-2.67508964675364,0.181887541008621,0.237064164187075
1580423538.47357,-2.02127107652399,-0.108644235904478,-0.732677195391775
1580423538.50533,-1.69460593575952,0.0876478217746239,-0.877698939497979
1580423538.53708,-2.06179903868162,0.0886243991760125,-1.12916762035553
1580423538.56884,-2.29959563591974,-0.0710460059510183,-0.538826581216144
1580423538.60059,-1.83035019455253,-0.281498435950256,0.3117723353933
1580423538.63235,-1.19996948195621,0.0187991149767299,0.919203479056993
1580423538.6641,-0.906019684138247,0.65210955977722,-0.804455634393836
1580423538.69586,0.332768749523154,-0.891859311818113,-0.159426260776684
1580423538.72761,0.2434119172961,0.145265888456549,-0.404547188525216
1580423538.75937,-0.104737926298924,-0.413336385137713,-0.450446326390479
1580423538.79113,-0.156984817273212,0.26733806363012,-0.0524910353246355
1580423538.82288,-0.74244296940566,-0.237064164187075,-0.623300526436255
1580423538.85464,-0.943129625391013,-2.09890897993439,-0.875257495994507
1580423538.88639,-0.906996261539636,1.05641260395209,0.310795757991912
1580423538.91815,-1.8498817425803,-0.235599298084992,0.89723048752575
1580423538.9499,-1.73659876401923,0.0656748302433812,-0.0710460059510183
1580423538.98166,-2.12234683756771,-0.80836194399939,-0.173098344396124
1580423539.01341,-1.54811932555123,-0.443610284580759,-0.179934386205844
1580423539.04517,-1.61501487754635,-0.430914778362707,-0.120851453421835
1580423539.07693,-1.18629739833677,0.0900892652780954,-0.780041199359122
1580423539.10868,-0.903089951934081,0.0803234912642097,-1.42018768596933
1580423539.14044,-0.613046463721675,-0.612069886320286,-1.4480201419089
1580423539.17219,0.665293354695965,-0.614999618524452,-1.02565041580835
1580423539.20395,0.60767528801404,-0.245853360799572,-1.05152971694514
1580423539.2357,0.0397955291065841,-0.0900892652780954,-0.734142061493857
1580423539.26746,-0.256107423514154,-0.219974059662775,-0.603768978408484
1580423539.29921,-1.49880216678111,0.0949721522850382,0.0144045166704814
1580423539.33097,-2.70048065918975,-0.255130846112765,-0.00366216525520713
1580423539.36272,-1.76882581826505,-0.139406424048218,-0.548104066529335
1580423539.39448,-2.20926222629129,-0.0427252613107498,-1.11012436102846
1580423539.42623,-1.61013199053941,0.253177691309986,-0.783947508964676
1580423539.45799,-1.47878233005264,0.132082093537804,-0.38452735179675
1580423539.48975,-1.47194628824292,0.102784771496147,0.552498664835586
1580423539.5215,-1.57985809109636,-0.572030212863355,-0.0866712443732354
1580423539.55326,0.296147096971083,-0.409430075532159,-1.10524147402151
1580423539.58501,0.077393759060044,-0.141847867551689,-0.0471198596169984
1580423539.61677,-0.102296482795452,-0.588143739986267,-0.439703974975204
1580423539.64852,-0.031006332494087,-0.0168459601739528,-0.200930800335698
1580423539.68028,-0.298100251773862,-0.073975738155184,-0.549568932631418
1580423539.71203,-0.961196307316701,-0.341069657434959,-0.980727855344472
1580423539.7439,-1.53102922102693,1.52809948882277,-0.788342107270925
1580423539.77565,-1.84304570077058,-0.614511329823758,0.78785381857023
1580423539.80741,-1.70241855497063,0.533943694209203,0.676523994811934
1580423539.83916,-1.88943312733654,0.00903334096284425,-0.424567025253682
1580423539.87092,-1.850370031281,-0.288334477759976,-0.234622720683603
1580423539.90268,-2.16189822232395,-0.925551232166018,0.233646143282215
1580423539.93443,-1.53884184023804,-0.544686045624475,-0.947035934996567
1580423539.96619,-0.831311512932022,0.103761348897535,-1.70974288548104
1580423539.99794,-0.486579690241856,0.0661631189440754,-1.17653162432288
1580423540.0297,0.550057221332114,-0.837659266041047,-1.25954070344091
1580423540.06146,0.501228351262686,-0.327885862516213,-1.31618219272145
1580423540.09321,-0.0461432822156098,0.0725108720531011,-0.651132982375829
1580423540.12497,-0.294682230869002,-0.215091172655832,-0.408941786831464
1580423540.15672,-1.04322880903334,-0.214602883955138,-0.163820859082932
1580423540.18848,-2.73466086823835,-0.290775921263448,0.166262302586404
1580423540.22023,-1.75954833295186,0.12133974212253,-0.350835431448845
1580423540.25199,-2.20193789578088,0.341557946135651,-1.07350270847639
1580423540.28375,-1.83474479285878,0.0573739223315783,-1.04762340733959
1580423540.3155,-1.70046540016785,-0.446540016784924,-0.241947051194018
1580423540.34726,-1.39577325093462,-0.281986724650951,0.229251544975966
1580423540.37901,-1.53737697413596,0.483161669336994,0.431891355764094
1580423540.41077,0.155519951171129,-0.170656900892652,-0.649668116273746
1580423540.44253,0.0520027466239412,-0.351812008850233,-0.336186770428016
1580423540.47428,0.186770428015564,-0.041260395208667,-0.345952544441902
1580423540.50604,-0.0520027466239412,-0.37769130998703,-0.318120088502328
1580423540.53779,-0.167238879987792,0.273685816739146,-0.634042877851529
1580423540.56955,-1.0124666208896,-0.415777828641184,-0.665293354695963
1580423540.60131,-1.71120775158312,0.538338292515451,-0.49390402075227
1580423540.63306,-1.68191042954147,0.103273060196841,0.551033798733503
1580423540.66482,-1.77029068436713,0.410406652933546,0.601815823605708
1580423540.69657,-1.78103303578241,0.041260395208667,-0.40503547722591
1580423540.72833,-1.98025482566567,-0.488044556343938,-0.136476691844052
1580423540.76009,-2.08767833981842,-0.870374608987564,-0.0769054703593497
1580423540.79184,-1.2771190966659,-0.43579766536965,-0.860120546272984
1580423540.8236,-0.901136797131304,-0.0192874036774242,-1.44606698710613
1580423540.85535,-0.454352635996033,-0.2434119172961,-1.47341115434501
1580423540.88711,0.131593804837109,-0.461676966506447,-0.963637750820173
1580423540.91886,0.908461127641718,-0.0495613031204698,-0.853772793163959
1580423540.95062,-0.0832532234683754,-0.0505378805218584,-0.990981918059052
1580423540.98238,-0.0485847257190812,-0.235599298084992,-0.677988860914015
1580423541.01434,-0.457770656900893,-0.323979552910659,-0.260990310521096
1580423541.0461,-2.63212024109255,-0.377203021286336,-0.048096437018387
1580423541.07786,-2.13943694209201,-0.291752498664836,-0.739513237201495
1580423541.10961,-2.15555046921492,0.00170901045242999,-0.750743877317465
1580423541.14137,-1.82204928664073,0.0861829556725411,-1.11061264972915
1580423541.17313,-1.65749599450675,0.0192874036774242,-0.638437476157778
1580423541.20488,-1.66530861371786,-0.0896009765774011,0.155031662470435
1580423541.23664,-1.16188296330205,0.0856946669718468,1.17604333562219
1580423541.26839,-1.24538033112077,-1.15162890058747,-0.802014190890365
1580423541.30015,0.3117723353933,-0.0285648889906156,-0.762951094834822
1580423541.33191,0.153078507667658,-0.0734874494544897,-0.474860761425193
1580423541.36366,-0.0407721065079727,0.0734874494544897,-0.448981460288396
1580423541.39542,-0.105714503700312,-0.0754406042572668,-0.0539559014267184
1580423541.42718,-0.639902342259861,-0.10766765850309,-0.411383230334936
1580423541.45893,-0.826428625925079,-0.848401617456322,-0.81861600671397
1580423541.49069,-1.21901274128328,1.19069199664301,-0.244876783398183
1580423541.52244,-1.75075913633936,-0.508552681773098,0.97242694743267
1580423541.5542,-1.66091401541161,0.389898527504386,0.167238879987792
1580423541.58596,-1.85183489738308,-0.143312733653772,-0.44263370717937
1580423541.61771,-1.77419699397269,-0.370366979476616,-0.180422674906538
1580423541.64947,-1.95877012283513,-0.764415960936905,0.196047913328755
1580423541.68123,-1.25612268253605,-0.302006561379416,-0.919203479056993
1580423541.71298,-0.850354772259099,0.166750591287098,-1.30104524299992
1580423541.74474,-0.682383459220263,-0.157473105973907,-1.31764705882353
1580423541.7765,0.0393072404058898,-0.552498664835584,-1.14137483787289
1580423541.80825,0.855237659266042,-0.545662623025864,-1.09156939040207
1580423541.84001,-0.037842374303807,-0.158449683375295,-0.880628671702144
1580423541.87177,-0.10424963759823,-0.225345235370412,-0.689707789730678
1580423541.90352,-1.11110093842985,-0.116945143816281,-0.140383001449607
1580423541.93528,-2.85526817730983,-0.277592126344702,-0.0515144579232469
1580423541.96703,-1.59060044251163,0.0476081483176927,-0.352788586251622
1580423541.99879,-2.36453803311208,0.132082093537804,-0.976821545738918
1580423542.03055,-1.88552681773098,-0.133546959639887,-1.15602349889372
1580423542.0623,-1.78249790188449,-0.304448004882888,-0.579354543373769
1580423542.09406,-1.75661860074769,-0.0251468680857556,0.510017547875183
1580423542.12582,-1.51100938429847,1.21510643167773,1.38503089951934
1580423542.15757,-0.199954222934309,-0.484626535439078,-1.06910811017014
1580423542.18933,0.244876783398183,-0.527595941100175,-0.125246051728084
1580423542.22109,0.0979018844892039,-0.165774013885709,-0.787365529869536
1580423542.25284,-0.110109102006561,-0.498786907759213,-0.425055313954376
1580423542.28482,0.369390402075226,0.714122224765394,-0.369390402075227
1580423542.31658,-0.949477378500038,0.419684138246737,-0.78443579766537
1580423542.34833,-1.20387579156176,-3.12968642710002,-1.06324864576181
1580423542.38009,-1.44557869840543,-0.0993667505912867,0.0207522697795071
1580423542.41185,-1.82204928664073,-0.0651865415426869,1.20680552376593
1580423542.4436,-1.75759517814908,0.336675059128709,-0.260990310521096
1580423542.47536,-1.78298619058518,-0.402105745021744,-0.427985046158541
1580423542.50712,-2.07302967879759,-0.755138475623713,0.118898298619058
1580423542.53887,-1.74441138323033,-0.653574425879301,-0.375738155184253
