Timestamp_seconds,Accel_X_g,Accel_Y_g,Accel_Z_g
1580423490.03111,-0.93824673838407,0.206301976043335,0.29810025177386
1580423490.06306,-0.933852140077821,0.204837109941252,0.291752498664835
1580423490.095,-0.942153047989624,0.216067750057221,0.304448004882886
1580423490.12695,-0.952407110704204,0.245853360799572,0.31519035629816
1580423490.15889,-0.942153047989624,0.202883955138475,0.29126420996414
1580423490.19084,-0.94166475928893,0.196047913328755,0.29126420996414
1580423490.22278,-0.946547646295873,0.216556038757915,0.306401159685663
1580423490.25473,-0.933363851377127,0.211673151750972,0.288334477759975
1580423490.28667,-0.933363851377127,0.181887541008621,0.323979552910657
1580423490.31862,-0.937758449683376,0.199954222934309,0.307866025787746
1580423490.35057,-0.939223315785458,0.209231708247501,0.319584954604409
1580423490.38251,-0.935317006179904,0.192629892423895,0.316655222400243
1580423490.41446,-0.940199893186847,0.211184863050278,0.312260624093994
1580423490.4464,-0.941176470588236,0.207766842145418,0.29810025177386
1580423490.47835,-0.942153047989624,0.197024490730143,0.301029983978026
1580423490.51029,-0.941176470588236,0.197512779430838,0.305912870984969
1580423490.54224,-0.936293583581293,0.195071335927366,0.312748912794689
1580423490.57419,-0.948012512397955,0.202395666437781,0.30493629358358
1580423490.60613,-0.944594491493095,0.210696574349583,0.293705653467612
1580423490.63808,-0.94166475928893,0.206301976043335,0.30835431448844
1580423490.67002,-0.948012512397955,0.222903791866941,0.315678644998854
1580423490.70197,-0.945571068894484,0.230228122377355,0.306889448386357
1580423490.73391,-0.943617914091707,0.23315785458152,0.298588540474555
1580423490.76586,-0.941176470588236,0.204837109941252,0.310307469291217
1580423490.79781,-0.941176470588236,0.193118181124589,0.321538109407186
1580423490.82975,-0.935317006179904,0.204837109941252,0.320073243305103
1580423490.8617,-0.938735027084764,0.208255130846112,0.333745326924543
1580423490.89364,-0.923109788662547,0.188235294117646,0.327885862516212
1580423490.92559,-0.912367437247273,0.180422674906538,0.342046234836346
1580423490.95753,-0.918226901655604,0.180910963607232,0.345464255741206
1580423490.98948,-0.929457541771573,0.193606469825284,0.347417410543983
1580423491.02143,-0.922133211261158,0.189211871519035,0.333257038223849
1580423491.05337,-0.920668345159076,0.191165026321812,0.343999389639123
1580423491.08532,-0.935317006179904,0.204837109941252,0.341557946135651
1580423491.11726,-0.942641336690318,0.207278553444723,0.321049820706492
1580423491.14921,-0.943129625391013,0.204837109941252,0.325932707713434
1580423491.18115,-0.948012512397955,0.204348821240558,0.327397573815517
1580423491.21319,-0.95191882200351,0.235599298084992,0.317143511100937
1580423491.24514,-0.948989089799344,0.249271381704432,0.303471427481497
1580423491.27709,-0.950453955901427,0.239017318989852,0.300053406576637
1580423491.30903,-0.946059357595178,0.215579461356526,0.346440833142594
1580423491.34098,-0.922133211261158,0.177004654001678,0.368902113374531
1580423491.37292,-0.91090257114519,0.198001068131532,0.388433661402303
1580423491.40487,-0.912367437247273,0.178957808804455,0.386480506599526
1580423491.43682,-0.925551232166018,0.179934386205844,0.423102159151597
1580423491.46876,-0.927504386968796,0.242435339894712,0.360112916762034
1580423491.50071,-0.944594491493095,0.258548867017623,0.391363393606468
1580423491.53265,-0.976821545738918,0.215091172655832,0.395269703212023
1580423491.5646,-0.939711604486153,0.149172198062104,0.42114900434882
1580423491.59654,-0.86988632028687,0.0827649347676811,0.574471656366828
1580423491.62849,-0.875745784695201,0.187258716716258,0.552010376134891
1580423491.66043,-0.742931258106355,0.159426260776684,0.611581597619594
1580423491.69238,-0.627206836041809,0.10766765850309,0.618417639429314
1580423491.72433,-0.46997787441825,0.0642099641412983,0.684336614023042
1580423491.75627,-0.234622720683603,0.250736247806515,0.796643015182728
1580423491.78822,-0.397711146715496,0.185793850614175,0.854261081864653
1580423491.82016,-1.9695124742504,-0.148195620660715,0.59058518348974
1580423491.85211,-0.498786907759213,-0.2434119172961,1.13112077515831
1580423491.88405,-0.41528953994049,-0.0959487296864268,0.762951094834822
1580423491.916,-0.916762035553521,-0.355718318455787,0.766857404440376
1580423491.94795,-0.754650186923019,-0.392828259708553,0.599862668802931
1580423491.97989,-0.808850232700085,-0.243900205996795,0.578377965972383
1580423492.01184,-0.758556496528573,-0.149172198062104,0.596444647898071
1580423492.04378,-0.844007019150073,-0.0192874036774242,0.531990539406426
1580423492.07573,-0.913344014648661,0.118410009918364,0.510505836575877
1580423492.10767,-0.922133211261158,0.0305180437933927,0.317631799801632
1580423492.13962,-1.05348287174792,0.0158693827725642,0.119386587319752
1580423492.17157,-0.994888227664607,-0.0461432822156098,0.261966887922483
1580423492.20351,-0.953383688105593,-0.155031662470435,0.242923628595406
1580423492.23546,-0.965102616922255,-0.181399252307926,0.323491264209963
1580423492.2674,-0.919691767757687,-0.313237201495385,0.521736476691846
1580423492.29935,-1.06617837796597,-0.283939879453728,0.367437247272449
1580423492.3313,-1.17067215991455,-0.149660486762798,0.0813000686655982
1580423492.36324,-1.41872281986725,0.00659189745937283,-0.161867704280155
1580423492.39519,-1.85964751659419,-0.359136339360647,-0.912367437247273
1580423492.42713,-2.10769817654688,-0.376714732585642,-0.361089494163425
1580423492.45908,-0.94850080109865,-0.99293507286183,0.739513237201496
1580423492.49106,-0.550057221332112,0.128664072632944,0.830334935530633
1580423492.523,0.0324711985961699,1.33522545204852,0.446540016784922
1580423492.55495,0.301029983978026,0.0813000686655982,0.356694895857174
1580423492.58689,-0.263431754024568,-0.444586861982147,-0.186282139314869
1580423492.61884,1.03492790112154,-1.64333562218662,-0.334721904325933
1580423492.65079,-1.04859998474098,0.0202639810788128,1.09694056610971
1580423492.68273,-1.05397116044862,0.649668116273748,1.65700770580606
1580423492.71468,0.00219729915312428,-0.135500114442664,1.75759517814908
1580423492.74662,-2.3625848783093,-0.54859235523003,-0.364995803768979
1580423492.77857,-3.45391012436103,0.956801709010453,-0.231692988479438
1580423492.81051,-0.536873426413367,0.272709239337757,0.795666437781339
1580423492.84246,0.37329671168078,-2.61161211566339,1.54372472724499
1580423492.87441,0.333257038223849,-0.763439383535516,0.697520408941788
1580423492.90635,-0.515388723582818,-0.615487907225146,0.884046692607004
1580423492.9383,-0.947035934996567,-1.12526131074998,0.676035706111239
1580423492.97024,-1.06471351186389,-0.566659037155718,0.544686045624477
1580423493.00219,-2.10086213473716,0.443121995880063,0.210696574349583
1580423493.03413,-1.78103303578241,-0.0368657969024184,-0.191653315022506
1580423493.06608,-1.66237888151369,0.0974135957885096,-0.682871747920958
1580423493.09803,-1.73122758831159,0.300053406576637,-0.831799801632716
1580423493.12997,-1.41335164415961,0.208255130846112,-0.621347371633478
1580423493.16192,-1.10963607232776,0.119874876020447,-0.0876478217746239
1580423493.19386,-0.79468986037995,-0.261478599221791,0.809826810101473
1580423493.22581,-0.838147554741742,-0.479255359731441,0.780041199359122
1580423493.25776,0.0778820477607383,-0.798596169985505,1.02516212710765
1580423493.2897,0.577889677271688,-1.06520180056458,1.12574959945067
1580423493.32165,0.687266346227208,-0.614023041123064,0.725352864881362
1580423493.35359,0.628671702143894,-0.162355992980849,0.422613870450903
1580423493.38554,-0.00561532005798426,0.950453955901427,0.787365529869536
1580423493.41748,-0.848889906157016,0.747325856412605,0.885023270008393
1580423493.44943,-1.38356603341726,-0.753185320820936,0.998794537270161
1580423493.48137,-0.744884412909132,-2.46268406195163,0.100343327992675
1580423493.51332,-0.907972838941024,0.744884412909133,1.13063248645762
1580423493.54527,-0.514900434882124,-0.132570382238498,0.584725719081408
1580423493.57721,-1.33669031815061,-0.400152590218967,-1.05885404745556
1580423493.60916,-1.41579308766308,0.136964980544747,0.0354009308003356
1580423493.6411,0.0100099183642328,-1.38747234302281,2.4138551918822
1580423493.67305,-0.37769130998703,0.0979018844892039,0.806408789196613
1580423493.70499,-0.614511329823758,-1.16871900511177,1.03590447852293
1580423493.73694,-0.422613870450904,-1.24391546501869,1.01734950789654
1580423493.76895,-0.613534752422369,-0.876234073395896,1.29713893339437
1580423493.8009,-0.546639200427252,-1.01979095140002,1.20485236896315
1580423493.83284,-1.57839322499428,-1.01197833218891,1.02613870450904
1580423493.86479,-2.16140993362325,0.0920424200808725,0.194583047226672
1580423493.89673,-1.87771419851988,0.58033112077516,-0.393316548409247
1580423493.92868,-1.86013580529488,0.708262760357062,-0.824475471122302
1580423493.96062,-1.36842908369574,0.189700160219729,-0.418219272144656
1580423493.99257,-0.912855725947967,-0.0456549935149155,0.0124513618677042
1580423494.02452,-0.678477149614709,-0.272220950637065,0.270267795834286
1580423494.05646,-0.615487907225146,-0.441657129777981,0.751720454718853
1580423494.08841,-0.361089494163425,-0.269779507133594,0.887464713511864
1580423494.12035,0.129640650034332,-0.230716411078049,1.11061264972915
1580423494.1523,0.391363393606468,-0.320073243305105,0.960219729915313
1580423494.18424,0.524666208896011,-0.345952544441902,0.846448462653544
1580423494.21619,0.0681162737468526,-0.474372472724498,0.858167391470207
1580423494.24814,-0.186770428015564,-0.377203021286336,0.630136568245977
1580423494.28008,-0.598886091401541,0.122804608224612,0.899671931029221
1580423494.31203,-1.34059662775616,0.168703746089875,1.30104524299992
1580423494.34397,-1.37380025940337,-1.17311360341802,0.248783093003738
1580423494.37592,-0.552498664835584,-0.891859311818113,0.907972838941024
1580423494.40787,-0.519783321889067,0.0764171816586554,0.597909514000154
1580423494.43981,-0.484138246738384,0.313725490196077,0.639902342259862
1580423494.47176,-3.56621652552071,0.391851682307163,-2.82792401007096
1580423494.5037,-0.182864118410009,-1.85671778439002,5.07454032196536
1580423494.53565,1.38503089951934,0.379644464789806,0.865980010681316
1580423494.56759,-0.553963530937667,-1.24245059891661,1.6706797894255
1580423494.59954,-0.199954222934309,-1.13746852826734,1.24782177462425
1580423494.63148,-0.46314183260853,-1.05690089265278,1.11012436102846
1580423494.66343,-0.629159990844586,-0.912855725947967,1.08863965819791
1580423494.69538,-1.20631723506523,-0.885023270008393,1.15309376668955
1580423494.72732,-1.69069962615396,-0.445563439383536,0.694590676737622
1580423494.75927,-1.65847257190814,-0.0231937132829785,0.160402838178072
1580423494.79121,-1.64040588998245,0.481208514534217,-0.315678644998856
1580423494.82316,-1.756130312047,0.738536659800108,-0.902113374532693
1580423494.8551,-1.32741283283742,0.31860837720302,-0.416754406042573
1580423494.88705,-0.950942244602121,-0.283939879453728,0.140871290150301
1580423494.919,-0.850354772259099,-0.424078736552987,0.46900129701686
1580423494.95094,-0.79810788128481,-0.529549095902953,0.598886091401543
1580423494.98289,-0.52466620889601,-0.289799343862059,1.09303425650416
1580423495.01483,0.129152361333638,-0.404547188525216,1.08424505989166
1580423495.04694,0.576424811169606,-0.425055313954376,0.986587319752804
1580423495.07888,0.671152819104297,-0.40161745632105,0.769787136644542
1580423495.11083,0.162355992980849,-0.113527122911421,0.674570840009157
1580423495.14277,-0.201907377737086,-0.231692988479438,0.736095216296636
1580423495.17472,-0.559822995345998,0.205813687342641,0.844983596551462
1580423495.20667,-1.16139467460136,-0.270756084534982,1.73122758831159
1580423495.23861,-0.779552910658428,-1.35573357747768,0.490974288548102
1580423495.27056,-0.441657129777981,0.00854505226214997,1.04957656214237
1580423495.30251,-0.50415808346685,0.237552452887769,0.862073701075762
1580423495.33445,-3.58135347524224,-0.148195620660715,-2.37674525062944
1580423495.3664,-0.00952162966353853,-1.66286717021439,3.60918593118181
1580423495.39834,1.04225223163195,0.221438925764858,0.701426718547342
1580423495.43029,-0.624277103837644,-1.2522163729305,1.63161669336996
1580423495.46224,-0.214114595254443,-1.17799649042496,1.25954070344091
1580423495.49418,-0.571053635461967,-0.95875486381323,1.31227588311589
1580423495.52613,-0.681895170519569,-0.906996261539636,1.08180361638819
1580423495.55807,-1.37477683680476,-0.981704432745861,0.982192721446555
1580423495.59002,-1.91970702677958,-0.490974288548104,0.520271610589763
1580423495.62197,-1.69753566796368,0.0100099183642328,-0.301029983978028
1580423495.65391,-1.88601510643168,0.732188906691082,-0.673105973907072
1580423495.68586,-1.7649195086595,0.34937056534676,-0.710215915159838
1580423495.7178,-1.32692454413672,-0.0642099641412983,-0.109620813305867
1580423495.74975,-0.97584496833753,-0.0588387884336612,0.319584954604409
1580423495.7817,-0.687266346227206,0.031006332494087,0.590096894789045
1580423495.81364,-0.412848096437019,-0.123292896925307,1.0207675288014
1580423495.84559,0.148195620660715,-0.312748912794691,1.23414969100481
1580423495.87754,0.572518501564051,-0.435309376668956,0.938735027084764
1580423495.90948,0.755138475623713,-0.407965209430076,0.760021362630656
1580423495.94143,0.331792172121766,-0.34692912184329,0.803479056992447
1580423495.97337,0.152590218966964,-0.296635385671779,0.538338292515451
1580423496.00532,-0.389898527504387,-0.375249866483559,0.640878919661251
1580423496.03727,-1.31813534752422,0.473884184023802,1.55251392385748
1580423496.06921,-1.27370107576104,-0.78443579766537,0.678965438315405
1580423496.10116,-0.458747234302281,-1.25075150682841,1.17262531471733
1580423496.13311,-0.308842603189136,0.340093080033569,0.886488136110476
1580423496.16505,-1.29958037689784,-0.293217364766919,-0.434332799267567
1580423496.197,-1.67946898603799,0.0783703364614325,0.0207522697795071
1580423496.22894,0.0778820477607383,-0.820569161516747,1.11744869153887
1580423496.26089,0.00561532005798426,-0.502204928664073,0.927016098268101
1580423496.29284,-0.668711375600823,-0.813244831006333,1.10572976272221
1580423496.32489,-0.605722133211261,-0.760997940032045,1.22389562829023
1580423496.35684,-0.508064393072404,-0.764415960936905,1.16334782940413
1580423496.38878,-0.870862897688259,-1.2092469672694,0.970473792629893
1580423496.42073,-1.6018310826276,-0.688731212329289,0.928480964370184
1580423496.45267,-1.95730525673304,-0.129640650034332,0.142336156252384
1580423496.48462,-2.08816662851911,0.379644464789806,-0.671641107804989
1580423496.51657,-2.12527656977188,1.01344319829099,-1.24635690852216
1580423496.54851,-1.60915541313802,0.027588311589227,-0.532478828107118
1580423496.58046,-0.87330434119173,-0.105226214999618,0.167238879987792
1580423496.6124,-0.785412375066759,-0.138429846646829,0.663828488593882
1580423496.64435,-0.456794079499504,-0.396734569314107,0.85279621576257
1580423496.6763,-0.0642099641412983,-0.608651865415426,0.994399938963912
1580423496.70824,0.350347142748149,-0.700450141145952,1.07789730678263
1580423496.74019,0.724376287479974,-0.708751049057755,0.903578240634776
1580423496.77214,0.597909514000154,-0.224856946669718,0.675059128709851
1580423496.80408,0.205813687342641,-0.0158693827725642,0.717051956969559
1580423496.83603,-0.215579461356526,0.0466315709163041,0.57349507896544
1580423496.86797,-1.30104524299992,0.126222629129472,1.4485084306096
1580423496.89992,-1.40407415884642,-1.07594415197986,0.703379873350119
1580423496.93187,-0.708751049057755,-0.85621423666743,1.18287937743191
1580423496.96381,-0.472419317921721,0.23999389639124,0.758556496528573
1580423496.99576,-1.12184328984512,-0.116945143816281,-0.174563210498206
1580423497.02771,-2.06179903868162,0.126222629129472,-0.585214007782101
1580423497.05965,-0.192629892423895,-1.31813534752422,1.2092469672694
1580423497.0916,0.175051499198901,-0.325932707713436,1.02711528191043
1580423497.12354,-0.751720454718853,-1.0207675288014,1.23561455710689
1580423497.15549,-0.621347371633478,-0.946547646295873,1.30348668650339
1580423497.18744,-0.539314869916838,-0.660898756389715,1.1403982604715
1580423497.21938,-1.05787747005417,-1.06813153276875,1.00172426947433
1580423497.25133,-1.64431219958801,-0.54517433432517,0.778088044556345
1580423497.28327,-1.59450675211719,-0.220950637064163,0.182375829709315
1580423497.31522,-1.59499504081788,0.529549095902954,-0.344975967040513
1580423497.34717,-1.78103303578241,0.898207064927139,-0.820080872816053
1580423497.37911,-1.36549935149157,0.244388494697489,-0.293705653467613
1580423497.41106,-1.10475318532082,-0.259525444419014,0.120851453421835
1580423497.44301,-0.747325856412603,-0.509529259174487,0.492927443350879
1580423497.47495,-0.68433661402304,-0.628671702143892,0.740489814602885
1580423497.5069,-0.427496757457847,-0.260013733119708,0.963149462119478
1580423497.53884,0.099855039291981,-0.174563210498206,1.05006485084306
1580423497.57079,0.540779736018923,-0.302006561379416,1.13746852826734
1580423497.60281,0.655039291981385,-0.135988403143358,0.705333028152896
1580423497.63476,0.154055085069047,-0.162844281681544,0.590096894789045
1580423497.66671,-0.176516365300984,-0.494880598153658,0.714610513466088
1580423497.69865,-0.505134660868238,-0.573983367666132,0.461676966506445
1580423497.7306,-1.16383611810483,-0.320073243305105,1.45241474021515
1580423497.76255,-1.07985046158541,-0.742931258106355,0.229739833676661
1580423497.79449,-0.579354543373769,-0.559334706645304,1.20582894636454
1580423497.82644,-0.453864347295339,0.454352635996031,0.869398031586176
1580423497.85839,-1.78738078889143,0.606210421911957,-1.4992904554818
1580423497.89033,-0.760509651331351,-0.697520408941786,1.4563210498207
1580423497.92228,0.416754406042571,-0.789318684672313,1.36598764019226
1580423497.95423,-0.531990539406424,-0.157473105973907,1.3625696192874
1580423497.98617,-0.88014038300145,-0.946547646295873,1.15211718928817
1580423498.01812,-0.40161745632105,-1.29811551079576,1.02320897230488
1580423498.05007,-0.340581368734265,-0.822522316319525,1.10133516441596
1580423498.08201,-0.822522316319525,-0.840588998245213,1.17067215991455
1580423498.11396,-1.3112993057145,-0.568612191958495,1.00270084687572
1580423498.14591,-1.8586709391928,-0.503669794766155,0.50513466086824
1580423498.17785,-1.85085831998169,-0.144289311055161,-0.189700160219729
1580423498.2098,-1.7644312199588,1.21901274128328,-0.789318684672313
1580423498.24175,-1.62624551766232,0.936781872281987,-1.02467383840696
1580423498.27369,-1.32985427634089,-0.027588311589227,-0.375738155184253
1580423498.30564,-1.0466468299382,-0.638925764858472,0.232181277180132
1580423498.33759,-0.96217288471809,-0.92115663385977,0.720469977874419
1580423498.36953,-0.721446555275806,-0.498298619058518,0.87330434119173
1580423498.40148,-0.116945143816281,-0.253177691309988,0.972915236133364
1580423498.43343,0.457282368200197,-0.23315785458152,1.09987029831388
1580423498.46537,0.800061036087587,-0.198489356832226,1.01490806439307
1580423498.49732,0.557381551842528,-0.0988784618905925,0.724376287479974
1580423498.52927,0.0588387884336612,-0.376226443884947,0.618417639429314
1580423498.56121,-0.111573968108644,-0.820080872816053,0.4314030670634
1580423498.59316,-0.587655451285572,0.0456549935149155,1.1233081559472
1580423498.62511,-1.39186694132906,0.507576104371712,1.41823453116655
1580423498.65705,-1.05104142824445,-1.35085069047074,0.521736476691846
1580423498.689,-0.171145189593346,-0.975356679636835,1.09645227740902
1580423498.72095,-0.603280689707789,0.124269474326695,0.540779736018923
1580423498.75289,-3.75078965438315,1.20973525597009,-1.243427176318
1580423498.78484,-0.322514686808576,-1.25758754863813,3.52080567635615
1580423498.81679,0.526619363698789,-0.668711375600823,0.427008468757151
1580423498.84873,-0.461188677805753,-1.36012817578393,1.05934233615625
1580423498.8808,-0.325932707713436,-0.7219348439765,0.933363851377127
1580423498.91274,-0.651132982375829,-0.987075608453498,1.21022354467079
1580423498.94469,-0.598886091401541,-0.954848554207675,1.07985046158541
1580423498.97664,-1.1062180514229,-0.772228580148013,1.12623788815137
1580423499.00858,-1.48073548485542,-0.655527580682078,0.663340199893188
1580423499.04053,-1.82351415274281,-0.450446326390479,0.232669565880826
1580423499.07248,-1.41969939726864,0.518318455786986,-0.441168841077287
1580423499.10442,-1.78298619058518,1.05690089265278,-0.920668345159076
1580423499.13637,-1.41774624246586,0.35962462806134,-0.621835660334172
1580423499.16832,-1.04859998474098,-0.167727168688486,-0.124269474326695
1580423499.20026,-0.98268101014725,-0.437750820172427,0.785900663767453
1580423499.23221,-0.855237659266042,-0.747814145113297,0.905531395437553
1580423499.26416,-0.522224765392538,-0.433844510566873,0.976821545738918
1580423499.2961,0.0144045166704814,-0.664805065995269,1.2087586785687
1580423499.32805,0.662363622491799,-0.342046234836348,1.05494773785
1580423499.36,0.696543831540399,0.173586633096818,0.651621271076525
1580423499.39194,0.201907377737086,0.434332799267565,0.819592584115359
1580423499.42389,-0.323491264209965,-0.00805676356145568,0.584237430380714
1580423499.45584,-0.994888227664607,-0.483161669336996,0.996841382467384
1580423499.48778,-1.16432440680552,-0.960219729915313,1.22047760738537
1580423499.51973,-0.775158312352179,-0.924086366063936,1.06031891355764
1580423499.55168,-0.470466163118944,-0.135988403143358,0.748302433813993
1580423499.58362,-1.32106507972839,0.0642099641412983,0.192629892423895
1580423499.61557,-2.3972533760586,0.577401388570994,-0.877698939497979
1580423499.64752,-0.248783093003738,-2.07254139009689,2.42313267719539
1580423499.67946,0.459723811703668,0.258548867017623,0.749767299916076
1580423499.71141,-0.870374608987564,-1.32252994583047,1.22145418478675
1580423499.74336,-0.209719996948195,-1.19069199664301,0.951430533302815
1580423499.7753,-0.589120317387655,-0.745372701609826,1.05299458304723
1580423499.80725,-0.516853589684901,-0.853772793163959,1.10280003051804
1580423499.8392,-1.20338750286107,-0.885511558709087,0.99977111467155
1580423499.87114,-1.5510490577554,-0.372808422980087,0.596444647898071
1580423499.90309,-1.71950865949493,-0.172121766994735,0.116945143816281
1580423499.93504,-1.64675364309148,0.242923628595406,-0.218020904859998
1580423499.96698,-1.86404211490044,0.667734798199437,-0.673105973907072
1580423499.99893,-1.39089036392767,0.234622720683603,-0.434332799267567
1580423500.03088,-1.05250629434653,-0.196047913328755,-0.0261234454871442
1580423500.06282,-0.985122453650721,-0.527595941100175,0.710215915159839
1580423500.09477,-0.786877241168842,-0.412359807736324,0.908461127641718
1580423500.12672,-0.118898298619058,-0.194094758525978,1.03590447852293
1580423500.15875,0.300541695277332,-0.389410238803693,1.13502708476387
1580423500.1907,0.722911421377891,-0.426031891355764,0.946059357595178
1580423500.22265,0.638925764858474,-0.080811779964904,0.497322041657128
1580423500.25459,-0.0046387426565957,-0.060303654535744,0.529549095902954
1580423500.28654,-0.246341649500266,-0.253177691309988,0.713633936064699
1580423500.31849,-0.839612420843824,0.150637064164187,0.628671702143894
1580423500.35044,-1.34938582436866,-0.225833524071106,1.23610284580758
1580423500.38238,-0.847913328755627,-1.59890135042344,0.592538338292517
1580423500.41433,-0.80152590218967,0.0427252613107498,1.02223239490349
1580423500.44628,-1.12037842374304,-0.0197756923781185,0.675547417410545
1580423500.47822,-2.83573662928206,0.53589684901198,-1.77566186007477
1580423500.51017,0.138429846646829,-2.2605325398642,3.54326695658808
1580423500.54212,0.76734569314107,-0.355230029755093,0.136964980544747
1580423500.57406,-0.974868390936141,-0.927016098268101,1.06959639887083
1580423500.60601,-0.420172426947433,-0.839612420843824,0.875257495994507
1580423500.63796,-0.468024719615473,-1.01441977569238,1.20485236896315
1580423500.66991,-0.505622949568933,-0.856702525368124,1.03981078812848
1580423500.70185,-1.225848783093,-0.781994354161899,0.977798123140307
1580423500.7338,-1.69314106965743,-0.388433661402305,0.734142061493859
1580423500.76575,-1.63796444647898,-0.153566796368352,0.0979018844892039
1580423500.79769,-1.54030670634012,0.23315785458152,-0.234134431982909
1580423500.82964,-1.80056458381018,0.655039291981385,-0.637949187457084
1580423500.86159,-1.37917143511101,0.286869611657892,-0.444586861982147
1580423500.89354,-1.00172426947433,-0.060303654535744,-0.118898298619058
1580423500.92548,-0.84937819485771,-0.39478141451133,0.474372472724497
1580423500.95743,-0.820080872816053,-0.575448233768215,1.12233157854581
1580423500.98938,-0.323491264209965,-0.170168612191958,0.92799267566949
1580423501.02132,0.110109102006561,-0.306401159685665,0.953871976806287
1580423501.05327,0.386480506599526,-0.558358129243915,1.19996948195621
1580423501.08522,0.427008468757151,-0.270756084534982,0.791760128175785
1580423501.11717,-0.193606469825284,0.00170901045242999,0.667734798199437
1580423501.14911,-0.270756084534982,-0.116456855115587,0.841077286945907
1580423501.18106,-0.391851682307164,-0.121828030823224,0.770275425345236
1580423501.21301,-1.21608300907912,0.0891126878767068,1.11842526894026
1580423501.24495,-1.18092622262913,-0.518318455786984,1.03639276722362
1580423501.2769,-0.440192263675899,-1.0041657129778,0.89723048752575
1580423501.30885,-0.237552452887769,-0.664805065995269,1.04567025253681
1580423501.3408,-2.20486762798505,-0.40845349813077,-0.748790722514686
1580423501.37274,0.0207522697795071,0.00854505226214997,2.69364461738003
1580423501.40469,0.408941786831463,-0.553963530937667,0.187258716716258
1580423501.43674,-0.224856946669718,-1.78591592278935,1.51784542610819
1580423501.46868,-0.138918135347524,-1.23512626840619,1.24391546501869
1580423501.50063,-0.745372701609826,-0.765880827038988,1.34059662775616
1580423501.53258,-0.631601434348058,-0.938735027084764,1.20582894636454
1580423501.56452,-1.05348287174792,-0.994399938963912,1.09547570000763
1580423501.59647,-1.81472495613031,-0.460212100404364,0.625741969939728
1580423501.62842,-1.53054093232624,-0.024170290684367,0.117433432516975
1580423501.66037,-1.52712291142138,0.524177920195317,-0.319096665903716
1580423501.69231,-1.80251773861296,0.792736705577173,-0.903089951934081
1580423501.72426,-1.27614251926452,0.514412146181431,-0.472419317921721
1580423501.75621,-0.969497215228504,0.0490730144197755,-0.00708018616006711
1580423501.78815,-1.03736934462501,-0.444098573281453,0.751232166018159
1580423501.8201,-0.968032349126421,-0.776134889753568,0.94166475928893
1580423501.85205,-0.389410238803693,-0.669199664301518,1.03492790112154
1580423501.884,0.0612802319371326,-0.676523994811932,1.17116044861524
1580423501.91594,0.500251773861297,-0.552986953536278,1.15114061188678
1580423501.94789,0.65210955977722,0.0866712443732354,0.714122224765394
1580423501.97984,0.197024490730143,0.191653315022506,0.701915007248036
1580423502.01179,0.067139696345464,-0.404547188525216,0.612558175020983
1580423502.04373,-0.368413824673839,-0.542244602121004,0.590096894789045
1580423502.07568,-1.06715495536736,-0.218997482261386,1.72878614480812
1580423502.10763,-1.30397497520409,-0.407476920729382,0.343511100938429
1580423502.13957,-0.555916685740444,-0.950942244602121,1.23903257801175
1580423502.17152,-0.067139696345464,-0.185305561913481,0.942153047989624
1580423502.20347,-1.61599145494774,-0.0148928053711757,-1.02613870450904
1580423502.23541,-1.56618600747692,-0.037842374303807,0.326420996414129
1580423502.26736,0.125734340428778,-0.712169069962615,0.906507972838941
1580423502.29931,0.0231937132829785,-0.634531166552224,1.24879835202563
1580423502.33126,-0.675059128709849,-1.24879835202563,1.0642252231632
1580423502.3632,-0.503181506065461,-1.03688105592432,1.14332799267567
1580423502.39515,-0.514900434882124,-0.843030441748684,1.09742885481041
1580423502.4271,-0.812268253604945,-0.965102616922255,1.03492790112154
1580423502.45904,-1.43776607919432,-0.655527580682078,0.887953002212559
1580423502.49099,-1.91091783016709,-0.400152590218967,0.371831845578697
1580423502.52294,-1.81033035782406,0.132570382238498,-0.297123674372473
1580423502.55489,-1.85574120698863,1.10182345311665,-0.814709697108416
1580423502.58683,-1.51442740520333,0.50513466086824,-0.599862668802929
1580423502.61878,-1.08180361638819,-0.123292896925307,-0.238529030289158
1580423502.65073,-0.900160219729916,-0.376714732585642,0.307866025787746
1580423502.68267,-0.874280918593119,-0.546150911726558,1.01344319829099
1580423502.71469,-0.503181506065461,-0.382574196993973,0.917250324254216
1580423502.74664,0.00805676356145568,-0.578377965972381,1.12184328984512
1580423502.77859,0.363530937666894,-0.700450141145952,1.15944151979858
1580423502.81053,0.764415960936905,-0.411383230334936,0.847913328755627
1580423502.84248,0.196536202029449,0.0471198596169984,0.655039291981385
1580423502.87443,-0.0358892195010299,0.0363775082017241,0.747814145113299
1580423502.90638,-0.335210193026628,-0.067139696345464,0.5769130998703
1580423502.93832,-1.09401083390555,-0.116456855115587,1.47780575265125
1580423502.97027,-0.993423361562524,-1.0466468299382,0.660898756389717
1580423503.00222,-0.656992446784161,-0.566659037155718,1.19606317235065
1580423503.03417,-0.645273517967498,0.297611963073166,0.932387273975738
1580423503.06611,-1.54909590295262,-0.686289768825818,-0.99635309376669
1580423503.09806,-0.533455405508507,-0.259037155718319,1.48757152666514
1580423503.13001,0.433356221866177,-0.595468070496681,0.719493400473031
1580423503.16196,-0.803967345693142,-0.465094987411307,0.801037613488976
1580423503.1939,-0.54517433432517,-1.11793698023957,1.05690089265278
1580423503.22585,-0.518806744487678,-0.967544060425727,1.05006485084306
1580423503.2578,-0.614023041123064,-0.763439383535516,1.18092622262913
1580423503.28975,-1.02906843671321,-0.896253910124361,1.0378576333257
1580423503.32169,-1.64577706569009,-0.396734569314107,0.64185549706264
1580423503.35364,-1.71462577248798,-0.174563210498206,0.155519951171129
1580423503.38559,-1.62575722896162,0.220462348363469,-0.417730983443962
1580423503.41754,-1.7390402075227,0.902601663233387,-0.823010605020219
1580423503.44949,-1.33473716334783,0.322514686808574,-0.438239108873121
1580423503.48143,-1.04274052033265,-0.176028076600289,-0.105714503700312
1580423503.51338,-0.784924086366065,-0.408941786831464,0.514412146181431
1580423503.54533,-0.796154726482033,-0.646250095368886,1.02809185931182
1580423503.57728,-0.563729304951552,-0.153078507667658,0.909925993743801
1580423503.60922,0.0134279392690928,-0.177492942702372,1.12672617685206
1580423503.64117,0.228763256275272,-0.469489585717556,1.22243076218814
1580423503.67312,0.409430075532157,-0.619394216830701,0.754161898222325
1580423503.70507,-0.0593270771343555,-0.361089494163425,0.708262760357062
1580423503.73701,-0.196047913328755,0.344975967040511,0.61792935072862
1580423503.76896,-0.636972610055695,0.186770428015564,0.768810559243153
1580423503.80091,-0.806897077897307,-0.165285725185015,0.766369115739682
1580423503.83286,-0.960708018616007,-1.4826886396582,1.09938200961318
1580423503.8648,-0.299076829175251,-0.719005111772335,1.25221637293049
1580423503.89675,-0.171633478294041,-0.260502021820402,1.00221255817502
1580423503.9287,-2.77909514000153,0.160402838178072,-1.12916762035553
1580423503.96065,0.0266117341878385,0.0593270771343555,3.07743953612573
1580423503.99267,1.03590447852293,-1.37428854810407,0.588632028686963
1580423504.02462,-0.707774471656366,-0.518806744487678,1.03590447852293
1580423504.05657,-0.546150911726558,-0.978774700541695,1.25954070344091
1580423504.08852,-0.375249866483559,-1.20094605935759,1.22780193789578
1580423504.12047,-0.479255359731441,-1.00465400167849,1.18043793392843
1580423504.15241,-0.981216144045167,-0.754161898222325,1.0041657129778
1580423504.18436,-1.56667429617761,-0.549568932631418,0.838635843442436
1580423504.21631,-1.8840619516289,-0.318120088502328,0.157473105973907
1580423504.24826,-1.59450675211719,0.167727168688486,-0.473884184023804
1580423504.2802,-1.71657892729076,0.876234073395896,-0.909437705043107
1580423504.31215,-1.34303807125963,0.308842603189134,-0.534431982909895
1580423504.3441,-0.867444876783399,-0.265873197528039,-0.0661631189440754
1580423504.37605,-0.724376287479972,-0.269291218432899,0.256595712214846
1580423504.40799,-0.740489814602883,-0.313237201495385,0.921644922560464
1580423504.43994,-0.649668116273746,-0.437750820172427,1.20973525597009
1580423504.47189,-0.0954604409857325,-0.250247959105822,1.04567025253681
1580423504.50384,0.361577782864117,-0.378179598687725,1.0124666208896
1580423504.53578,0.489997711146714,-0.435309376668956,0.976333257038224
1580423504.56773,0.0104982070649271,-0.00317387655451284,0.662851911192494
1580423504.59968,-0.230716411078049,0.168703746089875,0.631113145647365
1580423504.63163,-0.521736476691844,-0.437750820172427,0.909925993743801
1580423504.66357,-0.751720454718853,-0.394293125810636,0.711192492561228
1580423504.69552,-0.812756542305639,-1.06861982146944,1.33327229724575
1580423504.72747,-0.446540016784924,-0.702891584649423,1.06520180056458
1580423504.75942,-0.151125352864881,0.101808194094758,1.17799649042496
1580423504.79137,-1.19069199664301,0.01196307316701,-0.0207522697795071
1580423504.82331,-1.91189440756848,-0.126710917830167,-0.651132982375829
1580423504.85526,0.0222171358815899,-0.996841382467384,1.35963988708324
1580423504.88721,0.0388189517051956,0.10424963759823,1.47096971084153
1580423504.91916,-0.782482642862593,-1.53835355153735,1.23268482490272
1580423504.9511,-0.238040741588463,-1.25954070344091,0.983657587548638
1580423504.98305,-0.55884641794461,-0.664316777294575,1.11549553673609
1580423505.015,-0.737560082398717,-0.879652094300756,1.34987411306935
1580423505.04695,-1.3288776989395,-0.929945830472267,1.06666666666667
1580423505.07889,-1.75222400244144,-0.558358129243915,0.538826581216146
1580423505.11084,-1.87624933241779,0.207766842145418,-0.276127260242619
1580423505.14279,-1.87917906462196,1.0383459220264,-0.731212329289692
1580423505.17474,-1.81667811093309,0.871839475089647,-1.16871900511177
1580423505.20668,-1.36159304188602,-0.0495613031204698,-0.614511329823758
1580423505.23863,-0.888441290913253,-0.53150225070573,0.148683909361409
1580423505.27066,-0.950453955901427,-0.896742198825056,1.05983062485695
1580423505.30261,-0.517341878385595,-0.471442740520333,0.921644922560464
1580423505.33455,0.0666514076447697,-0.247806515602349,0.926039520866713
1580423505.3665,0.319096665903714,-0.358648050659953,1.15114061188678
1580423505.39845,0.645761806668194,-0.320073243305105,0.976333257038224
1580423505.4304,0.434332799267565,-0.201419089036392,0.678477149614711
1580423505.46235,0.0168459601739528,-0.164797436484321,0.709239337758451
1580423505.49429,-0.0466315709163041,-0.698985275043869,0.533943694209203
1580423505.52624,-0.718028534370946,-0.0549324788281069,0.914808880750744
1580423505.55819,-1.15114061188678,-0.0168459601739528,1.60036621652552
1580423505.59014,-0.807385366598002,-1.06959639887083,0.679942015716794
1580423505.62208,-0.133546959639887,-0.371831845578699,1.17799649042496
1580423505.65403,-0.833264667734799,0.364019226367589,0.531990539406426
1580423505.68598,-3.90997177080949,-0.147219043259327,-1.36891737239643
1580423505.71793,-0.174074921797512,-1.23952086671244,2.4563363088426
1580423505.74987,0.731700617990388,-0.323979552910659,0.872816052491036
1580423505.78182,-0.831799801632716,-1.10524147402151,0.925062943465324
1580423505.81377,-0.474372472724498,-1.17311360341802,0.869398031586176
1580423505.84572,-0.618417639429312,-0.809338521400779,1.25075150682841
1580423505.87767,-0.623788815136949,-0.734630350194552,1.2004577706569
1580423505.90961,-1.22389562829023,-0.744396124208437,1.17946135652705
1580423505.94156,-1.59987792782483,-0.617929350728618,0.628671702143894
1580423505.97351,-1.69802395666438,-0.277103837644008,-0.123292896925307
1580423506.00546,-1.71364919508659,0.870862897688259,-0.680430304417486
1580423506.0374,-1.64431219958801,1.02174410620279,-0.708751049057755
1580423506.06935,-1.25319295033188,-0.00268558785381856,-0.381597619592585
1580423506.1013,-1.07496757457847,-0.46655985351339,-0.183352407110704
1580423506.13325,-1.07057297627222,-0.539314869916838,0.668223086900131
1580423506.16519,-0.658945601586938,-0.551033798733501,0.976333257038224
1580423506.19714,-0.112062256809338,-0.499275196459907,1.11110093842985
1580423506.22909,0.275150682841229,-0.582772564278629,1.2092469672694
1580423506.26104,0.534920271610591,-0.355718318455787,0.948989089799344
1580423506.29298,0.553475242236974,-0.162844281681544,0.78785381857023
1580423506.32493,0.0256351567864499,0.126222629129472,0.710704203860534
1580423506.35688,-0.146730754558632,0.0959487296864268,0.63160143434806
1580423506.38883,-0.642832074464026,-0.238040741588463,0.788830395971619
1580423506.42077,-1.18678568703746,-0.307866025787748,1.34108491645685
1580423506.45272,-1.06324864576181,-0.834241245136187,0.959243152513924
1580423506.48467,-0.453864347295339,-0.405523765926604,0.973403524834058
1580423506.51662,-0.324467841611353,-0.269291218432899,0.845471885252156
1580423506.54871,-1.32643625543603,0.278080415045395,-0.757579919127185
1580423506.58065,-0.912367437247273,-0.553475242236972,0.85279621576257
1580423506.6126,0.168703746089875,-1.19264515144579,0.340093080033569
1580423506.64455,-0.238529030289158,0.270267795834286,1.47096971084153
1580423506.6765,-0.806408789196613,-1.0891279468986,1.25856412603952
1580423506.70845,-0.044678416113527,-0.920668345159076,1.02272068360418
1580423506.74039,-0.48023193713283,-0.79810788128481,1.20680552376593
1580423506.77234,-0.55884641794461,-0.928969253070878,1.28737315938048
1580423506.80429,-1.05152971694514,-0.766857404440376,1.15992980849927
1580423506.83624,-1.87966735332265,-0.49732204165713,0.766857404440376
1580423506.86819,-1.92751964599069,0.177004654001678,-0.156008239871824
1580423506.90014,-1.74196993972686,0.348882276646066,-0.541268024719615
1580423506.93208,-1.79421683070115,0.797131303883422,-0.754161898222325
1580423506.96403,-1.23903257801175,0.324467841611352,-0.396246280613413
1580423506.99598,-0.979751277943084,-0.415777828641184,0.073975738155184
1580423507.02793,-0.865491721980622,-0.751232166018159,0.783459220263982
1580423507.05988,-0.742931258106355,-0.321049820706493,0.842053864347296
1580423507.09182,-0.144777599755855,-0.0959487296864268,1.04371709773404
1580423507.12377,0.280521858548866,-0.239505607690546,1.19118028534371
1580423507.15572,0.56324101625086,-0.308354314488442,0.973403524834058
1580423507.18767,0.486579690241854,-0.241458762493323,0.646250095368888
1580423507.21962,-0.135500114442664,-0.0227054245822842,0.527107652399483
1580423507.25156,-0.207278553444723,-0.147219043259327,0.687754634927902
1580423507.28351,-0.54175631342031,-0.33325703822385,0.659922178988328
1580423507.31546,-1.4309300373846,0.0925307087815668,1.01930266269932
1580423507.34741,-1.09303425650416,-0.456794079499504,1.2346379797055
1580423507.37936,-0.0500495918211641,-1.79812314030671,0.668223086900131
1580423507.4113,-0.32983901731899,-0.181887541008621,1.03932249942779
1580423507.44325,-3.36064698252842,1.13502708476387,-1.33620202944991
1580423507.4752,0.241947051194018,-0.575448233768215,3.82989242389563
1580423507.50715,0.93824673838407,-1.57058060578317,0.162844281681544
1580423507.5391,-0.871839475089647,-0.202395666437781,0.892347600518807
1580423507.57104,-0.573983367666132,-0.897718776226444,1.10426489662013
1580423507.60299,-0.293217364766919,-1.24245059891661,1.15162890058747
1580423507.63494,-0.434821087968261,-1.06227206836042,1.16237125200275
1580423507.66689,-1.0891279468986,-0.837170977340353,1.26686503395132
1580423507.69884,-1.63259327077134,-0.591561760891127,0.843518730449379
1580423507.73078,-1.87869077592126,-0.277592126344702,0.148195620660715
1580423507.76273,-1.69948882276646,0.275638971541923,-0.641367208361943
1580423507.79468,-1.68923476005188,0.875257495994507,-0.78785381857023
1580423507.82681,-1.37721828030823,0.203860532539863,-0.332768749523156
1580423507.85876,-1.08326848249027,-0.224856946669718,-0.201907377737086
1580423507.89071,-0.976333257038224,-0.468024719615473,0.382574196993971
1580423507.92266,-0.863538567177844,-0.535408560311284,1.16090638590066
1580423507.95461,-0.274174105439842,-0.135988403143358,1.16725413900969
1580423507.98655,0.222903791866941,-0.205813687342641,1.07106126497291
1580423508.0185,0.522713054093234,-0.246341649500266,1.13649195086595
1580423508.05045,0.635507743953614,-0.096437018387121,0.718028534370948
1580423508.0824,0.162355992980849,0.0114747844663157,0.549080643930726
1580423508.11435,-0.158937972075989,-0.0437018387121384,0.658457312886245
1580423508.1463,-0.377203021286336,-0.748790722514686,0.793224994277868
1580423508.17825,-1.23756771190967,-0.00805676356145568,0.952407110704204
1580423508.21019,-1.07399099717708,-0.489509422446021,1.31374074921797
1580423508.24214,-0.399664301518273,-1.13990997177081,0.86988632028687
1580423508.27409,-0.00512703135728998,-0.687266346227206,1.13990997177081
1580423508.30604,-1.69655909056229,0.434332799267565,-0.154543373769741
1580423508.33799,-1.06764324406805,0.57349507896544,0.259037155718318
1580423508.36994,0.624277103837645,-1.21364156557565,1.44655527580682
1580423508.40189,-0.342534523537042,-0.710704203860532,0.78785381857023
1580423508.43384,-0.625253681239032,-1.31325246051728,1.00807202258335
1580423508.46578,-0.386968795300222,-0.937270160982681,1.09987029831388
1580423508.49773,-0.588632028686961,-0.938735027084764,1.21901274128328
1580423508.52968,-0.727306019684137,-0.849866483558404,0.988540474555581
1580423508.56163,-1.40407415884642,-0.634531166552224,0.838147554741742
1580423508.59358,-1.80447089341573,-0.46997787441825,0.412848096437017
1580423508.62553,-1.74392309452964,-0.138918135347524,-0.293217364766919
1580423508.65747,-1.8498817425803,1.20534065766384,-0.982192721446555
1580423508.68942,-1.56081483176928,0.751720454718853,-0.869398031586176
1580423508.72137,-1.22536049439231,-0.232669565880826,-0.364507515068285
1580423508.75332,-1.06569008926528,-0.396734569314107,-0.000244144350347142
1580423508.78527,-1.0642252231632,-0.561776150148775,1.01002517738613
1580423508.81722,-0.710215915159838,-0.424078736552987,1.37917143511101
1580423508.84917,0.0075684748607614,-0.0881361104753182,0.873792629892424
1580423508.88111,0.352300297550926,-0.466071564812696,1.14772259098192
1580423508.91306,0.882093537804227,-0.498298619058518,1.00074769207294
1580423508.94501,0.830823224231327,-0.203860532539863,0.498298619058517
1580423508.97696,0.0827649347676811,-0.0163576714732585,0.463141832608528
1580423509.00891,-0.118898298619058,-0.328862439917602,0.486579690241854
1580423509.04086,-0.498786907759213,-0.508064393072404,0.4484931715877
1580423509.07281,-1.52224002441443,0.00854505226214997,1.52419317921721
1580423509.10489,-1.22682536049439,-1.48708323796445,0.355230029755091
1580423509.13684,-0.553475242236972,0.0520027466239412,1.43190661478599
1580423509.16879,-0.796643015182728,0.181399252307926,0.687754634927902
1580423509.20074,-3.29277485313191,0.58374914168002,-2.04861524376287
1580423509.23268,-0.080811779964904,-1.27028305485618,3.42656595712215
1580423509.26463,1.16237125200275,-0.529549095902953,0.394293125810634
1580423509.29658,-0.807873655298696,-1.01539635309377,0.800061036087587
1580423509.32853,-0.706309605554283,-0.769298847943848,0.838635843442436
1580423509.36048,-0.475837338826581,-0.946547646295873,1.07692072938125
1580423509.39243,-0.397711146715496,-0.898207064927139,1.18092622262913
1580423509.42438,-1.34450293736172,-0.755138475623713,1.09498741130693
1580423509.45633,-1.57253376058595,-0.551522087434195,0.61451132982376
1580423509.48828,-1.88699168383307,-0.380621042191196,0.060303654535744
1580423509.52023,-1.81960784313726,0.693125810635539,-0.730235751888303
1580423509.55218,-1.68288700694285,1.0720378423743,-0.898207064927139
1580423509.58412,-1.37917143511101,0.10083161669337,-0.320073243305105
1580423509.61607,-1.05983062485695,-0.357671473258565,-0.202395666437781
1580423509.64802,-0.864515144579233,-0.41528953994049,0.474372472724497
1580423509.67997,-1.03541618982223,-0.493415732051576,1.25319295033188
1580423509.71192,-0.306889448386359,-0.0368657969024184,1.25709925993744
1580423509.74387,0.32544441901274,-0.288822766460671,0.991470206759747
1580423509.77582,0.662363622491799,-0.621347371633478,1.08375677119097
1580423509.80777,0.63501945525292,-0.539314869916838,0.820569161516747
1580423509.83972,0.174074921797512,-0.122316319523918,0.420172426947431
1580423509.87167,-0.0832532234683754,0.286869611657892,0.606698710612651
1580423509.90361,-0.634042877851529,0.0383306630045013,0.988052185854887
1580423509.93556,-1.15016403448539,-0.253177691309988,0.891859311818113
1580423509.96751,-1.11403067063401,-1.73611047531853,0.892347600518807
1580423509.99946,-0.675059128709849,0.139894712748912,1.25856412603952
1580423510.03141,-0.551522087434195,-0.077393759060044,0.78101777676051
1580423510.06336,-1.7302510109102,0.45191119249256,-1.65163653009842
1580423510.09531,-0.287846189059282,-0.552986953536278,2.56620126649882
1580423510.12726,1.04371709773404,-0.856702525368124,-0.0954604409857325
1580423510.15921,-0.840100709544519,-0.372320134279393,1.15016403448539
1580423510.19116,-0.673594262607766,-1.0896162355993,1.01881437399863
1580423510.2231,-0.228274967574578,-1.28200198367285,1.08424505989166
1580423510.25505,-0.43921568627451,-0.973403524834058,1.1408865491722
1580423510.287,-1.03248645761807,-0.809826810101473,1.10475318532082
1580423510.31895,-1.31422903791867,-0.554940108339055,0.95191882200351
1580423510.3509,-1.78396276798657,-0.662363622491798,0.384527351796748
1580423510.38299,-1.84597543297475,-0.0305180437933927,-0.322514686808576
1580423510.41494,-1.80398260471504,1.31911192492561,-0.925062943465324
1580423510.44689,-1.49098954757,0.651621271076525,-0.425055313954376
1580423510.47884,-1.05787747005417,-0.250736247806516,-0.0959487296864268
1580423510.51079,-0.896742198825056,-0.417730983443962,0.132570382238498
1580423510.54274,-1.05104142824445,-0.647714961470969,1.08180361638819
1580423510.57469,-0.76734569314107,-0.403082322423133,0.984634164950027
1580423510.60664,-0.140383001449607,-0.290287632562753,0.999282825970855
1580423510.63859,0.432867933165483,-0.451422903791867,1.32155336842908
1580423510.67054,0.649179827573054,-0.300541695277333,0.900160219729916
1580423510.70249,0.294682230869,0.0236820019836728,0.500740062561992
1580423510.73443,-0.155031662470435,-0.067139696345464,0.668711375600825
1580423510.76638,-0.198001068131532,-0.406988632028687,0.766857404440376
1580423510.79833,-0.846448462653544,0.0754406042572668,0.777111467154956
1580423510.83028,-1.03053330281529,-0.322026398107882,1.57009231708248
1580423510.86223,-0.705821316853589,-1.3884489204242,0.748790722514688
1580423510.89418,-0.35034714274815,-0.321538109407188,1.07887388418402
1580423510.92613,-0.737560082398717,0.692149233234151,0.34253452353704
1580423510.95808,-3.6614328221561,-0.0520027466239412,-1.87771419851988
1580423510.99003,-0.568612191958495,-2.17117570763714,3.33720912489509
1580423511.02198,1.0295567254139,0.310795757991912,0.275150682841229
1580423511.05393,-0.7219348439765,-1.01490806439307,0.97584496833753
1580423511.08587,-0.446540016784924,-1.30885786221103,0.817151140611887
1580423511.11782,-0.6877546349279,-0.745372701609826,1.07887388418402
1580423511.14977,-0.527595941100175,-0.531013962005035,1.12672617685206
1580423511.18172,-1.11305409323262,-0.919691767757687,0.964126039520867
1580423511.21367,-1.52224002441443,-0.532478828107118,0.702891584649425
1580423511.24562,-1.75075913633936,-0.268802929732205,0.135988403143358
1580423511.27757,-1.66530861371786,0.443610284580757,-0.42212558175021
1580423511.30952,-1.54909590295262,0.827405203326467,-0.695078965438315
1580423511.34147,-1.42848859388113,0.11792172121767,-0.438239108873121
1580423511.37342,-1.08815136949721,-0.292729076066225,-0.261478599221791
1580423511.40536,-0.960708018616007,-0.287846189059282,0.12475776302739
1580423511.43731,-1.13307392996109,-0.393316548409247,1.41969939726863
1580423511.46926,-0.645761806668192,-0.427008468757153,1.49538414587625
1580423511.50121,0.199954222934309,-0.0598153658350498,0.976333257038224
1580423511.53316,0.527595941100177,-0.567635614557107,1.03346303501946
1580423511.56511,0.5940032043946,-0.692637521934843,0.932387273975738
1580423511.59706,0.296147096971083,0.031006332494087,0.364995803768977
1580423511.62901,-0.0319829098954756,0.140871290150301,0.57349507896544
1580423511.6611,-0.240482185091935,-0.134523537041275,0.805432211795225
1580423511.69305,-0.934340428778516,-0.0183108262760356,0.957778286411841
1580423511.725,-1.10133516441596,-1.63112840466926,1.11012436102846
1580423511.75695,-0.827405203326467,-0.237552452887769,1.23707942320897
1580423511.7889,-0.559822995345998,0.930922407873656,0.948012512397955
1580423511.82085,-1.03395132372015,-0.599374380102235,-1.03053330281529
1580423511.8528,-1.3029983978027,-0.799084458686199,0.935317006179904
1580423511.88475,0.314702067597466,-0.44263370717937,1.40407415884642
1580423511.9167,-0.477790493629358,-0.0505378805218584,1.58962386511025
1580423511.94865,-0.560799572747387,-1.74099336232547,0.912367437247273
1580423511.9806,-0.325932707713436,-1.28834973678187,1.0129549095903
1580423512.01255,-0.432867933165484,-0.256595712214848,1.08619821469444
1580423512.0445,-0.846448462653544,-0.854261081864653,1.25270466163119
1580423512.07645,-1.24245059891661,-1.02516212710765,1.05006485084306
1580423512.10839,-1.62233920805676,-0.417730983443962,0.602304112306403
1580423512.14034,-1.66775005722133,-0.384039063096056,-0.0388189517051956
1580423512.17229,-1.92312504768444,0.557869840543223,-0.714122224765392
1580423512.20424,-1.81228351262684,0.86646829938201,-0.974380102235447
1580423512.23619,-1.38210116731518,0.130128938735027,-0.328374151216908
1580423512.26814,-1.11989013504234,-0.238040741588463,-0.0417486839093613
1580423512.30009,-1.08180361638819,-0.243900205996795,0.803479056992447
1580423512.33204,-0.880628671702144,-0.392828259708553,1.19118028534371
1580423512.36399,-0.0573739223315783,-0.516853589684901,0.934340428778516
1580423512.39594,0.352300297550926,-1.04957656214237,0.99977111467155
1580423512.42789,0.632578011749448,-0.927504386968796,1.04029907682918
1580423512.45984,0.483649958037688,0.0466315709163041,0.689707789730679
1580423512.49179,-0.0114747844663157,0.503669794766157,0.602304112306403
1580423512.52374,-0.290775921263448,0.037842374303807,0.751232166018159
1580423512.55569,-0.713633936064697,0.177004654001678,0.931898985275044
1580423512.58764,-0.957778286411841,-0.663340199893186,1.72878614480812
1580423512.61959,-0.566170748455024,-1.13795681696803,0.932387273975738
1580423512.65154,-0.317143511100939,0.473884184023802,1.07594415197986
1580423512.68349,-1.31911192492561,-0.571541924162661,-0.290775921263448
1580423512.71544,-2.41092545967803,-0.269291218432899,-0.582284275577935
1580423512.74739,-0.153078507667658,-1.04859998474098,3.3284199282826
1580423512.77934,0.138429846646829,0.600350957503625,0.114991989013504
1580423512.81129,-0.645273517967498,-1.55739681086442,0.793713282978562
1580423512.84323,-0.396246280613413,-1.33571374074922,1.1579766536965
1580423512.87518,-0.530525673304341,-0.470466163118944,1.22047760738537
1580423512.90713,-0.527107652399481,-0.722911421377889,1.13942168307011
1580423512.93924,-1.26784161135271,-0.909437705043107,1.12623788815137
1580423512.97119,-1.59792477302205,-0.385015640497445,0.742442969405662
1580423513.00314,-1.71902037079423,-0.340581368734265,0.0144045166704814
1580423513.03509,-1.77810330357824,0.538338292515451,-0.633554589150835
1580423513.06704,-1.53298237582971,1.07692072938125,-1.00563057907988
1580423513.09899,-1.22096589608606,0.11792172121767,-0.415777828641184
1580423513.13094,-1.0979171435111,-0.454840924696727,-0.141359578850995
1580423513.16289,-1.07740901808194,-0.503669794766155,0.683360036621654
1580423513.19484,-1.01979095140002,-0.529549095902953,1.17799649042496
1580423513.22679,-0.245365072098878,-0.300053406576639,1.19557488364996
1580423513.25874,0.256107423514152,-0.54859235523003,1.01149004348821
1580423513.29069,0.550057221332114,-0.608651865415426,0.977309834439613
1580423513.32264,0.364995803768977,-0.0329594872968642,0.599374380102237
1580423513.35459,-0.128664072632944,0.173586633096818,0.684824902723737
1580423513.38654,-0.361089494163425,-0.237552452887769,0.741466392004273
1580423513.41849,-0.730235751888303,-0.254642557412071,0.423590447852291
1580423513.45044,-1.01393148699168,-0.544197756923781,1.62087434195468
1580423513.48239,-0.772228580148013,-0.473884184023804,0.703868162050814
1580423513.51434,-0.282475013351645,-0.0505378805218584,1.08229190508888
1580423513.54629,-0.846448462653544,-0.296147096971085,0.454840924696725
1580423513.57824,-2.75272755016404,-0.662851911192492,-1.58815899900816
1580423513.61019,-0.346440833142596,-1.34254978255894,3.5164110780499
1580423513.64214,0.541268024719617,0.918715190356298,0.944594491493095
1580423513.67409,-0.87330434119173,-1.12037842374304,0.942641336690318
1580423513.70604,-0.070557717250324,-1.42946517128252,0.929945830472267
1580423513.73799,-0.515388723582818,-0.804455634393836,1.1662775616083
1580423513.76994,-0.605233844510566,-0.671152819104295,1.22243076218814
1580423513.80189,-1.17604333562219,-0.885511558709087,1.10963607232776
1580423513.83384,-1.68435187304494,-0.542244602121004,0.567635614557108
1580423513.86579,-1.71804379339284,-0.105226214999618,0.163820859082932
1580423513.89774,-1.39967956054017,0.373785000381474,-0.419684138246739
1580423513.92969,-1.64235904478523,0.878675516899367,-0.791760128175785
1580423513.96164,-1.31325246051728,0.320561532005797,-0.407965209430076
1580423513.99359,-1.14283970397497,-0.260990310521096,-0.172610055695429
1580423514.02554,-1.13746852826734,-0.642343785763332,0.485603112840465
1580423514.05749,-0.976821545738918,-0.773205157549402,0.994888227664607
1580423514.08944,-0.46314183260853,-0.251224536507211,1.23707942320897
1580423514.12139,0.0896009765774011,-0.0920424200808725,1.23903257801175
1580423514.15334,0.578377965972383,-0.216067750057221,1.32643625543603
1580423514.18529,0.705821316853591,-0.221438925764858,0.716563668268865
1580423514.21731,0.326909285114823,-0.366460669871062,0.606698710612651
1580423514.24926,0.00708018616006711,-0.264896620126651,0.59058518348974
1580423514.28121,-0.125734340428778,-0.257084000915542,0.678477149614711
1580423514.31316,-1.06569008926528,0.336186770428014,1.03688105592432
1580423514.34511,-1.0720378423743,-0.624765392538338,1.36549935149157
1580423514.37706,-0.578377965972381,-1.3889372091249,0.867933165484093
1580423514.40901,-0.490974288548104,0.35620660715648,1.19313344014649
1580423514.44096,-0.656992446784161,0.416754406042571,-0.33325703822385
1580423514.47291,-1.87673762111849,-0.853284504463264,-0.728282597085526
1580423514.50486,0.334721904325932,-1.14283970397497,0.745860990310522
1580423514.53681,-0.183840695811398,0.268802929732203,1.68239871824216
1580423514.56876,-0.71168078126192,-1.03102159151598,1.16041809719997
1580423514.60071,-0.214114595254443,-1.47194628824292,1.03053330281529
1580423514.63266,-0.402594033722439,-0.817639429312582,1.20387579156176
1580423514.66461,-0.740489814602883,-0.839612420843824,1.12819104295415
1580423514.69656,-1.17555504692149,-0.88355840390631,0.983169298847944
1580423514.72851,-1.59157701991302,-0.530525673304341,0.632089723048754
1580423514.76046,-1.95681696803235,-0.351323720149539,0.00317387655451284
1580423514.79241,-1.95095750362402,0.716075379568171,-0.753673609521631
1580423514.82436,-1.59108873121233,0.984634164950027,-0.885511558709087
1580423514.85631,-1.36794079499504,0.113038834210727,-0.379644464789807
1580423514.88826,-1.24000915541314,-0.355230029755093,-0.119386587319752
1580423514.92021,-1.14283970397497,-0.488532845044633,0.626718547341117
1580423514.95216,-0.77759975585565,-0.312260624093996,0.91432059205005
1580423514.98411,-0.128664072632944,-0.491950865949493,0.832776379034105
1580423515.01606,0.299565117875943,-0.724864576180666,0.990005340657664
1580423515.04801,0.653086137178608,-0.755626764324408,0.92457465476463
1580423515.07996,0.568612191958497,-0.220462348363469,0.744884412909133
1580423515.11191,-0.00170901045242999,0.116945143816281,0.653574425879302
1580423515.14386,-0.238040741588463,-0.192629892423895,0.724376287479974
1580423515.17581,-0.78443579766537,0.0861829556725411,0.762462806134128
1580423515.20776,-0.90748455024033,-0.587167162584878,1.68484016174563
1580423515.23971,-0.788830395971619,-1.0383459220264,0.690684367132068
1580423515.27166,-0.512458991378653,0.149660486762798,1.18043793392843
1580423515.30361,-0.985610742351415,-0.422613870450904,0.265873197528038
1580423515.33556,-2.49735255970092,0.0573739223315783,-1.1662775616083
1580423515.36751,-0.479743648432136,-1.41091020065614,2.84794384679942
1580423515.39946,0.422125581750208,0.372320134279391,0.92115663385977
1580423515.43141,-0.559334706645304,-1.61110856794079,1.16285954070344
1580423515.46336,-0.266849774929428,-1.16920729381247,1.0041657129778
1580423515.49551,-0.613046463721675,-0.628671702143892,1.14332799267567
1580423515.52746,-0.552498664835584,-0.919203479056993,1.18873884184024
1580423515.55941,-1.25661097123674,-0.896742198825056,0.920668345159076
1580423515.59136,-1.76394293125811,-0.621835660334172,0.517341878385597
1580423515.62331,-1.7820096131838,-0.318120088502328,-0.0593270771343555
1580423515.65527,-1.81228351262684,0.859143968871596,-0.559822995345998
1580423515.68722,-1.60378423743038,1.10768291752499,-0.93824673838407
1580423515.71917,-1.30836957351034,0.189700160219729,-0.44263370717937
1580423515.75112,-1.03932249942779,-0.45972381170367,-0.0437018387121384
1580423515.78307,-1.06617837796597,-0.733653772793163,0.702403295948731
1580423515.81502,-0.882093537804227,-0.678965438315403,0.993423361562524
1580423515.84697,-0.268802929732205,-0.352788586251622,1.03346303501946
1580423515.87892,0.216067750057221,-0.332768749523156,1.07692072938125
1580423515.91087,0.584237430380714,-0.322026398107882,1.11793698023957
1580423515.94282,0.637460898756391,-0.0837415121690697,0.781506065461205
1580423515.97477,0.096437018387121,0.157473105973907,0.561287861448083
1580423516.00672,-0.0852063782711525,-0.210696574349583,0.707286182955674
1580423516.03867,-0.392828259708553,-0.318120088502328,0.617441062027925
1580423516.07062,-0.944594491493095,-0.386480506599527,1.77663843747616
1580423516.10257,-0.89381246662089,-1.11744869153887,0.550545510032808
1580423516.13452,-0.539314869916838,0.109132524605172,1.17360189211871
1580423516.16647,-0.725841153582055,0.10766765850309,0.628671702143894
1580423516.19842,-3.15898374914168,-0.526619363698787,-1.90261692225528
1580423516.23037,-0.52466620889601,-1.20192263675898,3.56621652552072
1580423516.26232,0.91090257114519,0.190676737621118,0.813733119707027
1580423516.29428,-0.585214007782101,-1.15260547798886,1.12672617685206
1580423516.32623,-0.51441214618143,-1.12477302204929,0.923598077363241
1580423516.35818,-0.559334706645304,-0.660410467689021,1.25709925993744
1580423516.39013,-0.538826581216144,-0.747325856412603,1.25221637293049
1580423516.42208,-0.988540474555581,-0.929457541771573,0.995864805065995
1580423516.45403,-1.45339131761654,-0.660898756389715,0.667246509498742
1580423516.48598,-1.70974288548104,-0.438239108873121,-0.0271000228885327
1580423516.51793,-1.69069962615396,0.526619363698789,-0.672617685206378
1580423516.54988,-1.39186694132906,0.881605249103533,-0.84254215304799
1580423516.58183,-1.40651560234989,0.454352635996031,-0.595956359197375
1580423516.61378,-1.30592813000687,-0.189211871519035,-0.276127260242619
1580423516.64573,-1.17555504692149,-0.531990539406424,0.189700160219729
1580423516.67768,-1.27272449835966,-0.751720454718853,0.881605249103533
1580423516.70963,-0.711192492561226,-0.305424582284276,1.29665064469367
1580423516.74158,0.0920424200808725,-0.550545510032807,1.13112077515831
1580423516.77374,0.520271610589763,-0.72877088578622,1.32155336842908
1580423516.80569,0.765880827038988,-0.237064164187075,0.847913328755627
1580423516.83764,0.449469748989088,0.0974135957885096,0.625741969939728
1580423516.86959,0.0305180437933927,0.150148775463492,0.62134737163348
1580423516.90155,-0.139894712748912,-0.24682993820096,0.520271610589763
1580423516.9335,-0.997329671168078,0.00415045395590141,0.925551232166018
1580423516.96545,-0.939223315785458,-0.312748912794691,1.50075532158389
1580423516.9974,-0.679453727016098,-1.48464179446098,0.712657358663311
1580423517.02935,-0.23315785458152,-0.0612802319371326,1.17750820172427
1580423517.0613,-0.785412375066759,0.10766765850309,0.199954222934309
1580423517.09325,-3.20439459830625,-0.231692988479438,-1.2522163729305
1580423517.1252,-0.569588769359884,-1.75417715724422,3.00224307621881
1580423517.15715,0.678965438315405,0.27075608453498,0.538826581216146
1580423517.18911,-0.703868162050812,-1.17994964522774,0.951430533302815
1580423517.22106,-0.341557946135653,-1.19703974975204,0.927504386968796
1580423517.25301,-0.419684138246739,-0.737560082398717,1.17213702601663
1580423517.28496,-0.42896162355993,-0.771252002746625,1.31374074921797
1580423517.31691,-1.04518196383612,-0.97242694743267,1.12623788815137
1580423517.34886,-1.7048599984741,-0.760509651331351,0.748790722514688
1580423517.38081,-2.0290836957351,-0.254154268711376,-0.0827649347676811
1580423517.41276,-1.63845273517967,0.61792935072862,-0.557381551842527
1580423517.44471,-1.41872281986725,0.781994354161899,-0.686289768825818
1580423517.47666,-1.43532463569085,0.429449912260623,-0.527107652399481
1580423517.50861,-1.22780193789578,-0.228763256275272,-0.264408331425956
1580423517.54057,-1.07301441977569,-0.786388952468148,0.423102159151597
1580423517.57252,-0.911390859845884,-0.769787136644542,0.886488136110476
1580423517.60447,-0.455329213397421,-0.510017547875181,1.04518196383612
1580423517.63642,0.096437018387121,-0.179446097505149,1.14528114747845
1580423517.66837,0.529549095902954,-0.0544441901274126,1.23903257801175
1580423517.70032,0.62476539253834,0.201419089036392,0.782482642862593
1580423517.73227,0.247806515602349,0.106691081101701,0.524666208896011
1580423517.76422,0.00708018616006711,-0.54517433432517,0.589120317387657
1580423517.79617,-0.307866025787748,-1.34352635996033,0.487556267643242
1580423517.82812,-0.788342107270925,0.192629892423895,1.45339131761654
1580423517.86007,-1.33083085374228,-0.496833752956436,0.517830167086291
1580423517.89203,-0.632578011749446,-0.893324177920196,1.59743648432136
1580423517.92398,-0.515877012283513,0.144289311055161,0.939223315785458
1580423517.95593,-1.41579308766308,0.257572289616235,-1.34840924696727
1580423517.98788,-1.25123979552911,-0.694102388036926,1.38063630121309
1580423518.01983,0.384039063096054,-0.461676966506447,0.779552910658428
1580423518.05194,-0.55201037613489,-0.213138017853055,1.23512626840619
1580423518.08389,-0.627206836041809,-1.1579766536965,0.932387273975738
1580423518.11584,-0.420660715648127,-1.14381628137636,0.997817959868772
1580423518.14779,-0.273685816739148,-0.7048447394522,1.20729381246662
1580423518.17975,-0.827405203326467,-0.881116960402839,1.34401464866102
1580423518.2117,-1.26832990005341,-0.755138475623713,0.944106202792401
1580423518.24365,-2.05349813076982,-0.502693217364767,0.3630426489662
1580423518.2756,-1.87624933241779,0.0329594872968642,-0.279056992446785
1580423518.30755,-1.63259327077134,0.768322270542459,-0.672129396505683
1580423518.3395,-1.48464179446098,0.684336614023042,-0.612558175020981
1580423518.37145,-1.36989394979782,-0.063721675440604,-0.39819943541619
1580423518.40341,-0.964614328221561,-0.478278782330053,0.01196307316701
1580423518.43536,-0.98268101014725,-0.71509880216678,0.803967345693142
1580423518.46731,-0.772228580148013,-0.48023193713283,1.07447928587777
1580423518.49926,-0.00219729915312428,-0.299565117875945,1.03395132372015
1580423518.53121,0.495368886854351,-0.379156176089113,1.25856412603952
1580423518.56316,0.726329442282751,-0.302983138780805,0.985610742351415
1580423518.59511,0.39380483710994,-0.0568856336308841,0.662363622491799
1580423518.62707,-0.331303883421073,-0.192141603723201,0.685313191424431
1580423518.65902,-0.142824444953078,-0.264896620126651,0.677500572213322
1580423518.69097,-0.581795986877241,-0.153078507667658,1.0554360265507
1580423518.72292,-1.04615854123751,-0.0153810940718699,1.26247043564507
1580423518.75487,-0.93824673838407,-1.08131532768749,1.0979171435111
1580423518.78682,-0.367925535973145,-0.568612191958495,1.0554360265507
1580423518.81877,0.070557717250324,0.877210650797284,0.773693446250096
1580423518.85073,-1.21266498817426,-0.429449912260624,0.0729991607537954
1580423518.88268,-2.03201342793927,-1.36061646448463,-0.185793850614175
1580423518.91463,0.247318226901655,-0.499763485160601,1.26686503395132
1580423518.94658,-0.266361486228734,0.38696879530022,1.83230334935531
1580423518.97853,-0.846448462653544,-1.66286717021439,1.08522163729305
1580423519.01048,-0.274662394140536,-1.53493553063249,0.981216144045167
1580423519.04243,-0.619882505531395,-0.33325703822385,1.03639276722362
1580423519.07439,-0.686778057526512,-0.90064850843061,1.1237964446479
1580423519.10634,-1.20436408026245,-0.96900892652781,1.02223239490349
1580423519.13829,-1.73611047531853,-0.49048599984741,0.543709468223089
1580423519.17024,-1.77370870527199,-0.0822766460669868,-0.0261234454871442
1580423519.20219,-1.70925459678035,0.710704203860534,-0.549568932631418
1580423519.23414,-1.70730144197757,0.733165484092471,-0.693614099336232
1580423519.26609,-1.31813534752422,0.070557717250324,-0.31958495460441
1580423519.29805,-1.12428473334859,-0.281986724650951,-0.027588311589227
1580423519.33014,-1.07789730678263,-0.614999618524452,0.855237659266042
1580423519.36209,-0.819104295414665,-0.35718318455787,0.862561989776456
1580423519.39404,-0.127687495231555,-0.174563210498206,1.08375677119097
1580423519.42599,0.358159761959257,-0.40845349813077,1.21071183337148
1580423519.45795,0.715587090867476,-0.515388723582818,0.954848554207675
1580423519.4899,0.687266346227208,-0.348393987945373,0.650644693675137
1580423519.52185,0.107179369802395,-0.0852063782711525,0.594491493095294
1580423519.5538,-0.0798352025635154,-0.0944838635843439,0.576424811169606
1580423519.58575,-0.734630350194552,-0.211184863050278,0.777111467154956
1580423519.61771,-1.49733730067903,-0.217532616159303,1.37770656900893
1580423519.64966,-1.0554360265507,-1.07399099717708,0.59742122529946
1580423519.68161,-0.286381322957199,-0.760997940032045,1.19801632715343
1580423519.71356,-0.448981460288396,-0.123781185626001,0.764904249637599
1580423519.74551,-2.10672159914549,0.961684596017395,-1.36159304188602
1580423519.77746,-0.358648050659953,-0.841565575646602,3.59746700236515
1580423519.80942,1.17848477912566,-0.211184863050278,0.658457312886245
1580423519.84137,-0.608651865415426,-1.30592813000687,1.33473716334783
1580423519.87332,-0.512458991378653,-0.723399710078583,0.768810559243153
1580423519.90527,-0.51783016708629,-0.905043106736859,1.14674601358053
1580423519.93722,-0.461676966506447,-0.891371023117419,1.10377660791943
1580423519.96918,-1.30251010910201,-0.88014038300145,1.07936217288472
1580423520.00113,-1.33473716334783,-0.430426489662013,0.858655680170902
1580423520.03308,-1.65896086060883,-0.54859235523003,0.268314641031509
1580423520.06503,-1.55837338826581,0.244388494697489,-0.334233615625239
1580423520.09698,-1.58376440070191,1.08815136949721,-0.653086137178606
1580423520.12894,-1.38991378652628,0.375249866483557,-0.480720225833524
1580423520.16089,-1.12867933165484,-0.134035248340581,-0.275638971541925
1580423520.19284,-1.03443961242084,-0.247806515602349,0.167727168688486
1580423520.22479,-1.03492790112154,-0.716075379568169,1.05104142824445
1580423520.25674,-0.747814145113297,-0.335210193026628,0.961196307316701
1580423520.2887,-0.128175783932249,-0.294193942168308,1.20778210116731
1580423520.32065,0.450446326390477,-0.39819943541619,1.24782177462425
1580423520.3526,0.797619592584116,-0.247318226901655,0.903578240634776
1580423520.38455,0.212161440451666,-0.157473105973907,0.656504158083468
1580423520.4165,-0.177981231403066,-0.067139696345464,0.670176241702908
1580423520.44845,-0.193606469825284,-0.114015411612115,0.857190814068819
1580423520.48041,-0.909925993743801,-0.0612802319371326,0.681406881818877
1580423520.51236,-1.11061264972915,-1.39382009613184,1.08326848249027
1580423520.54431,-0.911879148546578,-0.683848325322346,0.95533684290837
1580423520.57626,-0.316655222400245,0.855725947966736,1.15162890058747
1580423520.6084,-0.290775921263448,-0.230716411078049,1.03590447852293
1580423520.64035,-2.48123903257801,-0.835217822537576,-2.22000457770657
1580423520.6723,-0.643320363164721,-0.793713282978562,2.50663004501412
1580423520.70425,1.08766308079652,0.474372472724497,0.280033569848172
1580423520.73621,-0.873792629892424,-0.675547417410543,0.710704203860534
1580423520.76816,-0.55542839703975,-1.54372472724498,1.03150988021668
1580423520.80011,-0.481696803234913,-0.84937819485771,1.11549553673609
1580423520.83206,-0.431891355764096,-0.411383230334936,1.25758754863813
1580423520.86402,-0.97926298924239,-1.00904859998474,1.32155336842908
1580423520.89597,-1.56227969787137,-0.710215915159838,0.865491721980622
1580423520.92792,-1.82693217364767,-0.41528953994049,0.0593270771343555
1580423520.95987,-1.82204928664073,0.314702067597466,-0.590096894789044
1580423520.99183,-1.61550316624704,0.997817959868772,-0.928969253070878
1580423521.02378,-1.43190661478599,0.489997711146714,-0.531990539406424
1580423521.05573,-0.969497215228504,-0.134523537041275,-0.217532616159303
1580423521.08768,-0.993423361562524,-0.392339971007859,0.351812008850231
1580423521.11964,-0.913344014648661,-0.770275425345236,0.957778286411841
1580423521.15159,-0.525154497596704,-0.614023041123064,1.05885404745556
1580423521.18354,-0.0217288471808956,-0.43579766536965,1.11207751583123
1580423521.21549,0.367437247272449,-0.389898527504387,1.27956054016937
1580423521.24745,0.608163576714734,-0.148195620660715,0.886488136110476
1580423521.2794,0.27075608453498,0.132570382238498,0.64185549706264
1580423521.31135,0.0822766460669868,-0.0388189517051956,0.629648279545282
1580423521.3433,-0.236087586785686,-0.615487907225146,0.514900434882126
1580423521.37525,-0.973403524834058,-0.00805676356145568,1.13160906385901
1580423521.40721,-1.1745784695201,-1.24782177462425,0.998794537270161
1580423521.43916,-0.563729304951552,-0.767833981841765,1.22926680399786
1580423521.47111,-0.265873197528039,0.765392538338293,0.942153047989624
1580423521.50306,-1.2004577706569,-0.250736247806516,-0.361577782864119
1580423521.53502,-1.04615854123751,-0.731700617990386,1.27418936446174
1580423521.56697,0.440192263675897,-0.742931258106355,0.881116960402839
1580423521.59892,-0.360112916762036,-0.301029983978028,0.985610742351415
1580423521.63087,-0.622323949034866,-1.15504692149233,1.15602349889372
1580423521.66283,-0.482185091935607,-1.01197833218891,1.12623788815137
1580423521.69478,-0.534431982909895,-0.697032120241092,1.23317311360342
1580423521.72673,-0.686289768825818,-0.930434119172961,1.2942092011902
1580423521.75868,-1.54030670634012,-0.772716868848708,1.04176394293126
1580423521.79064,-1.74196993972686,-0.494880598153658,0.275638971541923
1580423521.82259,-1.75808346684978,0.477790493629357,-0.49048599984741
1580423521.85454,-1.44460212100404,1.11207751583123,-0.579842832074464
1580423521.88672,-1.43776607919432,0.656504158083468,-0.587655451285572
1580423521.91867,-1.37917143511101,0.0212405584802013,-0.663340199893186
1580423521.95062,-1.02809185931182,-0.427985046158541,-0.129640650034332
1580423521.98258,-1.21022354467079,-0.925551232166018,0.843518730449379
1580423522.01453,-0.969497215228504,-1.20241092545968,1.21266498817426
1580423522.04648,-0.194583047226672,-0.256595712214848,0.98268101014725
1580423522.07844,0.32544441901274,-0.566659037155718,1.44460212100404
1580423522.11039,0.729259174486916,-0.228763256275272,1.27272449835965
1580423522.14234,0.668711375600825,0.317143511100937,0.494880598153657
1580423522.17429,0.221438925764858,0.01196307316701,0.701915007248036
1580423522.20625,0.199465934233615,-0.702891584649423,0.52222476539254
1580423522.2382,-0.371831845578699,-0.42896162355993,0.410406652933546
1580423522.27015,-0.996841382467384,0.738048371099413,1.81081864652476
1580423522.30211,-1.04811169604028,-1.00904859998474,0.519783321889069
1580423522.33406,-0.237064164187075,-0.843518730449379,1.22926680399786
1580423522.36601,-1.28786144808118,0.562752727550166,0.650156404974442
1580423522.39796,-2.99687190051118,0.211184863050278,-1.93728542000458
1580423522.42992,-0.107179369802395,-1.87331960021363,3.54619668879225
1580423522.46187,0.811291676203556,-0.153566796368352,0.620370794232091
1580423522.49382,-0.673105973907072,-1.14332799267567,1.29567406729229
1580423522.52578,-0.389410238803693,-0.904554818036164,0.86305027847715
1580423522.55773,-0.464118410009918,-0.856702525368124,1.2263370717937
1580423522.58968,-0.387457084000916,-0.85279621576257,1.24098573281453
1580423522.62163,-0.83570611123827,-0.918715190356298,1.22047760738537
1580423522.65359,-1.58229953459983,-0.714610513466086,0.957289997711147
1580423522.68554,-1.95730525673304,-0.321049820706493,0.118410009918364
1580423522.71749,-1.79812314030671,0.541268024719617,-0.691660944533455
1580423522.74945,-1.57595178149081,0.858167391470207,-0.990981918059052
1580423522.7814,-1.47829404135195,0.441168841077285,-0.590096894789044
1580423522.81335,-1.28493171587701,-0.198977645532921,-0.150637064164187
1580423522.8453,-1.09596398870832,-0.657480735484855,0.308842603189134
1580423522.87726,-1.18190280003052,-0.726329442282749,0.964614328221561
1580423522.90921,-0.38452735179675,-0.257084000915542,1.1320973525597
1580423522.94116,0.247318226901655,-0.408941786831464,1.00172426947433
1580423522.97312,0.536385137712674,-0.549080643930724,1.25270466163119
1580423523.00507,0.667734798199437,-0.196536202029449,0.529549095902954
1580423523.03702,0.420172426947431,-0.259037155718319,0.517830167086291
1580423523.06897,0.226810101472495,-0.423590447852293,0.590096894789045
1580423523.10093,-0.596932936598764,-0.207766842145418,0.4314030670634
1580423523.13288,-1.15846494239719,0.221438925764858,1.81081864652476
1580423523.16504,-1.3630579079881,-1.56569771877623,-0.0329594872968642
1580423523.19699,-0.596444647898069,-0.530525673304341,1.43874265659571
1580423523.22895,-0.838147554741742,0.0554207675288012,0.712657358663311
1580423523.2609,-2.1233234149691,1.07985046158541,-1.71511406118868
1580423523.29285,-0.636972610055695,-1.02516212710765,2.91044480048829
1580423523.32481,0.98268101014725,-0.440192263675899,0.822522316319525
1580423523.35676,-0.832776379034105,-0.888441290913253,1.06764324406805
1580423523.38871,-0.570077058060578,-0.814709697108416,0.815686274509805
1580423523.42067,-0.689707789730678,-0.892347600518807,1.1745784695201
1580423523.45262,-0.611093308918898,-0.852307927061876,1.0808270389868
1580423523.48457,-1.36452277409018,-0.681895170519569,1.05104142824445
1580423523.51653,-1.71023117418173,-0.545662623025864,0.514900434882126
1580423523.54848,-1.72390325780117,-0.47339589532311,-0.120363164721141
1580423523.58043,-1.88210879682612,0.790295262073702,-1.06471351186389
1580423523.61239,-1.70241855497063,1.10817120622568,-1.03102159151598
1580423523.64434,-1.34450293736172,0.106691081101701,-0.427985046158541
1580423523.67629,-1.01197833218891,-0.371831845578699,-0.105226214999618
1580423523.70825,-0.966079194323644,-0.35034714274815,0.625253681239034
1580423523.7402,-0.738048371099412,-0.407476920729382,1.01832608529793
1580423523.77215,-0.229739833676661,-0.429938200961319,1.15358205539025
1580423523.80411,0.344975967040511,-0.402105745021744,1.08375677119097
1580423523.83606,0.713145647364005,-0.465094987411307,1.03395132372015
1580423523.86801,0.734142061493859,-0.299565117875945,0.670176241702908
1580423523.89996,0.0622568093385212,-0.132570382238498,0.620859082932785
1580423523.93192,-0.157473105973907,-0.412359807736324,0.625253681239034
1580423523.96387,-0.716075379568169,0.10766765850309,0.836194399938964
1580423523.99582,-1.12184328984512,-0.513923857480735,1.61550316624704
1580423524.02778,-0.7390249485008,-1.78445105668727,0.683360036621654
1580423524.05973,-0.660898756389715,0.403082322423131,1.14186312657359
1580423524.09168,-0.208255130846112,0.158449683375295,0.772228580148013
1580423524.12364,-2.21414511329824,0.39380483710994,-1.20436408026245
1580423524.15559,-1.11891355764095,-0.594491493095292,2.34744792858778
1580423524.18754,1.04567025253681,-0.295170519569696,0.372808422980086
1580423524.2195,-0.724376287479972,-0.615976195925841,1.32301823453117
1580423524.25145,-0.573983367666132,-1.32204165712978,0.92457465476463
1580423524.2834,-0.429938200961319,-1.05348287174792,1.13307392996109
1580423524.31536,-0.381597619592585,-0.701915007248035,1.19850461585412
1580423524.34731,-0.868421454184787,-1.00318913557641,1.27028305485618
1580423524.37926,-1.56130312046998,-0.705821316853589,0.923598077363241
1580423524.41122,-2.08719005111772,-0.397711146715496,0.272220950637063
1580423524.44333,-1.92800793469139,0.207278553444723,-0.598397802700847
1580423524.47528,-1.77615014877546,1.12526131074998,-0.938735027084764
1580423524.50724,-1.59157701991302,0.750255588616771,-0.519295033188373
1580423524.53919,-1.16676585030899,-0.140383001449607,-0.317143511100939
1580423524.57114,-0.913344014648661,-0.603768978408484,0.402594033722437
1580423524.6031,-0.901136797131304,-0.793224994277868,1.0300450141146
1580423524.63505,-0.457770656900893,-0.403082322423133,0.829846646829939
1580423524.667,0.126222629129472,-0.294193942168308,0.882093537804227
1580423524.69896,0.574959945067523,-0.364507515068285,1.10719462882429
1580423524.73091,0.737071793698025,-0.302006561379416,0.814221408407722
1580423524.76287,0.3801327534905,-0.203860532539863,0.568123903257803
1580423524.79482,-0.130128938735027,-0.785412375066759,0.706309605554285
1580423524.82677,-0.373785000381476,-0.972915236133364,0.399176012817577
1580423524.85873,-1.05006485084306,0.855237659266042,1.71853208209354
1580423524.89068,-1.34303807125963,-0.548104066529335,1.01783779659724
1580423524.92264,-0.494880598153658,-1.13990997177081,1.23073167009995
1580423524.95459,-0.181399252307926,0.550057221332114,0.851819638361182
1580423524.98654,-0.780041199359122,-0.311284046692608,0.00952162966353853
1580423525.0185,-2.27225146868086,-0.0871595330739297,-0.164797436484321
1580423525.05045,0.00415045395590141,-0.282475013351645,0.847913328755627
1580423525.0824,-0.0778820477607383,-0.853284504463264,0.874280918593119
1580423525.11436,-0.336186770428016,-1.64382391088731,0.912855725947967
1580423525.14631,-0.536385137712672,-1.02223239490349,1.09205767910277
1580423525.17827,-0.570077058060578,-0.579842832074464,1.13795681696803
1580423525.21022,-0.78785381857023,-0.918715190356298,1.24000915541314
1580423525.24217,-1.15504692149233,-0.707286182955672,1.14772259098192
1580423525.27413,-1.73464560921645,-0.626718547341115,0.38696879530022
1580423525.30608,-1.79421683070115,-0.070557717250324,-0.34692912184329
1580423525.33803,-1.74343480582895,0.792248416876479,-0.847913328755627
1580423525.36999,-1.54958419165331,0.670664530403602,-0.674570840009155
1580423525.40194,-1.37282368200198,0.0173342488746471,-0.609140154116121
1580423525.4339,-0.895765621423667,-0.0471198596169984,-0.0148928053711757
1580423525.46585,-1.27370107576104,-0.415777828641184,1.18141451132982
1580423525.4978,-0.878187228198673,-0.627695124742504,1.25612268253605
1580423525.52976,0.0686045624475469,-0.491950865949493,1.07154955367361
1580423525.56171,0.297611963073166,-0.81861600671397,1.40260929274433
1580423525.59367,0.885511558709087,-0.551522087434195,1.29762722209506
1580423525.62562,0.830823224231327,0.239017318989852,0.467536430914777
1580423525.65757,0.00122072175173571,0.377203021286334,0.661875333791105
1580423525.68953,-0.101319905394064,-0.139406424048218,0.626230258640422
1580423525.72168,-0.665781643396658,-0.257084000915542,0.89381246662089
1580423525.75363,-0.829358358129245,-0.647226672770275,1.76247806515602
1580423525.78559,-0.867444876783399,-0.939711604486153,0.757579919127185
1580423525.81754,-0.359624628061342,0.01196307316701,1.23610284580758
1580423525.8495,-0.115480277714198,0.385015640497443,0.635996032654308
1580423525.88145,-2.80106813153277,-0.422613870450904,-2.52030212863355
1580423525.9134,-0.602304112306401,-0.717540245670252,3.63115892271306
1580423525.94536,1.28102540627146,0.0319829098954756,0.497810330357822
1580423525.97731,-0.652597848477912,-0.281986724650951,0.774670023651485
1580423526.00927,-0.563729304951552,-1.42653543907836,0.989028763256275
1580423526.04122,-0.378667887388419,-1.05885404745556,1.12867933165484
1580423526.07318,-0.37427328908217,-0.522713054093233,1.15651178759441
1580423526.10513,-0.761974517433433,-0.969985503929198,1.20485236896315
1580423526.13708,-1.22975509269856,-0.820080872816053,1.02467383840696
1580423526.16904,-1.92117189288167,-0.472419317921721,0.31860837720302
1580423526.20099,-1.8674601358053,0.100343327992675,-0.382085908293279
1580423526.23295,-1.73513389791714,0.723399710078585,-0.773693446250096
1580423526.2649,-1.60671396963455,0.642832074464028,-0.733653772793163
1580423526.29686,-1.33962005035477,-0.0300297550926985,-0.357671473258565
1580423526.32881,-1.02613870450904,-0.315678644998856,0.0593270771343555
1580423526.36076,-1.07838559548333,-0.490974288548104,0.96900892652781
1580423526.39272,-0.55201037613489,-0.349858854047456,1.19118028534371
1580423526.42467,0.246341649500266,-0.424078736552987,0.949477378500038
1580423526.45663,0.516365300984209,-0.672129396505683,1.01881437399863
1580423526.48858,0.748302433813993,-0.597909514000152,0.846936751354239
1580423526.52054,0.516853589684903,-0.249759670405126,0.589608606088351
1580423526.55249,0.0324711985961699,-0.121828030823224,0.677988860914017
1580423526.58444,-0.305424582284276,-0.258548867017625,0.537361715114063
1580423526.6164,-1.02369726100557,0.569100480659191,1.30592813000687
1580423526.64835,-1.20289921416037,-1.0896162355993,1.30055695429923
1580423526.68031,-0.552498664835584,-1.50905622949569,1.21168841077287
1580423526.71226,-0.638437476157778,0.625253681239034,1.24538033112077
1580423526.74422,-0.802014190890365,0.401129167620354,-0.291752498664836
1580423526.77617,-1.74099336232547,-0.205813687342641,-0.464118410009918
1580423526.80813,-0.193118181124589,-1.79275196459907,1.9529106584268
1580423526.84008,-0.165285725185015,0.197512779430838,1.32692454413672
1580423526.87203,-0.632578011749446,-1.08570992599374,1.19264515144579
1580423526.90399,-0.412848096437019,-1.31618219272145,0.991470206759747
1580423526.93594,-0.44946974898909,-0.779064621957733,1.13942168307011
1580423526.9679,-0.89039444571603,-0.782970931563288,1.20729381246662
1580423526.99997,-1.46803997863737,-0.696543831540398,0.960219729915313
1580423527.03192,-1.73269245441367,-0.531990539406424,0.392339971007857
1580423527.06388,-1.7898222323949,-0.168703746089875,-0.266849774929428
1580423527.09583,-1.78103303578241,0.951430533302815,-0.802990768291753
1580423527.12779,-1.48757152666514,0.660898756389717,-0.519783321889067
1580423527.15974,-1.19020370794232,-0.0539559014267184,-0.156496528572518
1580423527.1917,-0.970962081330587,-0.417730983443962,0.284916456855115
1580423527.22365,-0.777111467154956,-0.478767071030747,0.991470206759747
1580423527.25561,-0.557381551842527,-0.207278553444723,0.891859311818113
1580423527.28756,0.0305180437933927,-0.272709239337759,1.09547570000763
1580423527.31952,0.443121995880063,-0.470466163118944,0.884046692607004
1580423527.35147,0.528084229800871,-0.638925764858472,0.896253910124361
1580423527.38343,0.266849774929426,-0.326909285114825,0.76734569314107
1580423527.41538,-0.0891126878767068,-0.0456549935149155,0.609628442816817
1580423527.44734,-0.48706797894255,-0.144289311055161,0.656504158083468
1580423527.47929,-0.833264667734799,0.177492942702372,0.990493629358358
1580423527.51125,-0.933852140077821,-1.15504692149233,1.26100556954299
1580423527.5432,-0.556404974441138,-1.58718242160677,0.919691767757687
1580423527.57516,-0.462165255207141,0.60425726710918,1.03297474631876
1580423527.60711,-1.10231174181735,0.559334706645306,0.160891126878766
1580423527.63906,-2.27859922178988,0.534431982909897,-0.323979552910659
1580423527.67102,-0.162844281681544,-1.80154116121157,1.22047760738537
1580423527.70297,0.562752727550166,-0.284428168154422,0.980727855344472
1580423527.73493,-0.72877088578622,-1.15309376668955,1.07740901808194
1580423527.76688,-0.44946974898909,-1.28200198367285,1.10182345311665
1580423527.79884,-0.577401388570992,-0.898207064927139,1.11354238193332
1580423527.83079,-0.83570611123827,-0.813244831006333,1.08278019378958
1580423527.86275,-1.51345082780194,-0.647226672770275,0.963149462119478
1580423527.8947,-1.70925459678035,-0.457770656900893,0.480231937132828
1580423527.92666,-1.6194094758526,-0.145265888456549,-0.203372243839169
1580423527.95861,-1.75661860074769,1.01100175478752,-0.841565575646602
1580423527.99057,-1.55886167696651,0.788830395971619,-0.620370794232089
1580423528.02252,-1.17701991302357,-0.0900892652780954,-0.187747005416952
1580423528.05448,-1.03541618982223,-0.630136568245975,0.176028076600289
1580423528.08643,-1.06227206836042,-0.708751049057755,0.801037613488976
1580423528.11839,-0.627695124742504,-0.379156176089113,0.891371023117419
1580423528.15034,-0.0847180895704582,-0.520759899290455,1.17994964522774
1580423528.18229,0.417242694743265,-0.45972381170367,1.13844510566873
1580423528.21425,0.681895170519571,-0.34692912184329,0.887953002212559
1580423528.2462,0.378667887388417,-0.39478141451133,0.739513237201496
1580423528.27832,0.0451667048142212,-0.151613641565575,0.585214007782103
1580423528.31027,-0.474372472724498,-0.295170519569696,0.548592355230031
1580423528.34223,-1.21412985427634,0.495368886854351,1.33669031815061
1580423528.37419,-1.30983443961242,-0.595468070496681,0.698496986343176
1580423528.40614,-0.369878690775922,-1.38503089951934,1.36794079499504
1580423528.4381,-0.46655985351339,-0.183352407110704,0.961684596017395
1580423528.47005,-2.08865491721981,0.283451590753032,-1.12428473334859
1580423528.50201,-0.325444419012742,-0.0954604409857325,1.93093766689555
1580423528.53396,0.583260852979326,-0.937270160982681,0.925062943465324
1580423528.56592,-0.651132982375829,-0.805920500495919,1.11207751583123
1580423528.59787,-0.497810330357824,-0.809826810101473,0.98268101014725
1580423528.62983,-0.530525673304341,-0.926039520866713,1.24147402151522
1580423528.66178,-0.614999618524452,-1.01197833218891,1.07008468757153
1580423528.69374,-1.12184328984512,-0.813244831006333,1.01979095140002
1580423528.72569,-1.48708323796445,-0.291264209964142,0.670664530403602
1580423528.75765,-1.54616617074845,-0.322514686808576,0.259037155718318
1580423528.7896,-1.30495155260548,0.0588387884336612,-0.218997482261386
1580423528.82156,-1.63356984817273,0.90748455024033,-0.821057450217442
1580423528.85351,-1.31374074921798,0.588143739986268,-0.646250095368886
1580423528.88547,-1.00221255817502,-0.10083161669337,-0.295658808270391
1580423528.91742,-1.07838559548333,-0.307377737087053,0.0573739223315783
1580423528.94938,-1.34792095826658,-0.578377965972381,0.856702525368124
1580423528.98133,-0.780041199359122,-0.646738384069581,1.28786144808118
1580423529.01329,-0.0285648889906156,-0.683848325322346,0.946547646295873
1580423529.04525,0.229251544975966,-0.813733119707027,1.16530098420691
1580423529.0772,0.545662623025866,-0.440192263675899,1.18092622262913
1580423529.10916,0.328374151216906,0.428961623559928,0.564217593652248
1580423529.14111,-0.0681162737468526,0.489509422446019,0.639902342259862
1580423529.17307,-0.348882276646068,-0.37085526817731,0.877698939497979
1580423529.20502,-0.605722133211261,-0.639414053559166,0.432867933165483
1580423529.23698,-0.908461127641718,-0.709239337758449,1.58913557640955
1580423529.26893,-0.752208743419548,-0.526131074998093,0.706309605554285
1580423529.30089,-0.116456855115587,-0.467048142214084,1.24391546501869
1580423529.33284,-0.956313420309758,-0.0266117341878385,0.301029983978026
1580423529.3648,-2.7810482948043,-0.00512703135728998,-1.71364919508659
1580423529.39675,-0.369390402075227,-1.91091783016709,3.60381475547418
1580423529.42871,0.650644693675137,-0.0944838635843439,0.551522087434197
1580423529.46066,-0.735118638895246,-1.02174410620279,1.15700007629511
1580423529.49262,-0.448004882887007,-1.10231174181735,0.946059357595178
1580423529.52457,-0.548104066529335,-0.91090257114519,1.17311360341802
1580423529.55667,-0.732677195391775,-0.778576333257039,1.16188296330205
1580423529.58863,-1.40260929274434,-0.780041199359122,0.845471885252156
1580423529.62058,-1.75271229114214,-0.49048599984741,0.41089494163424
1580423529.65254,-1.64187075608453,-0.322026398107882,-0.23999389639124
1580423529.68449,-1.90261692225528,0.875745784695201,-0.851331349660487
1580423529.71645,-1.63845273517967,0.930434119172961,-0.82887006942855
1580423529.7484,-1.25709925993744,0.0432135500114441,-0.309330891889831
1580423529.78036,-1.02760357061112,-0.433844510566873,0.0944838635843439
1580423529.81232,-1.20094605935759,-0.623788815136949,0.690684367132068
1580423529.84427,-0.788342107270925,-0.352788586251622,0.93141069657435
1580423529.87623,-0.0549324788281069,-0.423590447852293,0.994888227664607
1580423529.90818,0.470954451819637,-0.615976195925841,1.10182345311665
1580423529.94014,0.816662851911193,-0.575448233768215,0.881605249103533
1580423529.9721,0.558846417944611,-0.163820859082932,0.585702296482797
1580423530.00405,-0.01196307316701,0.063721675440604,0.635507743953614
1580423530.03601,-0.378667887388419,-0.274174105439842,0.88355840390631
1580423530.06796,-0.898695353627833,-0.0974135957885096,0.599374380102237
1580423530.09992,-1.13698023956664,-0.598886091401541,1.69704737926299
1580423530.13187,-0.662363622491798,-1.25270466163119,0.912367437247273
1580423530.16383,-0.553963530937667,-0.0896009765774011,1.20387579156176
1580423530.19579,-0.870862897688259,0.339604791332874,0.332768749523154
1580423530.22774,-2.14627298390173,0.402594033722437,-0.884534981307699
1580423530.2597,-0.292240787365531,-2.14724956130312,2.61600671396964
1580423530.29165,0.308842603189134,-0.150148775463492,0.448004882887005
1580423530.32361,-0.586678873884184,-1.0124666208896,1.16090638590066
1580423530.35556,-0.362066071564813,-1.09303425650416,1.11598382543679
1580423530.38752,-0.576424811169604,-0.885999847409781,1.15407034409094
1580423530.41947,-0.683360036621652,-0.678965438315403,1.10719462882429
1580423530.45143,-1.3029983978027,-0.807873655298696,1.10719462882429
1580423530.48339,-1.61599145494774,-0.393804837109942,0.510505836575877
1580423530.51534,-1.57839322499428,-0.382085908293279,0.0524910353246355
1580423530.5473,-1.62722209506371,0.614999618524454,-0.651132982375829
1580423530.57925,-1.60378423743038,0.936781872281987,-0.978774700541695
1580423530.61121,-1.27125963225757,0.128175783932249,-0.368413824673839
1580423530.64316,-1.07154955367361,-0.313237201495385,-0.134035248340581
1580423530.67512,-1.11012436102846,-0.451422903791867,0.707286182955674
1580423530.70708,-1.04908827344167,-0.50415808346685,1.03199816891737
1580423530.73903,-0.398687724116884,-0.210696574349583,1.13356221866178
1580423530.77099,0.135011825741969,-0.681895170519569,1.14772259098192
1580423530.80294,0.616952773327231,-0.730235751888303,1.03492790112154
1580423530.83502,0.59742122529946,-0.122316319523918,0.729259174486916
1580423530.86698,-0.0461432822156098,0.10083161669337,0.740489814602885
1580423530.89893,-0.0959487296864268,-0.0944838635843439,0.625253681239034
1580423530.93089,-0.599374380102235,-0.52466620889601,0.629159990844588
1580423530.96285,-0.726329442282749,0.300541695277332,1.62233920805676
1580423530.9948,-1.04078736552987,-1.12623788815137,0.813733119707027
1580423531.02676,-0.174563210498206,-1.29958037689784,1.28297856107423
1580423531.05871,-0.719981689173723,0.389898527504386,0.996841382467384
1580423531.09067,-3.10478370336461,0.675059128709851,-1.42604715037766
1580423531.12263,-0.23999389639124,-1.15309376668955,3.24199282825971
1580423531.15458,0.780041199359122,-0.87672236209659,0.480720225833522
1580423531.18654,-0.489021133745327,-1.08815136949721,1.36452277409018
1580423531.2185,-0.45630579079881,-0.870862897688259,0.833264667734799
1580423531.25045,-0.580331120775158,-0.98268101014725,1.25856412603952
1580423531.28241,-0.534431982909895,-0.812756542305639,1.16481269550622
1580423531.31436,-1.21510643167773,-0.675547417410543,0.97584496833753
1580423531.34632,-1.53298237582971,-0.385992217898833,0.710215915159839
1580423531.37828,-1.39772640573739,-0.34009308003357,0.0759288929579611
1580423531.41023,-1.52028686961166,0.313725490196077,-0.329350728618296
1580423531.44219,-1.66628519111925,0.815686274509805,-0.730724040588997
1580423531.47415,-1.43044174868391,0.38696879530022,-0.469001297016861
1580423531.5061,-1.22194247348745,-0.0778820477607383,-0.175539787899595
1580423531.53806,-1.14821087968261,-0.349370565346762,0.427008468757151
1580423531.57001,-1.03297474631876,-0.679453727016098,1.13649195086595
1580423531.60197,-0.48023193713283,-0.227786678873883,1.09498741130693
1580423531.63393,0.0427252613107498,-0.485114824139773,1.16823071641108
1580423531.66588,0.550057221332114,-0.566659037155718,1.11207751583123
1580423531.69784,0.830334935530633,-0.374761577782865,0.613046463721677
1580423531.72979,0.295658808270389,-0.255619134813459,0.570565346761274
1580423531.76175,-0.0231937132829785,0.031006332494087,0.56324101625086
1580423531.79371,-0.443121995880064,-0.37085526817731,0.568612191958497
1580423531.82566,-1.14479285877775,0.297611963073166,1.04908827344167
1580423531.85762,-1.07008468757153,-0.845471885252156,1.15358205539025
1580423531.88958,-0.318608377203022,-0.928480964370184,1.42995345998321
1580423531.92153,-0.877698939497979,-0.273197528038454,1.01734950789654
1580423531.95349,-3.24003967345693,0.470466163118942,-2.43826962691691
1580423531.98545,0.205813687342641,-0.429449912260624,4.19855039291981
1580423532.0174,0.779064621957733,-0.472907606622416,0.343999389639123
1580423532.04936,-0.672617685206378,-1.63991760128176,1.22389562829023
1580423532.08131,-0.400152590218967,-0.715587090867475,0.814709697108416
1580423532.11346,-0.624277103837644,-0.738536659800106,1.24489204242008
1580423532.14542,-0.489509422446021,-0.965102616922255,1.08180361638819
1580423532.17738,-1.22682536049439,-0.731700617990386,0.967544060425727
1580423532.20933,-1.72390325780117,-0.35034714274815,0.530037384603649
1580423532.24129,-1.45290302891585,-0.268802929732205,-0.0212405584802013
1580423532.27325,-1.61110856794079,0.289799343862057,-0.515877012283513
1580423532.3052,-1.66823834592203,0.845471885252156,-0.980239566643778
1580423532.33716,-1.31325246051728,0.334233615625237,-0.69117265583276
1580423532.36912,-1.09108110170138,-0.228763256275272,-0.0261234454871442
1580423532.40107,-1.04176394293126,-0.338628213931488,0.616464484626537
1580423532.43303,-1.05104142824445,-0.499275196459907,0.802990768291753
1580423532.46499,-0.476325627527276,-0.10083161669337,1.09449912260624
1580423532.49694,-0.0710460059510183,-0.577889677271687,0.812756542305639
1580423532.5289,0.3459525444419,-1.00904859998474,1.25319295033188
1580423532.56086,0.563729304951554,-0.667246509498741,0.836194399938964
1580423532.59281,-0.0622568093385212,0.0842298008697639,0.493415732051574
1580423532.62477,-0.178957808804455,0.196047913328755,0.875745784695201
1580423532.65673,-0.467048142214084,0.426031891355763,0.765392538338293
1580423532.68868,-1.12965590905623,-0.765392538338293,1.19850461585412
1580423532.72064,-0.860120546272984,-1.85134660868238,0.486579690241854
1580423532.7526,-0.597909514000152,0.158449683375295,1.43483634699016
1580423532.78455,-0.208255130846112,0.350347142748149,1.06861982146944
1580423532.81651,-1.31520561532006,-0.221438925764858,-0.319096665903716
1580423532.84847,-1.30495155260548,-0.670176241702906,0.806408789196613
1580423532.88042,0.435797665369648,-0.481696803234913,0.750743877317465
1580423532.91238,-0.608163576714732,-0.35376516365301,0.781994354161899
1580423532.94434,-0.589120317387655,-1.44069581139849,1.04615854123751
1580423532.97629,-0.509040970473793,-1.02223239490349,1.0720378423743
1580423533.00825,-0.573495078965438,-0.666269932097352,1.10377660791943
1580423533.04021,-0.952407110704204,-0.829358358129245,1.01734950789654
1580423533.07216,-1.40309758144503,-0.448004882887007,0.841077286945907
1580423533.10412,-1.62136263065537,-0.446540016784924,0.413336385137711
1580423533.13608,-1.73708705271992,-0.112062256809338,-0.327885862516213
1580423533.16803,-1.8244907301442,1.2087586785687,-1.0300450141146
1580423533.19999,-1.34792095826658,0.496345464255739,-0.618417639429312
1580423533.23195,-1.24391546501869,-0.197024490730143,-0.285404745555811
1580423533.2639,-1.00465400167849,-0.335210193026628,0.232181277180132
1580423533.29586,-1.05250629434653,-0.558358129243915,0.968520637827115
1580423533.32782,-0.69117265583276,-0.277592126344702,1.08180361638819
1580423533.35977,0.118898298619058,-0.479255359731441,1.19996948195621
1580423533.39184,0.509040970473794,-0.588143739986267,1.27467765316243
1580423533.4238,0.825940337224385,-0.216067750057221,0.836194399938964
1580423533.45576,0.492439154650185,0.0544441901274126,0.692637521934845
1580423533.48772,-0.103761348897535,0.112550545510032,0.586190585183491
1580423533.51967,-0.204837109941252,-0.307377737087053,0.573983367666134
1580423533.55163,-0.903089951934081,-0.304448004882888,0.89723048752575
1580423533.58359,-1.13160906385901,-0.742931258106355,1.24879835202563
1580423533.61555,-0.845471885252156,-0.959731441214618,1.01637293049516
1580423533.6475,-0.578866254673075,0.0725108720531011,1.15358205539025
1580423533.67946,-0.793713282978562,0.0554207675288012,-0.109620813305867
1580423533.71142,-1.91287098496986,0.322514686808574,-0.868421454184787
1580423533.74337,-0.481696803234913,-2.29666590371557,2.40701915007248
1580423533.77533,0.253177691309986,0.0734874494544897,1.01539635309377
1580423533.80729,-0.688731212329289,-0.915785458152133,1.17653162432288
1580423533.83924,-0.330327306019685,-0.991470206759747,0.99635309376669
1580423533.8712,-0.363530937666896,-0.88014038300145,1.05690089265278
1580423533.90316,-0.642832074464026,-0.824475471122302,1.20485236896315
1580423533.93512,-1.11207751583123,-0.73560692759594,1.07887388418402
1580423533.96707,-1.49245441367208,-0.613534752422369,0.642832074464028
1580423533.99903,-1.82497901884489,-0.286869611657893,0.188235294117646
1580423534.03099,-1.69900053406577,0.353765163653009,-0.499763485160601
1580423534.06294,-1.89675745784695,0.864515144579233,-0.880628671702144
1580423534.0949,-1.58571755550469,0.434332799267565,-0.429938200961319
1580423534.12686,-1.20485236896315,-0.232669565880826,-0.258548867017625
1580423534.15882,-1.05055313954376,-0.430426489662013,0.77418173495079
1580423534.19077,-0.880628671702144,-0.554940108339055,1.15504692149233
1580423534.22273,-0.257084000915542,-0.300541695277333,0.933852140077821
1580423534.25469,0.0935072861829553,-0.866956588082704,1.03346303501946
1580423534.28665,0.598886091401543,-0.894789044022279,1.08424505989166
1580423534.3186,0.633554589150837,-0.10766765850309,0.502204928664074
1580423534.35056,-0.109620813305867,0.594491493095294,0.598397802700848
1580423534.38252,-0.452399481193256,0.474372472724497,0.784924086366065
1580423534.41447,-1.25514610513466,0.382574196993971,0.97584496833753
1580423534.44643,-1.18287937743191,-1.05690089265278,1.5427481498436
1580423534.47839,-0.314702067597468,-1.72341496910048,1.396749828336
1580423534.51035,-0.186770428015564,-0.544197756923781,0.929457541771573
1580423534.5423,-1.10719462882429,0.108155947203784,-0.234622720683603
1580423534.57426,-0.898207064927139,-0.00903334096284425,0.84254215304799
1580423534.60622,0.358159761959257,-0.736095216296635,0.717051956969559
1580423534.63817,-0.510505836575875,-0.663340199893186,1.11110093842985
1580423534.67026,-0.425055313954376,-0.745372701609826,1.01686121919585
1580423534.70221,-0.45630579079881,-1.11012436102846,1.2688181887541
1580423534.73417,-0.54517433432517,-0.762462806134128,1.23268482490272
1580423534.76613,-0.699473563744563,-0.729259174486915,1.07008468757153
1580423534.79809,-1.34352635996033,-0.695567254139009,0.814221408407722
1580423534.83004,-2.1062333104448,-0.368413824673839,0.613046463721677
1580423534.862,-1.50563820859083,0.0407721065079727,-0.11792172121767
1580423534.89396,-1.62917524986648,0.603280689707791,-0.658945601586938
1580423534.92592,-1.69314106965743,0.694102388036928,-0.70142671854734
1580423534.95788,-1.28932631418326,0.0476081483176927,-0.391851682307164
1580423534.98983,-1.11354238193332,-0.316655222400245,-0.00366216525520713
1580423535.02179,-1.11354238193332,-0.621835660334172,0.964614328221561
1580423535.05375,-0.7390249485008,-0.337651636530099,1.21461814297703
1580423535.08571,0.0300297550926985,-0.37769130998703,1.00025940337224
1580423535.11766,0.370366979476614,-0.608651865415426,1.1237964446479
1580423535.14962,0.708751049057756,-0.542732890821698,0.806897077897307
1580423535.18158,0.362554360265506,-0.286381322957199,0.506111238269629
1580423535.21354,-0.0534676127260241,0.105714503700312,0.610605020218205
1580423535.24549,-0.357671473258565,0.302494850080109,0.692637521934845
1580423535.27745,-0.779064621957733,0.462653543907834,0.884046692607004
1580423535.30941,-1.25661097123674,-1.74685282673381,0.95533684290837
1580423535.34137,-0.481696803234913,-0.747814145113297,1.53054093232624
1580423535.37332,-0.672129396505683,0.40064087891966,0.78101777676051
1580423535.40528,-1.38551918822004,-0.349370565346762,-0.182864118410009
1580423535.43724,-0.534431982909895,-0.0402838178072784,0.950453955901427
1580423535.4692,0.226810101472495,-0.74927901121538,0.756603341725796
1580423535.50115,-0.731212329289692,-0.413824673838407,1.59645990691997
1580423535.53311,-0.446540016784924,-1.16676585030899,1.15211718928817
1580423535.56507,-0.578866254673075,-1.09108110170138,1.22829022659647
1580423535.59703,-0.564705882352941,-0.698496986343175,1.22438391699092
1580423535.62899,-1.01979095140002,-0.93482871747921,1.05983062485695
1580423535.66094,-1.52663462272068,-0.503669794766155,0.852307927061876
1580423535.6929,-1.70290684367132,-0.501228351262684,0.191653315022506
1580423535.72486,-1.78005645838102,0.387457084000914,-0.754650186923019
1580423535.75682,-1.7649195086595,1.16432440680552,-1.01686121919585
1580423535.78877,-1.5334706645304,0.310795757991912,-0.423102159151599
1580423535.82073,-1.17555504692149,-0.217532616159303,-0.0261234454871442
1580423535.85269,-0.999282825970855,-0.273685816739148,0.499275196459905
1580423535.88465,-0.766857404440376,-0.602304112306401,0.830334935530633
1580423535.9166,-0.182375829709315,-0.638437476157778,1.13990997177081
1580423535.9487,0.3630426489662,-0.471442740520333,1.23317311360342
1580423535.98066,0.747325856412605,-0.184328984512092,0.938735027084764
1580423536.01262,0.705821316853591,-0.166750591287098,0.682383459220265
1580423536.04457,0.115968566414892,-0.197512779430838,0.673594262607768
1580423536.07653,-0.328862439917602,-0.402594033722439,0.542244602121006
1580423536.10849,-0.740489814602883,0.151125352864881,0.703379873350119
1580423536.14045,-1.06861982146944,0.190188448920424,1.72048523689632
1580423536.17241,-0.84596017395285,-1.72683299000534,0.480231937132828
1580423536.20436,-0.41870756084535,-0.473884184023804,1.09498741130693
1580423536.23632,-0.865980010681316,0.0954604409857325,0.554940108339057
1580423536.26828,-2.79618524452583,0.838635843442436,-1.03688105592432
1580423536.30024,-0.160891126878766,-1.73952849622339,3.38408484016174
1580423536.3322,0.77418173495079,-0.489021133745327,-0.190188448920424
1580423536.36415,-0.700938429846646,-1.02223239490349,1.03932249942779
1580423536.39611,-0.593514915693904,-0.858655680170902,0.977309834439613
1580423536.42807,-0.537850003814755,-0.867444876783399,1.17701991302357
1580423536.46003,-0.480720225833524,-0.930434119172961,1.13112077515831
1580423536.49199,-1.3625696192874,-0.638437476157778,1.07008468757153
1580423536.52394,-1.77712672617685,-0.388433661402305,0.516853589684903
1580423536.5559,-1.6960708018616,-0.171633478294041,-0.0959487296864268
1580423536.58786,-1.79079880979629,0.84596017395285,-0.645761806668192
1580423536.61982,-1.66579690241855,1.08522163729305,-0.791760128175785
1580423536.65178,-1.32301823453117,0.237552452887769,-0.331303883421073
1580423536.68374,-1.09205767910277,-0.457770656900893,0.190188448920424
1580423536.71569,-1.05201800564584,-0.640390630960555,0.905531395437553
1580423536.74765,-0.516853589684901,-0.697032120241092,0.91090257114519
1580423536.77961,-0.0554207675288012,-0.84596017395285,0.83912413214313
1580423536.81157,0.512947280079349,-0.860120546272984,0.880628671702144
1580423536.84353,0.578377965972383,-0.407965209430076,0.837659266041047
1580423536.87548,0.305912870984969,0.186282139314869,0.507087815671017
1580423536.90744,-0.198489356832226,0.0173342488746471,0.681406881818877
1580423536.9394,-0.515877012283513,-0.789318684672313,0.540779736018923
1580423536.97136,-0.731212329289692,-0.692149233234149,0.868909742885482
1580423537.00332,-1.01637293049516,0.0915541313801782,1.62966353856718
1580423537.03527,-0.724864576180666,-0.825940337224385,1.16969558251316
1580423537.06723,-0.287846189059282,-0.498298619058518,1.16920729381247
1580423537.09919,-0.700938429846646,0.295170519569695,0.258060578316929
1580423537.13115,-2.21560997940032,0.679453727016099,-0.465583276112001
1580423537.16311,-0.140383001449607,-1.01002517738613,1.11158922713054
1580423537.19507,0.30835431448844,-0.902601663233387,0.375738155184251
1580423537.22711,-0.592050049591821,-1.55349050125887,1.14479285877775
1580423537.25907,-0.744884412909132,-0.84937819485771,1.10524147402151
1580423537.29103,-0.673594262607766,-0.821545738918136,1.00709544518196
1580423537.32299,-1.24782177462425,-0.839612420843824,0.896253910124361
1580423537.35494,-1.65847257190814,-0.51441214618143,0.523201342793929
1580423537.3869,-1.78786907759213,-0.191653315022506,0.165285725185015
1580423537.41886,-1.76101319905394,0.533943694209203,-0.379644464789807
1580423537.45082,-1.7727321278706,1.09059281300069,-0.77076371404593
1580423537.48278,-1.31471732661936,0.318120088502326,-0.359136339360647
1580423537.51473,-1.01051346608682,-0.409918364232853,-0.0153810940718699
1580423537.54669,-0.762462806134128,-0.653574425879301,0.656504158083468
1580423537.57865,-0.69800869764248,-0.486091401541161,0.731212329289693
1580423537.61061,-0.355230029755093,-0.292240787365531,1.15065232318608
1580423537.64257,0.113527122911421,-0.226321812771801,1.12477302204929
1580423537.67453,0.595956359197377,-0.459235523002976,1.02272068360418
1580423537.70648,0.575936522468911,-0.578377965972381,0.714122224765394
1580423537.73844,0.0617685206378269,-0.314213778896773,0.512947280079349
1580423537.7704,-0.324467841611353,-0.495857175555047,0.819104295414665
1580423537.80236,-0.803479056992447,0.25708400091554,0.539803158617534
1580423537.83431,-1.05055313954376,-0.488044556343938,1.59548332951858
1580423537.86627,-0.724864576180666,-1.05836575875486,0.633554589150837
1580423537.89823,-0.418219272144656,-0.365972381170367,1.14869916838331
1580423537.93019,-0.448004882887007,-0.129640650034332,0.734142061493859
1580423537.96215,-3.43193713282979,0.944594491493095,-2.4905165178912
1580423537.99411,-0.182375829709315,-1.20094605935759,4.70490577553979
1580423538.02606,1.29225604638743,-0.444098573281453,0.678965438315405
1580423538.05802,-0.881605249103533,-0.617929350728618,0.939711604486153
1580423538.08998,-0.453376058594644,-1.13112077515831,1.01588464179446
1580423538.12194,-0.325444419012742,-1.19801632715343,1.26442359044785
1580423538.1539,-0.56568245975433,-0.892347600518807,1.17409018081941
1580423538.18585,-1.19069199664301,-0.700938429846646,0.990981918059052
1580423538.21781,-1.70339513237201,-0.478278782330053,0.709239337758451
1580423538.24977,-1.50270847638666,-0.48706797894255,0.0969253070878153
1580423538.28173,-1.59743648432135,0.328374151216906,-0.491950865949493
1580423538.31369,-1.7732204165713,1.12867933165484,-0.85963225757229
1580423538.34564,-1.40163271534295,0.382574196993971,-0.439703974975204
1580423538.3776,-1.09987029831388,-0.162355992980849,-0.273685816739148
1580423538.40956,-1.06324864576181,-0.366948958571756,0.25366598001068
1580423538.44152,-1.11842526894026,-0.891859311818113,1.16920729381247
1580423538.47348,-0.257084000915542,-0.602304112306401,1.13795681696803
1580423538.50558,0.28101014724956,-0.6877546349279,1.07887388418402
1580423538.53754,0.55298695353628,-0.647714961470969,1.3972381170367
1580423538.5695,0.725841153582056,0.0646982528419926,0.774670023651485
1580423538.60146,0.146242465857938,0.338139925230792,0.63501945525292
1580423538.63342,0.00268558785381856,-0.00317387655451284,0.662851911192494
1580423538.66538,-0.383062485694667,-0.168215457389181,0.626718547341117
1580423538.69734,-0.914808880750744,-0.152101930266269,1.43581292439154
1580423538.72929,-1.17555504692149,-1.14723430228122,0.328374151216906
1580423538.76125,-0.531990539406424,-0.647226672770275,1.2004577706569
1580423538.79321,-0.202883955138475,0.258060578316929,0.915785458152133
1580423538.82517,-2.02468909742885,-0.135011825741969,-1.05445944914931
1580423538.85713,-1.07985046158541,-0.884046692607004,2.02859540703441
1580423538.88909,0.489021133745325,-0.129640650034332,1.44753185320821
1580423538.92105,-0.330815594720379,-0.412848096437019,0.931898985275044
1580423538.953,-0.511482413977264,-1.55446707866026,0.915785458152133
1580423538.98496,-0.617929350728618,-0.99293507286183,1.15407034409094
1580423539.01692,-0.603768978408484,-0.587167162584878,1.02760357061112
1580423539.04888,-0.941176470588236,-0.666758220798046,1.04615854123751
1580423539.08084,-1.48122377355612,-0.421149004348822,0.676035706111239
1580423539.1128,-1.83816281376364,-0.37427328908217,0.187258716716258
1580423539.14476,-1.64577706569009,0.199465934233615,-0.591561760891127
1580423539.17671,-1.77663843747616,1.05152971694514,-0.973891813534753
1580423539.20867,-1.46657511253529,0.35962462806134,-0.544197756923781
1580423539.24063,-1.12477302204929,-0.318120088502328,-0.361089494163425
1580423539.27259,-0.940688181887541,-0.288822766460671,0.037842374303807
1580423539.30455,-0.971450370031281,-0.266361486228734,0.985122453650721
1580423539.33651,-0.573495078965438,-0.457282368200199,1.71560234988937
1580423539.36847,0.231204699778743,-0.202395666437781,1.22975509269856
1580423539.40042,0.573006790264746,-0.484138246738384,1.09449912260624
1580423539.43238,0.865980010681316,-0.833264667734799,0.736095216296636
1580423539.46434,0.261478599221789,-0.118898298619058,0.45191119249256
1580423539.4963,-0.281010147249562,0.266361486228732,0.509040970473794
1580423539.52826,-0.579354543373769,0.385503929198137,1.04176394293126
1580423539.56022,-1.04371709773404,0.4484931715877,0.987075608453498
1580423539.59218,-1.05445944914931,-2.41287861448081,0.474372472724497
1580423539.62414,-0.562752727550164,-0.646738384069581,1.29518577859159
1580423539.65609,-0.403570611123827,0.354741741054397,0.846448462653544
1580423539.68805,-1.79275196459907,0.159426260776684,-1.23170824750133
1580423539.72001,-0.905531395437553,-0.633554589150835,1.81814297703517
1580423539.75197,0.636484321355002,-0.281986724650951,0.920180056458381
1580423539.78406,-0.448981460288396,-0.545662623025864,1.09401083390555
1580423539.81602,-0.571053635461967,-1.19606317235065,0.988540474555581
1580423539.84797,-0.48023193713283,-1.00465400167849,1.14528114747845
1580423539.87993,-0.515388723582818,-0.69459067673762,1.28639658197909
1580423539.91189,-0.796154726482033,-0.915297169451438,1.20680552376593
1580423539.94385,-1.59890135042344,-0.652597848477912,0.991958495460441
1580423539.97581,-1.90066376745251,-0.497810330357824,0.299565117875943
1580423540.00777,-1.88259708552682,0.202395666437781,-0.754650186923019
1580423540.03973,-1.69167620355535,1.24147402151522,-1.19557488364996
1580423540.07168,-1.67360952162966,0.717051956969559,-0.819592584115359
1580423540.10364,-1.37087052719921,-0.272220950637065,-0.280033569848174
1580423540.1356,-0.946547646295873,-0.535896849011978,0.408453498130768
1580423540.16756,-0.694102388036926,-0.697520408941786,0.984634164950027
1580423540.19952,-0.338139925230793,-0.576424811169604,1.07789730678263
1580423540.23148,0.258548867017623,-0.576424811169604,1.06959639887083
1580423540.26344,0.712657358663311,-0.445563439383536,1.25514610513466
1580423540.29539,0.753185320820936,-0.188723582818341,0.770275425345236
1580423540.32735,0.230716411078049,0.0573739223315783,0.504158083466852
1580423540.35931,-0.0754406042572668,-0.294193942168308,0.769787136644542
1580423540.39127,-0.504646372167544,-0.211673151750972,0.530525673304343
1580423540.42323,-1.09108110170138,0.36646066987106,1.65017166399634
1580423540.45519,-1.11842526894026,-1.22926680399786,0.541756313420311
1580423540.48715,-0.49048599984741,-0.47339589532311,1.31667048142214
1580423540.5191,-0.42212558175021,0.476813916227968,0.767833981841765
1580423540.55106,-2.07009994659342,-0.876234073395896,-1.37282368200198
1580423540.58302,-0.463630121309224,-0.711192492561226,2.63846799420157
1580423540.61498,0.487556267643242,0.130617227435721,0.954360265506981
1580423540.64694,-0.204348821240558,-1.00904859998474,1.29323262378881
1580423540.6789,-0.219974059662775,-1.26295872434577,0.97926298924239
1580423540.71086,-0.814221408407722,-0.786877241168842,1.25905241474021
1580423540.74282,-0.518318455786984,-0.796154726482033,1.08717479209583
1580423540.77477,-1.11354238193332,-0.946547646295873,1.10231174181735
1580423540.80673,-1.54763103685054,-0.363042648966202,0.736583504997331
1580423540.83869,-1.66872663462272,-0.492927443350881,0.198001068131532
1580423540.87065,-1.63210498207065,0.143312733653772,-0.546639200427252
1580423540.90261,-1.74880598153658,1.19801632715343,-1.03053330281529
1580423540.93457,-1.4314183260853,0.227298390173189,-0.378667887388419
1580423540.96652,-1.06520180056458,-0.350835431448845,-0.323979552910659
1580423540.99848,-1.01051346608682,-0.337651636530099,0.405523765926603
1580423541.03044,-0.91090257114519,-0.294193942168308,1.00709544518196
1580423541.06238,-0.520759899290455,-0.184817273212786,1.08717479209583
1580423541.09434,0.144289311055161,-0.364507515068285,1.42116426337072
1580423541.1263,0.613534752422371,-0.364507515068285,1.24440375371939
1580423541.15825,0.89039444571603,-0.258548867017625,0.751232166018159
1580423541.19021,0.380621042191194,-0.183352407110704,0.543709468223089
1580423541.22217,-0.119386587319752,-0.0925307087815668,0.513923857480737
1580423541.25413,-0.302006561379416,-0.233646143282215,0.794201571679256
1580423541.28609,-1.30836957351034,0.389898527504386,1.00856031128405
1580423541.31805,-1.18287937743191,-1.1237964446479,1.01539635309377
1580423541.35001,-0.490974288548104,-1.46755168993668,1.05445944914931
1580423541.38197,-0.47681391622797,0.300053406576637,0.947035934996567
1580423541.41393,-0.657969024185549,0.635507743953614,0.140871290150301
1580423541.44589,-2.86845197222858,-0.324467841611353,-1.12281986724651
1580423541.47784,-0.41528953994049,-1.97488364995804,2.71073472190433
1580423541.5098,0.466559853513388,-0.070557717250324,0.563729304951554
1580423541.54176,-0.7048447394522,-0.779064621957733,1.10426489662013
1580423541.57372,-0.518806744487678,-1.25807583733883,0.985122453650721
1580423541.60568,-0.466071564812696,-0.86646829938201,1.13405050736248
1580423541.63764,-0.568123903257801,-0.707286182955672,1.15309376668955
1580423541.6696,-1.15162890058747,-0.801037613488976,1.01393148699168
1580423541.70156,-1.43385976958877,-0.444098573281453,0.64185549706264
1580423541.73352,-1.68923476005188,-0.457282368200199,0.129640650034332
1580423541.76548,-1.74831769283589,0.395757991912717,-0.584725719081407
1580423541.79744,-1.77810330357824,0.974868390936141,-0.987563897154192
1580423541.82939,-1.56130312046998,0.287357900358586,-0.570565346761272
1580423541.86135,-1.36354619668879,-0.295170519569696,-0.276615548943314
1580423541.89331,-1.27809567406729,-0.457770656900893,0.32202639810788
1580423541.92527,-1.01490806439307,-0.39478141451133,1.42848859388113
1580423541.95723,-0.363042648966202,-0.582284275577935,1.63405813687343
1580423541.98919,0.502693217364769,-0.320073243305105,1.02809185931182
1580423542.02115,0.919203479056993,-0.753673609521631,1.04518196383612
1580423542.05311,1.14772259098192,-0.618417639429312,0.841077286945907
1580423542.08507,0.65552758068208,0.0710460059510183,0.135988403143358
1580423542.11703,0.0842298008697639,0.275638971541923,0.529549095902954
1580423542.14898,-0.566170748455024,0.338628213931486,0.622323949034868
1580423542.18094,-1.16090638590066,-0.160402838178072,1.75661860074769
1580423542.2129,-0.84596017395285,-2.59159227893492,-0.412848096437019
1580423542.24486,-0.820569161516747,0.119874876020447,1.44118410009918
1580423542.27682,-0.406012054627299,0.377691309987028,0.842053864347296
1580423542.30878,-1.65554283970397,0.271732661936369,-1.33571374074922
1580423542.34094,-1.50270847638666,-0.651132982375829,1.14137483787289
1580423542.3729,0.629159990844588,-0.166262302586404,0.888929579613947
1580423542.40486,-0.581307698176547,-0.390386816205082,1.26149385824369
1580423542.43682,-0.606210421911955,-1.44899671931029,1.12916762035553
1580423542.46878,-0.528572518501564,-1.05983062485695,1.04567025253681
1580423542.50074,-0.590585183489738,-0.693614099336232,1.06324864576181
1580423542.5327,-0.962661173418784,-0.868909742885482,1.05690089265278
1580423542.56466,-1.60964370183871,-0.496345464255741,0.810803387502862
1580423542.59662,-1.6360112916762,-0.248294804303043,0.205325398641946
1580423542.62858,-1.74489967193103,0.188723582818341,-0.612558175020981
1580423542.66054,-1.88747997253376,1.0720378423743,-1.09059281300069
1580423542.6925,-1.47682917524987,0.12133974212253,-0.382085908293279
1580423542.72446,-1.17750820172427,-0.407965209430076,-0.272220950637065
1580423542.75642,-0.960708018616007,-0.367925535973145,0.461188677805751
1580423542.78837,-0.774670023651485,-0.181887541008621,1.04518196383612
1580423542.82033,-0.364995803768979,0.0900892652780954,1.07447928587777
1580423542.85229,0.194094758525978,-0.420172426947433,1.26442359044785
1580423542.88425,0.649179827573054,-0.678477149614709,1.05250629434653
1580423542.91621,0.813733119707027,-0.618417639429312,0.6110933089189
1580423542.94817,0.0319829098954756,-0.319096665903716,0.55640497444114
1580423542.98013,-0.200930800335698,-0.0646982528419926,0.788830395971619
1580423543.01209,-0.703868162050812,0.681895170519571,0.803479056992447
1580423543.04405,-1.20973525597009,-0.272709239337759,1.37380025940337
1580423543.07601,-0.728282597085526,-1.88894483863584,0.588632028686963
1580423543.10797,-0.400152590218967,-0.198001068131532,1.21266498817426
1580423543.13993,-0.364507515068285,-0.0163576714732585,0.648203250171665
1580423543.17189,-3.08720531013962,0.0588387884336612,-1.51393911650263
1580423543.20385,-0.296147096971085,-0.906019684138247,3.92852674143587
1580423543.23581,0.871351186388953,0.233646143282215,0.358159761959257
1580423543.26777,-0.546150911726558,-1.28249027237354,1.34206149385824
1580423543.29973,-0.329350728618296,-1.16432440680552,0.896253910124361
1580423543.33169,-0.654551003280689,-0.812756542305639,1.22487220569161
1580423543.36365,-0.704356450751506,-0.851819638361182,1.21950102998398
1580423543.39561,-1.34059662775616,-0.895765621423667,1.17750820172427
1580423543.42757,-1.68484016174563,-0.548104066529335,0.634042877851531
1580423543.45953,-1.55349050125887,-0.37085526817731,-0.0319829098954756
1580423543.49148,-1.66579690241855,0.545174334325171,-0.586678873884184
