Timestamp_seconds,Accel_X_g,Accel_Y_g,Accel_Z_g
1580423490.04354,-0.878675516899367,0.47241931792172,0.123781185626001
1580423490.07562,-0.884046692607004,0.461188677805751,0.127199206530861
1580423490.1077,-0.884046692607004,0.471442740520331,0.122804608224612
1580423490.13978,-0.871839475089647,0.484626535439077,0.128175783932249
1580423490.17186,-0.873792629892424,0.492439154650185,0.114991989013504
1580423490.20394,-0.874280918593119,0.477302204928662,0.119386587319752
1580423490.23602,-0.884534981307699,0.465094987411305,0.144289311055161
1580423490.2681,-0.86988632028687,0.465583276112,0.145265888456549
1580423490.30017,-0.882581826504921,0.467536430914777,0.146730754558632
1580423490.33225,-0.88014038300145,0.469977874418248,0.145265888456549
1580423490.36433,-0.880628671702144,0.479743648432134,0.135988403143358
1580423490.39641,-0.881116960402839,0.471442740520331,0.139894712748912
1580423490.42849,-0.879163805600061,0.470466163118942,0.132082093537804
1580423490.46057,-0.87330434119173,0.469489585717554,0.138918135347524
1580423490.49265,-0.88697642481117,0.471931029221025,0.115480277714198
1580423490.52473,-0.874769207293813,0.474860761425191,0.130617227435721
1580423490.55681,-0.879163805600061,0.478767071030745,0.137941557946135
1580423490.58889,-0.881116960402839,0.465094987411305,0.122804608224612
1580423490.62106,-0.869398031586176,0.481208514534217,0.123292896925307
1580423490.65314,-0.874769207293813,0.477302204928662,0.139406424048218
1580423490.68522,-0.878187228198673,0.488044556343937,0.119874876020447
1580423490.7173,-0.889906157015336,0.488532845044631,0.131593804837109
1580423490.74938,-0.864515144579233,0.492439154650185,0.127687495231555
1580423490.78146,-0.884046692607004,0.490974288548102,0.120851453421835
1580423490.81354,-0.88697642481117,0.480231937132828,0.10766765850309
1580423490.84562,-0.868909742885482,0.481208514534217,0.133058670939192
1580423490.8777,-0.888441290913253,0.479743648432134,0.107179369802395
1580423490.90978,-0.872327763790341,0.473884184023802,0.130128938735027
1580423490.94186,-0.875745784695201,0.476813916227968,0.114015411612115
1580423490.97394,-0.886488136110476,0.466559853513388,0.106202792401007
1580423491.00602,-0.895277332722973,0.484138246738382,0.128175783932249
1580423491.0381,-0.882581826504921,0.489021133745325,0.10424963759823
1580423491.07018,-0.862073701075762,0.499763485160599,0.110109102006561
1580423491.10226,-0.870374608987564,0.502204928664074,0.0832532234683754
1580423491.13434,-0.873792629892424,0.495857175555045,0.0842298008697639
1580423491.16642,-0.862561989776456,0.500251773861297,0.0915541313801782
1580423491.1985,-0.880628671702144,0.514412146181431,0.0827649347676811
1580423491.23058,-0.85279621576257,0.512458991378654,0.0710460059510183
1580423491.26266,-0.85621423666743,0.527595941100177,0.0349126420996413
1580423491.29474,-0.874769207293813,0.519783321889069,0.0495613031204698
1580423491.32682,-0.860608834973679,0.491462577248797,0.077393759060044
1580423491.3589,-0.856702525368124,0.454840924696725,0.0915541313801782
1580423491.39098,-0.865491721980622,0.454352635996031,0.0476081483176927
1580423491.42305,-0.842053864347296,0.47241931792172,-0.0720225833524069
1580423491.45513,-0.844495307850767,0.557869840543223,0.00512703135728998
1580423491.48722,-0.789318684672313,0.638925764858474,-0.0925307087815668
1580423491.51929,-0.80494392309453,0.678965438315405,-0.0847180895704582
1580423491.55137,-0.750743877317465,0.63501945525292,-0.141359578850995
1580423491.58345,-0.619394216830701,0.64185549706264,-0.140871290150301
1580423491.61553,-0.80836194399939,0.5940032043946,-0.105226214999618
1580423491.64761,-0.719005111772335,0.707774471656368,-0.121828030823224
1580423491.67969,-0.642343785763332,0.734630350194553,-0.0935072861829553
1580423491.71177,-0.664316777294575,0.727306019684139,-0.101319905394064
1580423491.74385,-0.700450141145952,0.672129396505685,-0.0505378805218584
1580423491.77593,-0.82545204852369,0.51197070267796,0.0324711985961699
1580423491.80801,-1.1662775616083,0.896253910124361,-0.354253452353705
1580423491.84009,-0.548104066529335,1.63698786907759,-0.388921950102999
1580423491.87217,-1.20387579156176,-0.037842374303807,-0.137453269245441
1580423491.90427,-1.10084687571527,0.204348821240558,-0.429449912260624
1580423491.93634,-1.01979095140002,0.490485999847408,-0.317631799801633
1580423491.96842,-0.830334935530633,0.122316319523918,-0.472419317921721
1580423492.0005,-0.904554818036164,0.127687495231555,-0.36743724727245
1580423492.03258,-0.967544060425727,0.479743648432134,-0.0886243991760125
1580423492.06466,-0.706309605554283,0.708751049057756,-0.232181277180132
1580423492.09674,-0.69459067673762,0.659433890287634,-0.239505607690546
1580423492.12882,-0.634531166552224,0.543221179522394,-0.444098573281453
1580423492.1609,-0.662363622491798,0.354741741054397,-0.529060807202258
1580423492.19298,-0.874280918593119,0.213138017853055,-0.403082322423133
1580423492.22506,-0.865003433279927,0.212161440451666,-0.455817502098116
1580423492.25714,-1.05885404745556,0.338139925230792,-0.37085526817731
1580423492.28922,-1.00807202258335,0.352300297550926,-0.493415732051576
1580423492.3213,-0.748790722514686,0.426031891355763,-0.694102388036926
1580423492.35337,-0.584237430380712,0.54615091172656,-0.77076371404593
1580423492.38545,-0.321049820706493,0.640878919661251,-0.860120546272984
1580423492.41753,0.0764171816586554,0.632089723048754,-1.0554360265507
1580423492.44961,-0.126710917830167,0.690196078431374,-0.619882505531395
1580423492.48169,-1.59890135042344,0.739024948500802,-0.202883955138475
1580423492.51377,-1.92751964599069,0.560311284046694,0.10083161669337
1580423492.54585,-1.50710307469291,1.00270084687572,-0.489021133745327
1580423492.57793,-1.49098954757,0.605722133211263,-0.141847867551689
1580423492.61001,-0.72535286488136,0.95533684290837,-0.772228580148013
1580423492.64209,-0.620859082932784,-1.91433585107195,-0.140871290150301
1580423492.67417,-0.242435339894712,-0.454840924696727,-0.567147325856412
1580423492.70625,0.606210421911957,3.48516060120546,0.0617685206378269
1580423492.73833,-0.208743419546806,0.658945601586939,-0.260990310521096
1580423492.7704,-1.68581673914702,0.636484321355002,-1.86306553749905
1580423492.80248,-0.414801251239796,0.833264667734799,-0.673594262607766
1580423492.83456,-1.96804760814832,-0.974380102235447,1.23659113450828
1580423492.86664,-1.37428854810407,1.01002517738613,-0.505622949568933
1580423492.89872,-1.97439536125734,-0.350835431448845,-0.724376287479972
1580423492.9308,-1.35622186617838,-0.291264209964142,-0.874769207293813
1580423492.96288,-1.46706340123598,0.83912413214313,-0.640390630960555
1580423492.99496,-0.414312962539102,1.12819104295415,-1.13063248645762
1580423493.02704,-0.257084000915542,1.20582894636454,-1.00953688868544
1580423493.05912,-0.165774013885709,0.5940032043946,-0.896742198825056
1580423493.0912,-0.0349126420996413,0.503669794766157,-0.835217822537576
1580423493.12328,0.382085908293277,0.730235751888305,-0.734630350194552
1580423493.15536,0.63160143434806,0.0397955291065841,-0.302494850080111
1580423493.18756,-0.167727168688486,-0.164309147783626,-0.566170748455024
1580423493.21964,-2.35721370260166,1.37087052719921,-1.53981841763943
1580423493.25172,-1.83376821545739,0.675059128709851,0.0915541313801782
1580423493.2838,-1.90505836575876,0.876234073395896,-1.00660715648127
1580423493.31588,-2.22928206301976,0.498786907759211,-0.356694895857176
1580423493.34796,-1.62966353856718,-0.0754406042572668,-0.430426489662013
1580423493.38004,-1.0036774242771,0.554451819638363,-0.289799343862059
1580423493.41212,-1.22047760738537,0.633554589150837,0.34937056534676
1580423493.4442,-0.299076829175251,-0.128175783932249,-0.510505836575875
1580423493.47628,0.00952162966353853,-0.0158693827725642,-0.642343785763332
1580423493.50836,0.176028076600289,1.17848477912566,-0.56226443884947
1580423493.54044,0.159914549477378,0.332768749523154,-0.164797436484321
1580423493.57252,-0.0681162737468526,0.689219501029985,-0.519295033188373
1580423493.6046,-0.767833981841765,0.388433661402303,-0.883070115205616
1580423493.63668,-1.76980239566644,-0.751232166018159,-0.177981231403066
1580423493.66876,-1.46706340123598,-0.643808651865415,0.802502479591059
1580423493.70084,-1.31276417181659,0.593514915693905,-0.645273517967498
1580423493.73292,-1.85622949568933,0.357671473258563,-0.74244296940566
1580423493.76499,-1.72536812390326,-0.406500343327993,-0.94850080109865
1580423493.79708,-1.95828183413443,0.38355077439536,-0.576424811169604
1580423493.82915,-1.78347447928588,0.618417639429314,-0.665781643396658
1580423493.86123,-1.01051346608682,1.46071564812695,-1.03639276722362
1580423493.89331,0.0876478217746239,1.0300450141146,-1.20534065766384
1580423493.92539,0.613534752422371,0.123292896925307,-1.15114061188678
1580423493.95747,0.700938429846648,0.662363622491799,-0.513435568780041
1580423493.98955,0.196047913328755,0.392828259708551,-0.40161745632105
1580423494.02163,-0.234134431982909,0.168703746089875,-0.40845349813077
1580423494.05371,-1.42800030518044,0.759044785229268,-0.79468986037995
1580423494.08579,-1.84939345387961,0.0866712443732354,-0.0397955291065841
1580423494.11787,-1.6277103837644,0.711680781261922,-0.7390249485008
1580423494.14995,-1.85915922789349,0.814709697108416,-0.498786907759213
1580423494.18203,-1.48024719615473,0.675059128709851,-0.551522087434195
1580423494.21411,-1.55544365606165,0.486091401541159,-0.751720454718853
1580423494.24619,-1.39382009613184,-0.409918364232853,-0.444098573281453
1580423494.27827,-1.38258945601587,-0.545662623025864,0.294682230869
1580423494.31035,-0.208255130846112,0.888929579613947,-0.501716639963378
1580423494.34243,0.430914778362705,0.601815823605708,-0.669199664301518
1580423494.37451,0.313725490196077,0.89381246662089,-0.608163576714732
1580423494.40659,-0.0573739223315783,0.308842603189134,-0.308354314488442
1580423494.43867,-0.210208285648889,-0.35034714274815,0.344975967040511
1580423494.47076,-1.00270084687572,0.290287632562752,-1.11989013504234
1580423494.50284,0.073975738155184,1.18873884184024,-0.471931029221027
1580423494.53492,-2.74247348744945,-0.496345464255741,0.305912870984969
1580423494.567,-1.53493553063249,0.294193942168306,-0.269291218432899
1580423494.59908,-1.97537193865873,0.679942015716794,-0.312260624093996
1580423494.63117,-1.70730144197757,-0.0173342488746471,-0.474860761425193
1580423494.66324,-1.8757610437171,-0.310307469291219,-0.89723048752575
1580423494.69532,-1.68923476005188,0.428961623559928,-0.707774471656366
1580423494.7274,-1.17604333562219,1.10719462882429,-0.788342107270925
1580423494.75949,-0.49732204165713,1.23414969100481,-0.947524223697261
1580423494.79157,-0.113038834210727,0.595468070496683,-1.03102159151598
1580423494.82365,0.553475242236974,0.44165712977798,-1.15895323109789
1580423494.85573,0.675059128709851,0.558846417944611,-0.36743724727245
1580423494.88781,0.141359578850995,0.365484092469671,-0.393316548409247
1580423494.91989,-0.399176012817579,0.191653315022506,-0.477302204928664
1580423494.95197,-2.75223926146334,0.859143968871596,-0.404058899824522
1580423494.98405,-1.80837720302129,0.159914549477378,-0.544686045624475
1580423495.01613,-1.90554665445945,0.944106202792401,-0.285893034256505
1580423495.04821,-1.92458991378653,0.760997940032045,-0.400640878919662
1580423495.08029,-1.43678950179294,0.754650186923019,-0.86305027847715
1580423495.11237,-1.63698786907759,-0.23315785458152,-0.641367208361943
1580423495.14445,-1.58767071030747,-1.21266498817426,0.61792935072862
1580423495.17653,-0.0910658426794839,1.41188677805753,0.0612802319371326
1580423495.20861,0.508064393072406,-0.0632333867399097,-0.978286411841001
1580423495.24069,-0.0046387426565957,0.936781872281987,0.0651865415426869
1580423495.27277,-0.0109864957656214,0.28442816815442,-0.350835431448845
1580423495.30485,-0.238529030289158,0.228763256275272,0.116945143816281
1580423495.33693,-0.888929579613947,0.735606927595942,-1.44899671931029
1580423495.36901,-0.335698481727322,0.077393759060044,0.000732433051041426
1580423495.40109,-2.43485160601205,-0.76734569314107,1.15602349889372
1580423495.43317,-1.46999313344015,0.435797665369648,-0.257572289616236
1580423495.46525,-1.80154116121157,0.585214007782103,-0.247318226901655
1580423495.49733,-1.87234302281224,-0.392339971007859,-0.646250095368886
1580423495.52941,-1.86160067139696,-0.0441901274128327,-0.88697642481117
1580423495.56149,-1.5510490577554,0.683360036621654,-0.607186999313344
1580423495.59357,-1.00563057907988,1.13942168307011,-0.933363851377127
1580423495.62565,-0.210208285648889,0.957289997711147,-1.00123598077363
1580423495.65773,0.306401159685663,0.466559853513388,-1.13990997177081
1580423495.68981,0.887953002212559,0.925062943465324,-0.848401617456322
1580423495.72189,0.266361486228732,0.430914778362705,-0.433844510566873
1580423495.75403,-0.215091172655832,0.123292896925307,-0.404547188525216
1580423495.78611,-1.70876630807965,0.916762035553521,-0.854749370565347
1580423495.81819,-1.92751964599069,0.067139696345464,-0.392828259708553
1580423495.85027,-1.92117189288167,0.555428397039751,-0.610116731517509
1580423495.88235,-2.12918287937743,0.833752956435493,-0.176516365300984
1580423495.91443,-1.46657511253529,0.720958266575114,-0.52466620889601
1580423495.94651,-1.40798046845197,0.438727397573814,-1.01686121919585
1580423495.97859,-1.52663462272068,-0.286381322957199,0.0900892652780954
1580423496.01067,-1.34743266956588,-0.94850080109865,1.03688105592432
1580423496.04275,0.182375829709315,0.509529259174489,-0.440680552376593
1580423496.07483,0.35278858625162,0.53931486991684,-0.579354543373769
1580423496.10691,0.150148775463492,0.523201342793929,-0.681895170519569
1580423496.13899,-0.0563973449301898,0.221927214465552,0.134523537041275
1580423496.17107,-0.644785229266803,-0.00317387655451284,-0.494392309452964
1580423496.20315,-0.663828488593881,1.00123598077363,-1.11354238193332
1580423496.23523,-2.0637521934844,-0.0324711985961699,-0.599374380102235
1580423496.26731,-1.57058060578317,-0.242923628595406,0.0583504997329669
1580423496.29939,-1.52028686961166,1.23805600061036,0.0710460059510183
1580423496.33147,-1.86257724879835,-0.328862439917602,-0.888441290913253
1580423496.36355,-1.8586709391928,-0.545662623025864,-0.917250324254216
1580423496.39563,-1.64773022049287,0.455817502098114,-0.553963530937667
1580423496.42771,-1.25563439383536,1.04176394293126,-0.808850232700085
1580423496.45979,-0.663340199893186,1.43532463569085,-1.01783779659724
1580423496.49187,0.0397955291065841,0.459235523002974,-1.39040207522698
1580423496.52395,1.02516212710765,0.623300526436257,-1.21608300907912
1580423496.55603,0.619882505531397,0.868909742885482,-0.527595941100175
1580423496.58811,-0.0813000686655982,0.235111009384298,-0.45630579079881
1580423496.62019,-1.15553521019303,0.297611963073166,-0.493415732051576
1580423496.65227,-2.08621347371633,-0.0168459601739528,-0.39478141451133
1580423496.68435,-1.99002059967956,0.358159761959257,-0.72535286488136
1580423496.71643,-2.003692683299,0.848889906157016,-0.109132524605172
1580423496.74851,-1.69900053406577,0.509529259174489,-0.575448233768215
1580423496.78059,-1.47731746395056,0.162844281681544,-0.645273517967498
1580423496.81267,-1.62966353856718,-0.0983901731898982,0.130617227435721
1580423496.84475,-1.39967956054017,-0.0935072861829553,1.17018387121385
1580423496.87683,0.287357900358586,0.0417486839093613,-1.01051346608682
1580423496.90891,0.0153810940718699,0.628671702143894,0.199954222934309
1580423496.94099,0.159914549477378,0.44165712977798,-0.917250324254216
1580423496.97307,0.108644235904478,0.572518501564051,-0.0583504997329669
1580423497.00515,-0.624765392538338,-0.139406424048218,-0.37085526817731
1580423497.03726,-0.73218890669108,0.732677195391776,-0.773205157549402
1580423497.06934,-2.05642786297398,1.09840543221179,-0.227298390173189
1580423497.10142,-1.54763103685054,-0.78785381857023,0.707774471656368
1580423497.1335,-1.92996108949416,0.906996261539636,-0.379644464789807
1580423497.16558,-1.67507438773175,-0.134523537041275,-0.56226443884947
1580423497.19766,-1.96414129854276,-0.271732661936371,-0.489021133745327
1580423497.22974,-1.64870679789425,0.368902113374531,-0.676035706111238
1580423497.26182,-1.20534065766384,0.983657587548638,-0.741466392004272
1580423497.2939,-0.355230029755093,1.11598382543679,-0.79468986037995
1580423497.32598,0.106691081101701,0.487556267643242,-1.15016403448539
1580423497.35806,0.854749370565347,0.642343785763334,-1.23024338139925
1580423497.39014,0.51880674448768,0.637460898756391,-0.315678644998856
1580423497.42222,-0.0725108720531011,0.28784618905928,-0.303471427481499
1580423497.4543,-0.996841382467384,0.260990310521095,-0.458747234302281
1580423497.48638,-2.11306935225452,0.00317387655451284,-0.0187991149767299
1580423497.51846,-1.7986114290074,0.350347142748149,-0.756115053025102
1580423497.55054,-2.0974441138323,0.985610742351415,-0.239017318989852
1580423497.58262,-1.55788509956512,0.81861600671397,-0.692637521934843
1580423497.6147,-1.46803997863737,0.63160143434806,-0.706309605554283
1580423497.64679,-1.61843289845121,-0.00854505226214997,-0.324467841611353
1580423497.67886,-1.45876249332418,-1.04127565423056,0.435797665369648
1580423497.71094,-0.49048599984741,0.557381551842528,0.938735027084764
1580423497.74302,0.756603341725796,0.218509193560692,-1.51784542610819
1580423497.77511,0.10766765850309,1.26637674525063,0.345464255741206
1580423497.80719,-0.0598153658350498,0.0544441901274126,-0.407476920729382
1580423497.83927,-0.103761348897535,0.494880598153657,-0.00805676356145568
1580423497.87135,-0.909437705043107,0.634531166552225,-1.11061264972915
1580423497.90343,-0.334233615625239,0.912367437247273,-0.300541695277333
1580423497.93551,-2.47782101167315,-1.53200579842832,1.46755168993667
1580423497.96759,-1.42067597467002,0.386480506599526,-0.474860761425193
1580423497.99967,-1.6448004882887,0.671641107804991,-0.587167162584878
1580423498.03175,-1.67507438773175,-0.283451590753033,-0.71851682307164
1580423498.06383,-1.96609445334554,-0.244876783398183,-0.431891355764096
1580423498.09591,-1.68191042954147,0.469977874418248,-0.573983367666132
1580423498.12799,-1.35817502098116,1.02027924010071,-0.733653772793163
1580423498.16007,-0.683848325322346,1.19508659494926,-0.866956588082704
1580423498.19215,0.0339360646982527,1.10035858701457,-1.02272068360418
1580423498.22423,0.965102616922255,0.180422674906538,-1.60769054703593
1580423498.25631,0.388921950102997,0.424078736552985,-0.727794308384832
1580423498.28839,-0.0104982070649271,0.489021133745325,-0.287846189059282
1580423498.32049,-0.438239108873121,0.120363164721141,-0.290287632562753
1580423498.35257,-2.19559014267185,0.575448233768217,-0.669199664301518
1580423498.38466,-1.88503852903029,0.350347142748149,-0.325444419012742
1580423498.41674,-1.756130312047,0.751232166018159,-0.237064164187075
1580423498.44882,-1.8161898222324,1.01686121919585,-0.286381322957199
1580423498.4809,-1.68874647135119,0.717540245670254,-0.952407110704204
1580423498.51298,-1.81179522392615,-0.156008239871824,-0.903089951934081
1580423498.54506,-1.63894102388037,-0.200442511635003,0.707774471656368
1580423498.57714,-0.819104295414665,-0.172610055695429,0.378179598687723
1580423498.60922,0.294193942168306,0.506111238269629,-0.667734798199435
1580423498.6413,-0.0598153658350498,0.498298619058517,-0.0578622110322726
1580423498.67338,0.0661631189440754,0.717540245670254,-0.902113374532693
1580423498.70546,0.00659189745937283,0.355230029755091,0.034424353398947
1580423498.73754,-0.453864347295339,-0.481208514534218,-0.0749523155565726
1580423498.76962,-1.16871900511177,2.11892881666285,-0.901136797131304
1580423498.8017,-2.14773785000381,0.752697032120242,-0.309330891889831
1580423498.83378,-1.34352635996033,-0.872327763790341,0.776623178454262
1580423498.86586,-1.71657892729076,0.208743419546806,-0.538826581216144
1580423498.89794,-1.55397878995956,0.569588769359886,-0.322514686808576
1580423498.93002,-1.95925841153582,0.0266117341878385,-0.421149004348822
1580423498.9621,-1.65993743801022,-0.10424963759823,-0.978286411841001
1580423498.99418,-1.41481651026169,0.485603112840465,-0.586190585183489
1580423499.02626,-0.930434119172961,1.2429388876173,-0.715587090867475
1580423499.05834,-0.291752498664836,1.11696040283818,-0.911390859845884
1580423499.09042,0.296147096971083,0.452887769893948,-1.27272449835966
1580423499.1225,0.971938658731975,0.634531166552225,-0.888929579613947
1580423499.15458,0.187747005416952,0.598886091401543,-0.501716639963378
1580423499.18666,-0.135011825741969,0.0944838635843439,-0.382574196993973
1580423499.21874,-1.61013199053941,0.691172655832762,-0.952895399404898
1580423499.25082,-1.9529106584268,0.469977874418248,-0.555916685740444
1580423499.2829,-1.94705119401846,0.733165484092471,-0.633066300450141
1580423499.31498,-2.04910353246357,0.902113374532693,-0.40845349813077
1580423499.34706,-1.62624551766232,0.622812237735562,-0.417730983443962
1580423499.37914,-1.61403830014496,0.0554207675288012,-0.77076371404593
1580423499.41122,-1.6872816052491,-1.07154955367361,0.382085908293277
1580423499.4433,-0.644785229266803,0.922133211261158,0.468024719615471
1580423499.47538,0.449958037689782,-0.0695811398489354,-1.36012817578393
1580423499.50746,0.0212405584802013,1.17360189211871,0.397711146715494
1580423499.53954,-0.00708018616006711,0.468513008316165,-0.650644693675135
1580423499.57162,-0.11108567940795,0.325932707713434,-0.101319905394064
1580423499.60364,-0.642343785763332,0.280033569848172,-0.76734569314107
1580423499.63572,-0.651621271076523,0.632089723048754,-0.12475776302739
1580423499.6678,-2.29227130540932,-0.0246585793850613,-0.0759288929579611
1580423499.69988,-1.33327229724575,-0.0197756923781185,-0.214602883955138
1580423499.73196,-1.81521324483101,1.0896162355993,-0.355230029755093
1580423499.76404,-1.65896086060883,-0.132082093537804,-0.509529259174487
1580423499.79612,-1.71560234988937,-0.275638971541925,-0.903578240634776
1580423499.8282,-1.6023193713283,0.213626306553749,-0.639414053559166
1580423499.86028,-1.2946974898909,0.983169298847944,-0.423102159151599
1580423499.89236,-0.747325856412603,1.07057297627222,-0.953871976806287
1580423499.92444,-0.398687724116884,0.696543831540399,-0.844495307850767
1580423499.95652,0.391363393606468,0.410406652933546,-1.23805600061036
1580423499.9886,0.713145647364005,0.426031891355763,-1.13405050736248
1580423500.02068,0.204837109941252,0.586678873884185,0.0236820019836728
1580423500.05276,-0.286381322957199,0.356694895857174,-0.31958495460441
1580423500.08484,-2.62479591058213,1.11207751583123,-0.500251773861295
1580423500.11692,-1.70290684367132,0.297611963073166,-0.591073472190432
1580423500.149,-1.87673762111849,0.673594262607768,-0.745372701609826
1580423500.18108,-2.01443503471427,0.766857404440376,-0.0915541313801782
1580423500.21316,-1.52614633401999,0.6110933089189,-0.578866254673075
1580423500.24524,-1.42018768596933,0.277103837644006,-0.507087815671015
1580423500.27732,-1.18287937743191,-0.0715342946517126,-0.0554207675288012
1580423500.3094,-1.18776226443885,-1.16871900511177,0.128664072632944
1580423500.34148,0.226321812771801,0.854261081864653,-0.150148775463492
1580423500.37356,0.551522087434197,0.449958037689782,-0.775158312352179
1580423500.40564,0.0539559014267184,0.606698710612651,-0.492439154650187
1580423500.43772,-0.114991989013504,0.496345464255739,-0.293705653467613
1580423500.4698,-0.824475471122302,-0.0900892652780954,-0.504646372167544
1580423500.50188,-0.916273746852827,0.230228122377355,-0.348882276646068
1580423500.53396,-2.01492332341497,0.683360036621654,-0.0549324788281069
1580423500.56604,-1.39821469443809,-0.163332570382238,0.367925535973143
1580423500.59812,-1.82546730754559,0.940199893186847,-0.624765392538338
1580423500.6302,-1.71560234988937,-0.218997482261386,-0.371343556878005
1580423500.66228,-1.78005645838102,-0.412848096437019,-0.899183642328527
1580423500.69436,-1.61110856794079,0.35278858625162,-0.657480735484855
1580423500.72644,-1.2346379797055,1.01539635309377,-0.348882276646068
1580423500.75852,-0.696055542839703,1.25416952773327,-0.848401617456322
1580423500.7906,-0.306401159685665,0.783459220263982,-0.79810788128481
1580423500.82268,0.302983138780803,0.314213778896772,-1.13990997177081
1580423500.85476,0.742931258106356,0.3630426489662,-1.21217669947356
1580423500.8869,0.258060578316929,0.331303883421072,-0.315190356298162
1580423500.91898,-0.162844281681544,0.307377737087052,-0.270267795834288
1580423500.95106,-2.00222781719692,1.2346379797055,-0.566170748455024
1580423500.98314,-1.60524910353246,0.3117723353933,-0.493415732051576
1580423501.01522,-1.68825818265049,0.549080643930726,-0.874280918593119
1580423501.0473,-2.06619363698787,0.829846646829939,-0.024170290684367
1580423501.07938,-1.32545967803464,0.985122453650721,-0.694102388036926
1580423501.11146,-1.42848859388113,0.480720225833522,-0.922621499961853
1580423501.14354,-1.4997787441825,-0.128664072632944,-0.205325398641946
1580423501.17562,-1.08863965819791,-0.790783550774396,-0.432867933165484
1580423501.2077,-0.477790493629358,0.82203402761883,0.108155947203784
1580423501.23978,0.559334706645306,0.274662394140535,-1.05250629434653
1580423501.27186,0.245365072098878,1.37526512550545,-0.048096437018387
1580423501.30394,-0.0661631189440754,0.137941557946135,-0.144289311055161
1580423501.33602,-0.47681391622797,-0.0256351567864499,-0.447516594186313
1580423501.3681,-0.90406652933547,0.409430075532157,-0.475837338826581
1580423501.40018,-1.87917906462196,0.671152819104297,-0.519295033188373
1580423501.43226,-1.24391546501869,0.316166933699549,0.369390402075226
1580423501.46434,-1.88894483863584,0.3972228580148,-0.220950637064163
1580423501.49642,-1.90457007705806,-0.156984817273212,-0.631113145647364
1580423501.5285,-1.78738078889143,-0.0817883573662925,-0.898207064927139
1580423501.56059,-1.70583657587549,0.480231937132828,-0.509529259174487
1580423501.59266,-1.23805600061036,0.915785458152133,-0.669687953002212
1580423501.62474,-0.50757610437171,1.24245059891661,-0.927016098268101
1580423501.65683,-0.117433432516975,0.703379873350119,-0.760997940032045
1580423501.68891,0.590096894789045,0.156008239871824,-1.49294270237278
1580423501.72099,0.843518730449379,0.531013962005037,-0.664316777294575
1580423501.75307,0.199954222934309,0.456794079499502,-0.232181277180132
1580423501.78515,-0.557381551842527,0.343022812237734,-0.292240787365531
1580423501.81723,-2.68778515297169,1.14186312657359,-0.00708018616006711
1580423501.84931,-1.57106889448386,0.423590447852291,-1.06471351186389
1580423501.88139,-2.08230716411078,0.458258945601585,-0.558358129243915
1580423501.91347,-1.87038986800946,0.669687953002214,-0.399664301518273
1580423501.94555,-1.53444724193179,0.792736705577173,-0.656992446784161
1580423501.97763,-1.55593194476234,0.466559853513388,-0.306401159685665
1580423502.00971,-1.46657511253529,-0.321049820706493,0.104737926298924
1580423502.04179,-1.35036240177005,-0.837659266041047,0.499275196459905
1580423502.07387,0.134523537041275,0.751720454718853,-0.658945601586938
1580423502.10595,-0.00415045395590141,0.0437018387121384,-0.438239108873121
1580423502.13803,0.193606469825284,0.751720454718853,-0.584237430380712
1580423502.17017,0.00366216525520713,0.703868162050814,-0.225833524071106
1580423502.20225,-0.621835660334172,-0.250736247806516,-0.070557717250324
1580423502.23433,-0.920180056458381,1.0212558175021,-1.2087586785687
1580423502.26641,-2.11258106355383,0.374273289082169,-0.195559624628061
1580423502.29849,-1.45632104982071,-0.961196307316701,0.514900434882126
1580423502.33057,-1.64577706569009,0.982192721446555,-0.0432135500114441
1580423502.36265,-1.51491569390402,0.255130846112763,-0.429449912260624
1580423502.39473,-1.95046921492332,-0.490974288548104,-0.574471656366827
1580423502.42681,-1.67165636682689,-0.141359578850995,-0.858655680170902
1580423502.45889,-1.41237506675822,0.691172655832762,-0.511482413977264
1580423502.49097,-1.05299458304723,1.38210116731517,-0.773205157549402
1580423502.52305,-0.396734569314107,1.05397116044862,-0.97584496833753
1580423502.55513,0.606210421911957,0.53931486991684,-1.37087052719921
1580423502.58721,0.824963759822996,0.578377965972383,-0.802502479591059
1580423502.61929,0.204837109941252,0.429938200961317,-0.483161669336996
1580423502.65137,-0.195071335927366,0.0710460059510183,-0.328374151216908
1580423502.68345,-2.19754329747463,1.01783779659724,-0.943617914091707
1580423502.71553,-1.67458609903105,0.157961394674601,-0.467536430914778
1580423502.74761,-1.9953917753872,0.865980010681316,-0.426031891355764
1580423502.77969,-1.95046921492332,0.853284504463264,-0.273685816739148
1580423502.81177,-1.3029983978027,0.725841153582056,-0.834241245136187
1580423502.84385,-1.50514991989014,0.465094987411305,-0.539314869916838
1580423502.87593,-1.54665445944915,-0.380132753490502,0.237064164187075
1580423502.90801,-1.34743266956588,-1.06910811017014,0.653574425879302
1580423502.94009,0.0393072404058898,0.643320363164722,-0.488532845044633
1580423502.97217,0.178957808804455,0.458258945601585,-0.47681391622797
1580423503.00425,0.226810101472495,0.579354543373771,-0.598886091401541
1580423503.03633,-0.0114747844663157,0.453864347295337,-0.0886243991760125
1580423503.06841,-0.515388723582818,0.322514686808574,-0.649179827573052
1580423503.10049,-0.87672236209659,0.398199435416188,-0.427496757457847
1580423503.13257,-2.09353780422675,0.490485999847408,-0.311772335393302
1580423503.16465,-1.4914778362707,-0.226321812771801,0.106202792401007
1580423503.19673,-1.80105287251087,0.705333028152896,-0.184328984512092
1580423503.22881,-1.67458609903105,-0.00610360875867855,-0.47339589532311
1580423503.26089,-1.94216830701152,-0.369390402075227,-0.635996032654306
1580423503.29297,-1.67409781033036,0.191653315022506,-0.54517433432517
1580423503.32505,-1.14967574578469,0.906019684138247,-0.661387045090409
1580423503.35713,-0.49048599984741,1.13649195086595,-0.98609903105211
1580423503.38921,-0.252689402609294,0.600350957503625,-0.974380102235447
1580423503.42129,0.506111238269629,0.550545510032808,-1.23805600061036
1580423503.4534,0.715098802166782,0.695078965438316,-0.615976195925841
1580423503.48548,0.0861829556725411,0.418219272144654,-0.248294804303043
1580423503.51756,-0.442145418478676,0.147707331960021,-0.324467841611353
1580423503.54964,-2.95634393835355,0.922133211261158,-0.298588540474556
1580423503.58172,-1.80202944991226,0.215091172655832,-0.36743724727245
1580423503.6138,-1.91189440756848,0.571541924162663,-0.554451819638361
1580423503.64588,-1.84744029907683,0.935805294880598,-0.254642557412071
1580423503.67796,-1.27858396276799,0.977309834439613,-0.985610742351415
1580423503.71004,-1.53249408712901,0.171633478294041,-0.797619592584116
1580423503.74213,-1.31862363622492,-0.270267795834288,-0.183352407110704
1580423503.77421,-0.974868390936141,-1.74196993972686,0.0339360646982527
1580423503.80629,0.229739833676661,1.51540398260472,0.0222171358815899
1580423503.83837,0.817639429312582,-0.184817273212786,-0.700450141145952
1580423503.87045,0.0490730144197755,0.596444647898071,-0.2434119172961
1580423503.90253,-0.01196307316701,0.184328984512092,0.0456549935149155
1580423503.93461,-1.17164873731594,1.04518196383612,-1.37233539330129
1580423503.96669,-0.328374151216908,0.5427328908217,-0.0915541313801782
1580423503.99877,-2.73954375524529,-1.14283970397497,1.68630502784772
1580423504.03085,-1.53298237582971,0.665781643396659,-0.233646143282215
1580423504.06293,-1.70290684367132,0.516853589684903,-0.396734569314107
1580423504.09501,-1.84353398947128,-0.198977645532921,-0.547127489127947
1580423504.12709,-1.84744029907683,0.0202639810788128,-0.793224994277868
1580423504.15917,-1.53249408712901,0.185793850614175,-0.697520408941786
1580423504.19125,-1.12721446555276,1.16285954070344,-0.685313191424429
1580423504.22334,-0.436774242771039,1.24831006332494,-0.929457541771573
1580423504.25542,-0.0949721522850382,0.728282597085528,-0.966079194323644
1580423504.2875,0.781994354161899,0.302006561379415,-1.42507057297627
1580423504.31958,0.562752727550166,0.3459525444419,-0.44605172808423
1580423504.35166,0.118898298619058,0.258060578316929,-0.293705653467613
1580423504.38374,-0.510017547875181,0.0910658426794839,-0.242923628595406
1580423504.41582,-2.90556191348135,0.529549095902954,0.0432135500114441
1580423504.4479,-1.68337529564355,0.26392004272526,-0.378667887388419
1580423504.47998,-1.6877698939498,1.02174410620279,-0.159426260776684
1580423504.51206,-1.64968337529564,0.996841382467384,-0.303959716182193
1580423504.54414,-1.35573357747768,0.770275425345236,-0.697520408941786
1580423504.57622,-1.50661478599222,-0.0598153658350498,-0.638925764858472
1580423504.6083,-1.2942092011902,-0.546150911726558,-0.177004654001678
1580423504.64038,-1.02174410620279,-0.948012512397955,-0.0944838635843439
1580423504.67246,-0.113038834210727,1.81716639963378,-0.173586633096818
1580423504.70455,0.482185091935605,-0.0197756923781185,-0.94850080109865
1580423504.73666,-0.0373540856031127,0.58374914168002,-0.0505378805218584
1580423504.76874,-0.342534523537042,-0.183352407110704,0.100343327992675
1580423504.80082,-0.758556496528573,-0.118410009918364,-0.661387045090409
1580423504.8329,-0.448004882887007,1.87380788891432,-1.1833676661326
1580423504.86499,-2.35330739299611,-0.180910963607232,0.175051499198901
1580423504.89707,-1.29518577859159,-0.273685816739148,-0.358648050659953
1580423504.92915,-1.75173571374075,1.04469367513542,0.0451667048142212
1580423504.96123,-1.55153734645609,0.202883955138475,-0.587167162584878
1580423504.99331,-1.91628900587472,-0.258548867017625,-0.557869840543221
1580423505.02539,-1.83620965896086,-0.0847180895704582,-0.906996261539636
1580423505.05747,-1.66042572671092,0.823987182421607,-0.591561760891127
1580423505.08955,-0.954848554207675,1.37428854810407,-0.875257495994507
1580423505.12163,0.170168612191958,0.92457465476463,-1.34254978255894
1580423505.15371,0.630136568245977,0.314213778896772,-1.24147402151522
1580423505.18579,0.392339971007857,0.826428625925079,-0.810315098802167
1580423505.21787,0.129640650034332,0.476813916227968,-0.302006561379416
1580423505.24995,-0.214114595254443,0.0793469138628211,-0.374761577782865
1580423505.28203,-1.86892500190738,0.688242923628597,-0.895765621423667
1580423505.31412,-1.9778133821622,0.405523765926603,-0.328862439917602
1580423505.3462,-1.8074006256199,0.560311284046694,-0.115968566414892
1580423505.37828,-1.91970702677958,1.26588845654993,-0.048096437018387
1580423505.41036,-1.42800030518044,0.837659266041047,-0.942641336690318
1580423505.44244,-1.46657511253529,-0.0720225833524069,-1.18385595483329
1580423505.47452,-1.71804379339284,-0.534431982909895,0.477302204928662
1580423505.5066,-1.03883421072709,-0.618905928130006,0.727306019684139
1580423505.53868,0.0388189517051956,1.03102159151598,-0.777111467154956
1580423505.57076,0.222903791866941,0.284916456855115,-0.715587090867475
1580423505.60284,0.271732661936369,0.751720454718853,-0.774670023651485
1580423505.63492,-0.131593804837109,0.204837109941252,0.162355992980849
1580423505.667,-0.618905928130006,-0.221438925764858,-0.32983901731899
1580423505.69908,-0.90748455024033,1.45827420462348,-1.16237125200275
1580423505.73116,-2.41824979018845,0.471442740520331,-0.461676966506447
1580423505.76324,-1.22194247348745,-0.478767071030747,-0.445563439383536
1580423505.79533,-1.80349431601434,1.19069199664301,-0.000732433051041426
1580423505.82741,-1.44557869840543,0.355230029755091,-0.79127183947509
1580423505.85949,-2.02664225223163,-0.41187151903563,-0.584237430380712
1580423505.89157,-1.78493934538796,0.134035248340581,-0.717051956969557
1580423505.92365,-1.43239490348669,0.687266346227208,-0.502693217364767
1580423505.95573,-0.867933165484093,1.19850461585412,-0.81177996490425
1580423505.98781,-0.00317387655451284,0.800061036087587,-0.913344014648661
1580423506.01987,0.693125810635539,0.332768749523154,-1.09059281300069
1580423506.05195,0.540291447318229,0.703868162050814,-1.11744869153887
1580423506.08403,-0.000244144350347142,0.483161669336994,-0.318120088502328
1580423506.11611,-0.190188448920424,0.172610055695429,-0.179446097505149
1580423506.14819,-1.5251697566186,0.680430304417488,-0.860120546272984
1580423506.18027,-1.99392690928511,0.314702067597466,-0.554940108339055
1580423506.21235,-1.89089799343862,0.47583733882658,-0.414801251239796
1580423506.24443,-2.07156481269551,0.751720454718853,-0.0905775539787896
1580423506.27651,-1.53884184023804,0.777111467154956,-0.626230258640421
1580423506.30859,-1.46266880292973,0.618905928130008,-0.762462806134128
1580423506.34067,-1.39479667353323,0.138918135347524,-0.198001068131532
1580423506.37275,-1.40163271534295,-0.297611963073168,0.0866712443732354
1580423506.40483,-0.497810330357824,0.0871595330739297,-0.0749523155565726
1580423506.43691,0.2434119172961,0.141359578850995,-0.718028534370946
1580423506.469,0.130128938735027,0.943129625391013,0.0129396505683985
1580423506.50108,-0.0075684748607614,0.60083924620432,-0.209719996948195
1580423506.53316,-0.131593804837109,0.0187991149767299,-0.0749523155565726
1580423506.56524,-0.846936751354239,0.196047913328755,-1.02027924010071
1580423506.59732,-1.22145418478675,0.703868162050814,-0.839612420843824
1580423506.6294,-1.89578088044556,-0.583260852979324,0.423102159151597
1580423506.66148,-1.28102540627146,0.0876478217746239,-0.310795757991913
1580423506.69356,-1.73757534142061,1.09987029831388,-0.377203021286336
1580423506.72564,-1.76247806515602,-0.0319829098954756,-0.608651865415426
1580423506.75772,-1.76003662165255,-0.576913099870298,-0.949477378500038
1580423506.7898,-1.7219501029984,0.0769054703593497,-0.696055542839703
1580423506.82188,-1.46022735942626,1.35866330968185,-0.377203021286336
1580423506.85396,-0.80836194399939,1.28542000457771,-0.915297169451438
1580423506.88604,-0.198001068131532,1.16871900511177,-1.03346303501946
1580423506.91812,0.639902342259862,0.350835431448843,-1.34889753566796
1580423506.9502,0.646738384069582,0.302983138780803,-0.929457541771573
1580423506.98229,0.129152361333638,0.489021133745325,-0.151125352864881
1580423507.01437,-0.314213778896773,0.150148775463492,-0.256595712214848
1580423507.04645,-2.47928587777523,0.990981918059052,-0.53833829251545
1580423507.07853,-1.65163653009842,0.534431982909897,-0.402594033722439
1580423507.11061,-1.7219501029984,0.696055542839705,-0.578866254673075
1580423507.14269,-1.92263675898375,0.972915236133364,-0.190676737621118
1580423507.17477,-1.414328221561,0.90748455024033,-0.76734569314107
1580423507.20685,-1.50466163118944,0.230228122377355,-0.802990768291753
1580423507.23893,-1.25807583733883,-0.227786678873883,-0.0661631189440754
1580423507.27101,-0.913832303349356,-0.498298619058518,-0.560311284046692
1580423507.30316,-0.760021362630656,0.26733806363012,0.436285954070343
1580423507.33524,0.329839017318989,0.478278782330051,-0.648203250171663
1580423507.36732,0.56665903715572,1.33962005035477,0.0495613031204698
1580423507.3994,-0.173098344396124,-0.0280766002899213,-0.174074921797512
1580423507.43148,-0.844495307850767,-0.506111238269627,0.0183108262760356
1580423507.46356,-0.835217822537576,2.23904783703365,-1.78933394369421
1580423507.49565,-2.24246585793851,0.305424582284274,-0.0158693827725642
1580423507.52773,-1.28688487067979,-0.920180056458381,0.498298619058517
1580423507.55981,-1.64577706569009,0.548104066529337,-0.470466163118944
1580423507.59189,-1.68484016174563,0.133546959639887,-0.423102159151599
1580423507.62397,-1.85329976348516,-0.188235294117646,-0.590096894789044
1580423507.65605,-1.82888532845045,-0.00317387655451284,-0.84254215304799
1580423507.68813,-1.53298237582971,0.721446555275808,-0.470466163118944
1580423507.72021,-0.899183642328527,1.45876249332418,-1.00611886778058
1580423507.75229,-0.277103837644008,0.878675516899367,-0.941176470588236
1580423507.78437,0.680918593118182,0.449958037689782,-1.30836957351034
1580423507.81645,0.712657358663311,0.343511100938429,-1.02027924010071
1580423507.84853,0.0896009765774011,0.377691309987028,-0.332280460822462
1580423507.88061,-0.259525444419014,0.227298390173189,-0.172610055695429
1580423507.91269,-1.46071564812696,0.770275425345236,-0.668711375600823
1580423507.94477,-1.88796826123446,0.427496757457845,-0.360112916762036
1580423507.97686,-1.71657892729076,0.54956893263142,-0.512947280079347
1580423508.00894,-1.97195391775387,0.959243152513924,-0.190188448920424
1580423508.04102,-1.52321660181582,0.912367437247273,-0.637460898756389
1580423508.0731,-1.4655985351339,0.516365300984209,-0.779552910658428
1580423508.10518,-1.35817502098116,0.148195620660715,-0.302494850080111
1580423508.13726,-1.12428473334859,-0.417730983443962,-0.0427252613107498
1580423508.16934,-1.02760357061112,-0.55201037613489,0.692637521934845
1580423508.20142,0.240482185091935,0.629159990844588,-0.710215915159838
1580423508.2335,0.45874723430228,1.22926680399786,0.0729991607537954
1580423508.26558,-0.104737926298924,0.315678644998854,-0.296147096971085
1580423508.29766,-0.458747234302281,-0.527107652399481,0.220950637064163
1580423508.32974,-1.25709925993744,0.849866483558404,-1.11354238193332
1580423508.36182,-1.28249027237354,0.601327534905014,0.444586861982145
1580423508.3939,-1.64968337529564,-1.36452277409018,0.609628442816817
1580423508.42598,-1.50661478599222,0.860120546272984,-0.35718318455787
1580423508.45807,-1.54909590295262,0.317143511100937,-0.454840924696727
1580423508.49014,-1.95486381322957,-0.222415503166246,-0.34009308003357
1580423508.52223,-1.66872663462272,-0.0437018387121384,-0.82545204852369
1580423508.55431,-1.46657511253529,0.272709239337757,-0.530037384603647
1580423508.5864,-1.08522163729305,1.23268482490272,-0.858167391470207
1580423508.61848,-0.374761577782865,1.05641260395209,-0.908461127641718
1580423508.65056,0.0734874494544897,0.622323949034868,-1.15407034409094
1580423508.68264,1.00221255817502,0.590096894789045,-1.32301823453117
1580423508.71472,0.160891126878766,0.588632028686963,-0.534431982909895
1580423508.7468,-0.0817883573662925,0.288334477759975,-0.211184863050278
1580423508.77888,-0.620859082932784,0.191653315022506,-0.740489814602883
1580423508.81096,-2.68632028686961,0.162844281681544,-0.52124818799115
1580423508.84304,-1.8157015335317,0.142824444953078,-0.0339360646982527
1580423508.87512,-1.92703135729,0.903089951934081,-0.450446326390479
1580423508.9072,-1.84353398947128,0.686289768825819,-0.305912870984971
1580423508.93928,-1.43776607919432,0.900160219729916,-0.540779736018921
1580423508.97136,-1.31813534752422,0.208255130846112,-0.713145647364003
1580423509.00344,-1.24049744411383,-0.187258716716258,0.392828259708551
1580423509.03552,-0.91773861295491,-0.916273746852827,0.140871290150301
1580423509.06761,-0.247806515602349,0.413336385137711,-0.181399252307926
1580423509.09968,0.288334477759975,0.418219272144654,-1.35719844357977
1580423509.13177,0.271732661936369,0.773693446250096,-0.331303883421073
1580423509.16385,-0.0075684748607614,0.499275196459905,-0.113527122911421
1580423509.19593,-0.825940337224385,0.651621271076525,-0.829358358129245
1580423509.22801,-0.578377965972381,0.828381780727856,-0.429938200961319
1580423509.26009,-2.72880140383001,-0.593026626993209,0.389898527504386
1580423509.29217,-1.36403448538949,-0.0578622110322726,-0.579842832074464
1580423509.32425,-1.58620584420539,1.40651560234989,-0.325932707713436
1580423509.35633,-1.6701915007248,-0.0949721522850382,-0.237552452887769
1580423509.38841,-1.99734493018997,-0.404547188525216,-0.522713054093233
1580423509.42049,-1.60964370183871,0.0690928511482412,-0.871839475089647
1580423509.45257,-1.25319295033188,1.03883421072709,-0.441168841077287
1580423509.48465,-0.661387045090409,1.18727397573815,-1.0466468299382
1580423509.51673,0.0104982070649271,0.799572747386893,-1.01197833218891
1580423509.54881,0.942153047989624,0.606210421911957,-1.2946974898909
1580423509.58089,0.273197528038452,0.505622949568934,-0.598397802700847
1580423509.61298,-0.260013733119708,0.312260624093994,-0.186282139314869
1580423509.64506,-0.444098573281453,0.184328984512092,-0.325444419012742
1580423509.67714,-1.97878995956359,0.744396124208439,-0.96217288471809
1580423509.70922,-2.10818646524758,0.3972228580148,-0.0422369726100555
1580423509.7413,-1.82204928664073,0.857190814068819,-0.370366979476616
1580423509.77338,-1.8845502403296,0.740489814602885,-0.413336385137713
1580423509.80546,-1.62624551766232,0.57349507896544,-0.788342107270925
1580423509.83754,-1.51100938429847,0.0354009308003356,-0.546150911726558
1580423509.86966,-1.320088502327,-0.00708018616006711,-0.00903334096284425
1580423509.90174,-0.942153047989624,-1.27565423056382,0.0339360646982527
1580423509.93382,0.155031662470435,1.52224002441444,-0.285893034256505
1580423509.9659,0.401129167620354,-0.279545281147479,-0.874280918593119
1580423509.99798,-0.0114747844663157,0.436774242771037,-0.43237964446479
1580423510.03006,0.192141603723201,0.881116960402839,-0.275638971541925
1580423510.06215,-0.400640878919662,-0.0920424200808725,-0.451422903791867
1580423510.09423,-0.887953002212559,0.610605020218205,-0.599862668802929
1580423510.12631,-2.86405737392233,0.770275425345236,-0.298100251773862
1580423510.15839,-1.26442359044785,-0.417242694743267,-0.230716411078049
1580423510.19047,-1.79470511940185,1.35719844357977,-0.160402838178072
1580423510.22255,-1.65163653009842,0.0183108262760356,-0.0363775082017241
1580423510.25463,-1.8923628595407,-0.0666514076447697,-0.760021362630656
1580423510.28671,-1.72878614480812,-0.278568703746091,-1.01588464179446
1580423510.31879,-1.4480201419089,0.703379873350119,-0.301518272678722
1580423510.35088,-0.887464713511864,1.22682536049439,-0.857679102769513
1580423510.38296,-0.45288776989395,1.0300450141146,-0.823498893720913
1580423510.41504,0.552010376134891,0.60083924620432,-1.01979095140002
1580423510.44712,0.809826810101473,0.53589684901198,-1.34157320515755
1580423510.4792,-0.0666514076447697,0.467536430914777,-0.377203021286336
1580423510.51128,-0.311772335393302,0.0720225833524069,-0.234134431982909
1580423510.54336,-1.24879835202563,0.500251773861297,-0.655039291981383
1580423510.57544,-1.92361333638514,0.387457084000914,-0.479743648432136
1580423510.60752,-1.83376821545739,0.558846417944611,-0.442145418478676
1580423510.63961,-1.95877012283513,1.10475318532082,-0.113527122911421
1580423510.67169,-1.42507057297627,0.862073701075762,-0.768322270542459
1580423510.70377,-1.52077515831235,0.399176012817577,-0.503181506065461
1580423510.73585,-1.33473716334783,-0.189700160219729,-0.261966887922485
1580423510.76793,-1.38600747692073,-0.853772793163959,0.00708018616006711
1580423510.80001,-0.447028305485619,0.692149233234151,-0.0432135500114441
1580423510.83209,0.122316319523918,0.146242465857938,-0.90748455024033
1580423510.86417,0.118410009918364,1.43483634699016,0.00317387655451284
1580423510.89626,0.202883955138475,0.591561760891128,-0.347905699244679
1580423510.92834,-0.409918364232853,-1.14576943617914,0.428961623559928
1580423510.96042,-1.27467765316243,0.177981231403066,-1.4397192339971
1580423510.9925,-0.264408331425956,1.56765087357901,0.33569848172732
1580423511.02458,-1.99148546578164,-1.37428854810407,1.05055313954376
1580423511.05666,-1.4314183260853,0.531990539406426,-0.334233615625239
1580423511.08874,-1.54274814984359,0.679942015716794,-0.769298847943848
1580423511.12082,-1.72536812390326,-0.294682230869002,-0.712657358663309
1580423511.15289,-1.61989776455329,-0.163332570382238,-0.664805065995269
1580423511.18497,-1.63015182726787,0.398199435416188,-0.534431982909895
1580423511.21705,-1.19850461585412,1.17604333562219,-0.547615777828641
1580423511.24914,-0.544686045624475,1.09449912260624,-0.801037613488976
1580423511.28122,0.0866712443732354,0.55298695353628,-1.09596398870832
1580423511.3133,0.582772564278631,0.329839017318989,-1.19459830624857
1580423511.34538,0.174563210498206,0.531502250705731,-0.512458991378653
1580423511.37746,0.0563973449301898,0.543709468223089,-0.303471427481499
1580423511.40954,-0.43237964446479,0.274662394140535,-0.443610284580759
1580423511.44162,-2.31424429694057,0.816174563210499,-0.618905928130006
1580423511.4737,-1.96609445334554,0.417242694743265,-0.385015640497445
1580423511.50578,-1.85134660868238,0.689707789730679,-0.691660944533455
1580423511.53787,-1.89040970473793,0.565194171053637,-0.237064164187075
1580423511.56995,-1.61647974364843,0.645761806668194,-0.698985275043869
1580423511.60203,-1.41628137636378,-0.0246585793850613,-0.478278782330053
1580423511.63411,-1.26295872434577,-0.183840695811398,0.257572289616235
1580423511.66619,-1.01832608529793,-0.720469977874417,0.477302204928662
1580423511.69827,0.30493629358358,1.28249027237354,-0.88014038300145
1580423511.73035,0.0822766460669868,-0.0793469138628211,-0.526619363698787
1580423511.76243,0.0236820019836728,0.244876783398183,-0.467536430914778
1580423511.79451,-0.0563973449301898,0.680430304417488,-0.0383306630045013
1580423511.8266,-0.484626535439078,0.394293125810634,-0.598886091401541
1580423511.85868,-1.05641260395209,0.391851682307163,-0.383550774395362
1580423511.89076,-2.04470893415732,0.791760128175785,-0.0764171816586554
1580423511.92284,-1.34157320515755,-0.598397802700847,-0.0295414663920042
1580423511.95492,-1.6360112916762,1.14186312657359,-0.199954222934309
1580423511.987,-1.6531013962005,0.0285648889906156,-0.285404745555811
1580423512.01908,-1.7390402075227,-0.174074921797512,-0.522224765392538
1580423512.05116,-1.72439154650187,-0.0944838635843439,-0.666758220798046
1580423512.08325,-1.4651102464332,0.5769130998703,-0.323979552910659
1580423512.11533,-1.04859998474098,0.997817959868772,-0.860120546272984
1580423512.14741,-0.433844510566873,0.92115663385977,-1.08570992599374
1580423512.17949,0.377203021286334,0.499763485160599,-1.225848783093
1580423512.21157,0.837659266041047,0.761974517433433,-1.16090638590066
1580423512.24365,-0.0075684748607614,0.521248187991151,-0.400640878919662
1580423512.27573,-0.293705653467613,0.229251544975966,-0.274662394140536
1580423512.30781,-1.35671015487907,0.562264438849471,-0.733653772793163
1580423512.33989,-2.04226749065385,0.274662394140535,-0.740001525902189
1580423512.37198,-2.06424048218509,0.420660715648125,-0.134035248340581
1580423512.40406,-2.0632639047837,0.976821545738918,0.174563210498206
1580423512.43622,-1.48415350576028,0.929945830472267,-0.640390630960555
1580423512.4683,-1.3625696192874,0.408941786831463,-0.74586099031052
1580423512.50038,-1.5334706645304,-0.198001068131532,-0.0524910353246355
1580423512.53246,-1.28834973678187,-0.520271610589761,0.759533073929962
1580423512.56454,0.224368657969023,0.969985503929198,-0.571541924162661
1580423512.59662,0.037842374303807,-0.292729076066225,-0.41187151903563
1580423512.62871,0.0622568093385212,0.565682459754331,-0.484626535439078
1580423512.66079,0.102784771496147,0.297123674372472,-0.0813000686655982
1580423512.69287,-0.543221179522392,0.205325398641946,-0.429938200961319
1580423512.72495,-0.867444876783399,1.19606317235065,-1.19703974975204
1580423512.75703,-1.96560616464485,0.0231937132829785,-0.337651636530099
1580423512.78911,-1.51247425040055,-0.412359807736324,-0.0183108262760356
1580423512.82119,-1.54860761425193,1.00465400167849,-0.0373540856031127
1580423512.85327,-1.67946898603799,0.0935072861829553,-0.594491493095292
1580423512.88535,-1.78347447928588,-0.38452735179675,-0.560311284046692
1580423512.91743,-1.80202944991226,-0.0686045624475469,-0.623300526436255
1580423512.94952,-1.51247425040055,0.680918593118182,-0.419684138246739
1580423512.9816,-1.04567025253681,1.26149385824369,-0.720958266575112
1580423513.01368,-0.580819409475852,0.964614328221561,-0.93482871747921
1580423513.04576,0.53589684901198,0.510505836575877,-1.12965590905623
1580423513.07784,0.889417868314641,0.377691309987028,-1.19020370794232
1580423513.10992,0.070557717250324,0.442633707179368,-0.453376058594644
1580423513.142,-0.23999389639124,0.230228122377355,-0.137941557946135
1580423513.17408,-1.55446707866026,0.560799572747388,-0.702403295948729
1580423513.20616,-2.03396658274205,0.299565117875943,-0.620859082932784
1580423513.23825,-2.07937743190661,0.593026626993211,-0.00317387655451284
1580423513.27033,-1.93240253299764,1.01588464179446,0.0720225833524069
1580423513.30241,-1.32643625543603,0.927016098268101,-0.712657358663309
1580423513.33449,-1.44118410009918,0.399176012817577,-0.488532845044633
1580423513.36657,-1.48464179446098,-0.505134660868238,-0.398687724116884
1580423513.39865,-1.30739299610895,-1.02760357061112,0.368413824673837
1580423513.43073,0.131105516136415,0.935317006179904,-0.282963302052339
1580423513.46281,0.588632028686963,-0.0139162279697871,-0.892835889219501
1580423513.49489,0.0476081483176927,0.903578240634776,-0.277103837644008
1580423513.52698,0.0715342946517126,0.471931029221025,-0.153566796368352
1580423513.55906,-0.457770656900893,-0.326909285114825,-0.286869611657893
1580423513.59114,-1.38747234302281,0.450446326390477,-0.40845349813077
1580423513.62322,-1.74831769283589,1.09694056610971,-0.646738384069581
1580423513.6553,-1.45094987411307,-0.319096665903716,0.357671473258563
1580423513.68738,-1.86160067139696,0.973891813534753,-0.0627450980392155
1580423513.71945,-1.7820096131838,0.343022812237734,-0.402594033722439
1580423513.75153,-1.87331960021363,-0.304936293583582,-0.827893492027162
1580423513.78361,-1.76247806515602,-0.186282139314869,-0.685801480125123
1580423513.8157,-1.43288319218738,0.797619592584116,-0.485114824139773
1580423513.84778,-0.84254215304799,1.1833676661326,-0.833264667734799
1580423513.87986,-0.44605172808423,1.00904859998474,-0.776623178454262
1580423513.91194,0.159426260776684,0.436285954070343,-0.96559090562295
1580423513.94402,0.882581826504921,0.376226443884946,-1.37331197070268
1580423513.9761,0.330815594720377,0.505622949568934,-0.54517433432517
1580423514.00819,-0.135500114442664,0.226321812771801,0.0549324788281069
1580423514.04027,-0.864026855878539,0.42456702525368,-0.557869840543221
1580423514.07235,-1.93679713130388,0.402594033722437,-0.80152590218967
1580423514.10443,-2.08523689631495,0.237552452887769,-0.306889448386359
1580423514.13651,-2.16043335622187,0.898695353627833,-0.136964980544747
1580423514.16859,-1.67263294422827,0.949477378500038,-0.474372472724498
1580423514.20068,-1.55886167696651,0.838635843442436,-0.696543831540398
1580423514.23276,-1.48805981536584,0.251224536507209,-0.280033569848174
1580423514.26484,-1.21022354467079,-0.408941786831464,-0.0607919432364383
1580423514.29692,-1.41921110856794,-1.44264896620127,0.839612420843824
1580423514.329,0.360601205462729,0.719005111772336,-0.611093308918898
1580423514.36108,0.632089723048754,0.699961852445259,-0.215091172655832
1580423514.39316,0.107179369802395,0.3288624399176,-0.543221179522392
1580423514.42525,-0.129152361333638,0.23315785458152,0.138429846646829
1580423514.45733,-1.17360189211871,0.0925307087815668,-0.824963759822996
1580423514.48941,-0.39819943541619,1.4651102464332,-0.905043106736859
1580423514.52149,-2.65214007782101,-1.1408865491722,1.01197833218891
1580423514.55357,-1.42507057297627,0.0202639810788128,-0.402594033722439
1580423514.58565,-1.62722209506371,0.895765621423667,-0.232181277180132
1580423514.61774,-1.72439154650187,0.0612802319371326,-0.430426489662013
1580423514.64982,-1.89675745784695,-0.268802929732205,-0.499275196459907
1580423514.6819,-1.67800411993591,-0.0910658426794839,-0.787365529869536
1580423514.71398,-1.40944533455406,0.760509651331351,-0.445075150682841
1580423514.74606,-0.909925993743801,1.21657129777981,-1.00953688868544
1580423514.77814,-0.443121995880064,0.773693446250096,-0.903578240634776
1580423514.81023,0.710215915159839,0.875257495994507,-1.32155336842908
1580423514.84231,0.586190585183491,0.702403295948731,-0.862073701075762
1580423514.87439,-0.0725108720531011,0.283451590753032,-0.318120088502328
1580423514.90647,-0.374761577782865,0.162355992980849,-0.445075150682841
1580423514.93855,-2.03738460364691,0.605722133211263,-0.940199893186847
1580423514.97063,-1.96755931944762,0.194583047226672,-0.216067750057221
1580423515.00284,-1.79177538719768,0.526131074998094,0.000244144350347142
1580423515.03492,-1.98318455786984,0.973403524834058,0.180422674906538
1580423515.067,-1.44948500801099,0.91432059205005,-0.878187228198673
1580423515.09908,-1.35768673228046,0.213626306553749,-1.05299458304723
1580423515.13116,-1.46462195773251,-0.626718547341115,0.270267795834286
1580423515.16325,-1.66970321202411,-0.98951705195697,1.11744869153887
1580423515.19533,0.366948958571754,0.809826810101473,-1.15700007629511
1580423515.22741,0.155031662470435,0.320073243305103,0.0607919432364383
1580423515.25949,0.130617227435721,0.360601205462729,-0.757579919127185
1580423515.29157,-0.0520027466239412,0.59742122529946,-0.130617227435721
1580423515.32365,-0.90064850843061,-0.0358892195010299,-0.56910048065919
1580423515.35573,-0.807873655298696,0.974380102235447,-0.535408560311284
1580423515.38782,-2.06912336919203,-0.491462577248798,0.0324711985961699
1580423515.4199,-1.57155718318456,-0.295658808270391,-0.173098344396124
1580423515.45198,-1.71413748378729,0.971450370031281,-0.193606469825284
1580423515.48406,-1.76980239566644,-0.0432135500114441,-0.444586861982147
1580423515.51614,-1.87771419851988,-0.162844281681544,-0.454840924696727
1580423515.54822,-1.62136263065537,0.0520027466239412,-0.747814145113297
1580423515.58031,-1.35622186617838,0.740489814602885,-0.583749141680018
1580423515.61239,-0.85963225757229,1.02272068360418,-1.06910811017014
1580423515.64447,-0.0109864957656214,0.844495307850767,-1.19069199664301
1580423515.67655,0.771740291447319,0.544197756923783,-1.33376058594644
1580423515.70863,0.535408560311286,0.901625085831999,-0.477302204928664
1580423515.74072,-0.170656900892652,0.495368886854351,-0.314702067597468
1580423515.7728,-0.215091172655832,0.138429846646829,-0.314702067597468
1580423515.80488,-2.15603875791562,0.509529259174489,-0.998306248569467
1580423515.83696,-2.07693598840314,0.226321812771801,-0.379156176089113
1580423515.86904,-1.83620965896086,0.727306019684139,-0.037842374303807
1580423515.90112,-1.87478446631571,1.08375677119097,-0.276127260242619
1580423515.9332,-1.50173189898528,0.891371023117419,-0.935805294880598
1580423515.96529,-1.61452658884565,0.201419089036392,-0.643808651865415
1580423515.99737,-1.44264896620127,-0.420172426947433,0.259037155718318
1580423516.02945,-1.42409399557488,-1.13160906385901,0.885999847409781
1580423516.06153,0.43823910887312,1.18873884184024,-1.01637293049516
1580423516.09361,0.301029983978026,0.0554207675288012,-0.151613641565575
1580423516.12569,0.00610360875867855,0.176516365300984,-0.600350957503624
1580423516.15778,-0.11450370031281,0.377203021286334,0.0642099641412983
1580423516.18986,-0.649179827573052,0.337651636530097,-0.541268024719615
1580423516.22194,-0.500251773861295,1.68142214084077,-1.22389562829023
1580423516.25402,-2.58963912413214,-0.46655985351339,0.225345235370412
1580423516.28616,-1.57106889448386,-0.310307469291219,-0.522713054093233
1580423516.31824,-1.79275196459907,0.988052185854887,-0.0393072404058898
1580423516.35033,-1.59890135042344,0.210208285648889,-0.468513008316167
1580423516.38241,-2.003692683299,-0.416266117341879,-0.400640878919662
1580423516.41449,-1.74831769283589,0.118410009918364,-0.596932936598764
1580423516.44657,-1.4055390249485,0.597909514000154,-0.46655985351339
1580423516.47865,-0.685801480125123,1.08473334859235,-1.15602349889372
1580423516.51074,0.00170901045242999,0.819592584115359,-1.16383611810483
1580423516.54282,0.496833752956434,0.691660944533457,-1.0300450141146
1580423516.5749,0.199954222934309,0.517830167086291,-0.773693446250096
1580423516.60698,0.0695811398489354,0.244876783398183,-0.481208514534218
1580423516.63907,-0.109132524605172,0.248783093003738,-0.592538338292515
1580423516.67115,-1.03297474631876,0.657480735484857,-0.737560082398717
1580423516.70323,-2.35574883649958,0.62476539253834,-0.371831845578699
1580423516.73531,-1.99734493018997,0.480231937132828,-0.255130846112765
1580423516.76739,-2.10281528953994,0.630624856946671,-0.438239108873121
1580423516.79948,-1.78640421149004,0.699473563744565,-0.32300297550927
1580423516.83156,-1.567650873579,0.501228351262686,-0.664316777294575
1580423516.86364,-1.34303807125963,0.0500495918211641,-0.555916685740444
1580423516.89572,-1.10914778362707,-0.108155947203784,0.656992446784162
1580423516.9278,-1.07545586327916,-0.555916685740444,0.76734569314107
1580423516.95989,0.466071564812694,0.537361715114063,-1.16676585030899
1580423516.99197,0.0490730144197755,0.77076371404593,0.247806515602349
1580423517.02405,0.0817883573662925,0.196047913328755,-0.51441214618143
1580423517.05613,-0.00708018616006711,0.601327534905014,-0.141359578850995
1580423517.08821,-0.993423361562524,-0.106691081101701,-0.85963225757229
1580423517.1203,-0.74586099031052,1.21412985427634,-0.812756542305639
1580423517.15238,-1.89089799343862,-1.00221255817502,0.464606698710611
1580423517.18446,-1.60036621652552,-0.166750591287098,-0.505622949568933
1580423517.21654,-1.67800411993591,1.05494773785,-0.120851453421835
1580423517.24863,-1.78542763408866,0.194583047226672,-0.400640878919662
1580423517.28071,-1.90066376745251,-0.0114747844663157,-0.634042877851529
1580423517.31279,-1.81911955443656,-0.236087586785686,-0.834729533836882
1580423517.34487,-1.45534447241932,0.934340428778516,-0.672129396505683
1580423517.37695,-0.511482413977264,1.15016403448539,-1.16481269550622
1580423517.40904,0.199954222934309,0.817639429312582,-0.961684596017395
1580423517.44112,0.515877012283514,0.459235523002974,-1.02223239490349
1580423517.4732,0.200930800335698,0.496345464255739,-0.542244602121004
1580423517.50528,0.206790264744029,0.361577782864117,-0.404547188525216
1580423517.53736,-0.219974059662775,0.144777599755855,-0.574959945067521
1580423517.56946,-1.99734493018997,0.856702525368124,-0.748790722514686
1580423517.60154,-1.96511787594415,0.425055313954374,-0.32983901731899
1580423517.63362,-1.83767452506294,0.659433890287634,-0.391851682307164
1580423517.6657,-2.17801174944686,0.821545738918136,-0.497810330357824
1580423517.69779,-1.76736095216297,0.549080643930726,-0.71168078126192
1580423517.72987,-1.58864728770886,0.0407721065079727,-0.488532845044633
1580423517.76195,-1.31862363622492,-0.264896620126651,0.100343327992675
1580423517.79403,-1.18287937743191,-0.580331120775158,0.469977874418248
1580423517.82611,0.338139925230792,1.39919127183947,-0.639902342259861
1580423517.8582,0.445563439383534,-0.310307469291219,-0.342046234836348
1580423517.89028,-0.121828030823224,0.183352407110704,-0.563241016250858
1580423517.92236,-0.0949721522850382,0.612069886320288,-0.0866712443732354
1580423517.95444,-0.601815823605707,0.0837415121690697,-0.116945143816281
1580423517.98652,-1.0207675288014,0.631113145647365,-0.734142061493857
1580423518.01861,-2.1062333104448,0.452887769893948,-0.0373540856031127
1580423518.05069,-1.4055390249485,-0.85279621576257,0.0407721065079727
1580423518.08277,-1.43434805828946,0.87330434119173,-0.44946974898909
1580423518.11485,-1.59060044251163,0.218020904859998,-0.111573968108644
1580423518.14693,-1.9778133821622,-0.168703746089875,-0.510505836575875
1580423518.17902,-1.83523308155947,0.00903334096284425,-0.867444876783399
1580423518.2111,-1.51589227130541,0.594491493095294,-0.378667887388419
1580423518.24318,-0.94508278019379,1.31422903791867,-0.903089951934081
1580423518.27526,-0.384039063096056,0.961684596017395,-1.15944151979858
1580423518.30734,0.343999389639123,0.561287861448083,-0.822522316319525
1580423518.33943,0.703868162050814,0.385503929198137,-0.981704432745861
1580423518.37151,0.199465934233615,0.446540016784922,-0.616464484626535
1580423518.40359,-0.198977645532921,0.182375829709315,-0.405523765926604
1580423518.43567,-0.988540474555581,0.34937056534676,-0.730235751888303
1580423518.46776,-2.13650720988785,0.465583276112,-0.398687724116884
1580423518.49984,-1.8157015335317,0.317631799801632,-0.309819180590525
1580423518.53192,-1.9441214618143,1.04518196383612,-0.240970473792629
1580423518.564,-1.39479667353323,1.11940184634165,-0.467536430914778
1580423518.59608,-1.58815899900816,0.59742122529946,-0.705821316853589
1580423518.62817,-1.40212100404364,0.0227054245822842,-0.246341649500266
1580423518.66025,-1.13942168307011,-0.43579766536965,-0.146242465857938
1580423518.69233,-0.741954680704966,-0.583749141680018,0.24682993820096
1580423518.72441,-0.142336156252384,1.27028305485618,-0.397711146715496
1580423518.75649,0.23657587548638,0.773693446250096,-0.416754406042573
1580423518.78858,0.132570382238498,0.510017547875183,-0.457282368200199
1580423518.82066,-0.253665980010682,-0.572030212863355,0.243900205996795
1580423518.85284,-0.832776379034105,-0.554451819638361,-0.447516594186313
1580423518.88493,-0.47681391622797,3.30400549324788,-1.82253757534142
1580423518.91701,-2.16336308842603,-0.589120317387655,-0.324467841611353
1580423518.94909,-1.62624551766232,-0.204348821240558,-0.161867704280155
1580423518.98117,-1.62722209506371,1.34010833905547,0.482185091935605
1580423519.01326,-1.51491569390402,0.351323720149537,-0.952407110704204
1580423519.04534,-1.75808346684978,-0.80836194399939,-0.814709697108416
1580423519.07742,-1.78689250019074,-0.0231937132829785,-0.741466392004272
1580423519.1095,-1.45387960631724,0.764904249637599,-0.414801251239796
1580423519.14159,-0.98951705195697,1.17262531471733,-0.664805065995269
1580423519.17367,-0.567635614557107,1.1062180514229,-0.750743877317465
1580423519.20575,0.140871290150301,0.510017547875183,-1.29225604638743
1580423519.23783,0.76734569314107,0.540291447318229,-1.42458228427558
1580423519.26992,0.233646143282215,0.584725719081408,-0.358648050659953
1580423519.302,-0.209231708247501,0.222903791866941,-0.0334477759975584
1580423519.33408,-0.874280918593119,0.358648050659951,-0.408941786831464
1580423519.36616,-1.83913939116503,0.521736476691846,-0.677988860914015
1580423519.39825,-1.86208896009766,0.283939879453726,-0.565194171053635
1580423519.43033,-2.05593957427329,0.788342107270925,-0.204348821240558
1580423519.46241,-1.80056458381018,0.716075379568171,-0.441168841077287
1580423519.49449,-1.64040588998245,0.461676966506445,-0.648691538872358
1580423519.52658,-1.43288319218738,-0.0280766002899213,-0.302983138780805
1580423519.55866,-1.00758373388266,-0.203860532539863,0.319096665903714
1580423519.59074,-1.16823071641108,-0.349370565346762,0.566170748455026
1580423519.62282,0.375738155184251,0.40747692072938,-1.0041657129778
1580423519.65491,0.225833524071106,1.07301441977569,0.0871595330739297
1580423519.68699,0.0832532234683754,0.631113145647365,-0.575448233768215
1580423519.71907,-0.0295414663920042,0.0729991607537954,0.00708018616006711
1580423519.75115,-1.1067063401236,-0.487556267643244,-0.829846646829939
1580423519.78324,-0.0725108720531011,2.2771343556878,-0.73218890669108
1580423519.81532,-2.7556572823682,-1.45876249332418,0.798596169985505
1580423519.8474,-1.45534447241932,0.209719996948195,-0.634531166552224
1580423519.87949,-1.7473411154345,0.956313420309758,-0.145754177157244
1580423519.91157,-1.77810330357824,-0.218997482261386,-0.343022812237736
1580423519.94365,-1.9358205539025,0.0261234454871442,-0.525154497596704
1580423519.97573,-1.5080796520943,0.129152361333638,-0.948012512397955
1580423520.00782,-1.26295872434577,1.0207675288014,-0.479743648432136
1580423520.0399,-0.759533073929962,1.00172426947433,-0.839612420843824
1580423520.07198,-0.0710460059510183,0.564217593652248,-0.841565575646602
1580423520.10406,0.682383459220265,0.530525673304343,-1.28981460288396
1580423520.13617,0.510994125276572,0.802502479591059,-0.646250095368886
1580423520.16825,-0.0651865415426869,0.426520180056457,-0.143312733653772
1580423520.20033,-0.167727168688486,0.170168612191958,-0.220950637064163
1580423520.23242,-2.17215228503853,1.03248645761807,-1.19948119325551
1580423520.2645,-1.88894483863584,0.181887541008621,-0.390386816205082
1580423520.29658,-1.89626916914626,0.526619363698789,-0.339116502632182
1580423520.32866,-1.82253757534142,0.931898985275044,-0.0886243991760125
1580423520.36075,-1.55837338826581,0.970473792629893,-0.586190585183489
1580423520.39283,-1.53786526283665,0.666269932097354,-0.67750057221332
1580423520.42491,-1.37819485770962,-0.0695811398489354,-0.372808422980087
1580423520.457,-1.3454795147631,-0.676035706111238,0.106202792401007
1580423520.48908,-0.399664301518273,0.5427328908217,-0.280033569848174
1580423520.52116,0.341069657434957,-0.0134279392690928,-0.84596017395285
1580423520.55324,0.124269474326695,0.947035934996567,-0.282963302052339
1580423520.58533,-0.124269474326695,0.37671473258564,0.0690928511482412
1580423520.61741,-0.469001297016861,-0.177004654001678,0.292240787365529
1580423520.64949,-0.81519798580911,0.645761806668194,-1.52565804531929
1580423520.68157,-0.656992446784161,0.585214007782103,-0.280033569848174
1580423520.71365,-1.88992141603723,-1.26393530174716,1.08326848249027
1580423520.74574,-1.41823453116655,0.723887998779279,-0.404058899824522
1580423520.77782,-1.7473411154345,0.575936522468911,-0.49048599984741
1580423520.8099,-1.80007629510948,-0.49732204165713,-0.507087815671015
1580423520.84198,-1.96023498893721,-0.0905775539787896,-0.622323949034866
1580423520.87407,-1.7727321278706,0.363530937666894,-0.596932936598764
1580423520.90615,-1.31081101701381,1.10572976272221,-0.557381551842527
1580423520.93823,-0.417242694743267,1.06276035706111,-1.24391546501869
1580423520.97032,0.380621042191194,0.682871747920959,-1.27956054016938
1580423521.0024,0.668223086900131,0.492927443350879,-0.866956588082704
1580423521.03448,0.255130846112763,0.588632028686963,-0.53150225070573
1580423521.06656,-0.060303654535744,0.250736247806515,-0.249271381704432
1580423521.09865,-0.682383459220263,0.153566796368352,-0.307866025787748
1580423521.13073,-2.22977035172045,0.332768749523154,-0.795178149080645
1580423521.16281,-1.95486381322957,0.541268024719617,-0.170656900892652
1580423521.19489,-1.91482413977264,0.667734798199437,-0.375738155184253
1580423521.22698,-1.73269245441367,0.5769130998703,-0.618905928130006
1580423521.25906,-1.63845273517967,0.574959945067523,-0.606210421911955
1580423521.29114,-1.51296253910124,0.264896620126649,-0.283939879453728
1580423521.32322,-1.2346379797055,-0.122316319523918,0.44165712977798
1580423521.35531,-1.17897306782635,-1.01344319829099,0.429449912260623
1580423521.38739,0.516365300984209,0.707286182955674,-0.952407110704204
1580423521.41952,0.252689402609292,0.480720225833522,-0.352788586251622
1580423521.45161,-0.0573739223315783,0.0798352025635154,-0.458258945601587
1580423521.48369,-0.137941557946135,0.606698710612651,0.0622568093385212
1580423521.51577,-0.723399710078583,0.478767071030745,-0.928969253070878
1580423521.54785,-0.513923857480735,1.17848477912566,-0.706309605554283
1580423521.57994,-2.24539559014267,-1.41774624246586,1.04469367513542
1580423521.61202,-1.53981841763943,-0.0510261692225527,-0.570077058060578
1580423521.6441,-1.63796444647898,0.987075608453498,-0.332768749523156
1580423521.67618,-1.59450675211719,0.130617227435721,-0.49048599984741
1580423521.70827,-2.06765850308995,-0.192141603723201,-0.348882276646068
1580423521.74035,-1.71950865949493,0.080811779964904,-0.697520408941786
1580423521.77243,-1.23854428931105,1.07692072938125,-0.584237430380712
1580423521.80451,-0.436285954070344,1.21901274128328,-1.07692072938125
1580423521.8366,0.312260624093994,0.586190585183491,-1.15992980849927
1580423521.86868,0.418219272144654,0.396246280613411,-0.944594491493095
1580423521.90076,0.0720225833524069,0.318120088502326,-0.500251773861295
1580423521.93285,-0.0681162737468526,0.366948958571754,-0.483161669336996
1580423521.96493,-0.124269474326695,0.559822995346,-0.512458991378653
1580423521.99701,-1.48024719615473,0.549080643930726,-0.619394216830701
1580423522.02909,-2.24588387884337,0.428473334859234,-0.477302204928664
1580423522.06118,-2.15506218051423,0.280521858548866,-0.45972381170367
1580423522.09326,-2.31375600823987,0.702403295948731,-0.284916456855116
1580423522.12534,-1.97927824826429,0.760997940032045,-0.392339971007859
1580423522.15742,-1.55593194476234,0.4143129625391,-0.343999389639125
1580423522.18951,-1.149187457084,-0.126222629129472,-0.171633478294041
1580423522.22159,-1.1574883649958,-0.281498435950256,0.62134737163348
1580423522.25367,-0.0549324788281069,0.737560082398719,-0.0720225833524069
1580423522.28575,0.661875333791105,-0.35034714274815,-0.884046692607004
1580423522.31784,-0.0339360646982527,0.568612191958497,-0.318608377203022
1580423522.34992,-0.0827649347676811,-0.0554207675288012,-0.112062256809338
1580423522.382,-0.0778820477607383,1.2263370717937,-0.845471885252156
1580423522.41408,-0.995376516365301,0.891371023117419,-0.694102388036926
1580423522.44617,-2.28006408789197,-0.257084000915542,-0.151613641565575
1580423522.47825,-1.60280766002899,-0.732677195391775,-0.0974135957885096
1580423522.51033,-1.82058442053864,0.61792935072862,-0.209231708247501
1580423522.54241,-1.36940566109712,0.517341878385597,-0.426031891355764
1580423522.5745,-2.04763866636149,-0.160402838178072,-0.233646143282215
1580423522.60658,-1.92898451209278,-0.060303654535744,-0.693614099336232
1580423522.63866,-1.61550316624704,0.371343556878003,-0.587655451285572
1580423522.67074,-1.09059281300069,1.15504692149233,-0.936293583581293
1580423522.70288,-0.0324711985961699,0.958266575112535,-1.09987029831388
1580423522.73496,0.517830167086291,0.716563668268865,-1.27418936446174
1580423522.76705,0.469977874418248,0.514900434882126,-0.965102616922255
1580423522.79913,0.0422369726100555,0.394781414511328,-0.581795986877241
1580423522.83121,-0.154055085069047,0.332768749523154,-0.308354314488442
1580423522.86329,-0.976821545738918,0.333257038223849,-0.54175631342031
1580423522.89538,-2.11844052796216,0.597909514000154,-0.578377965972381
1580423522.92746,-2.00271610589761,0.421637293049514,-0.0202639810788128
1580423522.95954,-2.14480811779965,0.833264667734799,-0.402594033722439
1580423522.99162,-1.84060425726711,0.672617685206379,-0.319096665903716
1580423523.02371,-1.56179140917067,0.294193942168306,-0.802502479591059
1580423523.05579,-1.40993362325475,-0.363530937666896,-0.594979781795987
1580423523.08787,-1.53298237582971,-1.37624170290684,1.12086671244373
1580423523.11995,0.252201113908598,1.69997711146716,-0.176028076600289
1580423523.15204,0.685801480125125,-0.603280689707789,-0.579842832074464
1580423523.18412,-0.157961394674601,0.498786907759211,-0.549568932631418
1580423523.2162,-0.144777599755855,0.578377965972383,-0.192141603723201
1580423523.24828,-0.199954222934309,0.0314946211947813,-0.0173342488746471
1580423523.28037,-1.32643625543603,0.685801480125125,-0.97242694743267
1580423523.31245,-1.68581673914702,0.909925993743801,-0.0466315709163041
1580423523.34453,-1.74050507362478,-1.33962005035477,0.642343785763334
1580423523.37661,-1.70974288548104,0.533455405508509,-0.412848096437019
1580423523.4087,-1.45876249332418,0.464606698710611,-0.0466315709163041
1580423523.44078,-1.9441214618143,0.0144045166704814,-0.190188448920424
1580423523.47286,-1.70974288548104,-0.158449683375295,-1.09205767910277
1580423523.50494,-1.4309300373846,0.303959716182192,-0.536873426413367
1580423523.53703,-0.870862897688259,1.24879835202563,-1.04078736552987
1580423523.56911,-0.00903334096284425,0.858655680170902,-1.02565041580835
1580423523.60119,0.809826810101473,0.820569161516747,-1.54665445944915
1580423523.63328,0.426520180056457,0.964126039520867,-0.579354543373769
1580423523.66536,-0.101319905394064,0.378667887388417,-0.194583047226672
1580423523.69744,-0.164797436484321,-0.0393072404058898,-0.36401922636759
1580423523.72952,-1.87820248722057,0.676523994811934,-1.1403982604715
1580423523.76161,-2.24930189974823,0.162355992980849,-0.248783093003738
1580423523.79369,-1.88845654993515,0.562752727550166,-0.228274967574578
1580423523.82577,-1.97488364995804,0.952895399404898,-0.126710917830167
1580423523.85785,-1.49196612497139,0.752697032120242,-0.68433661402304
1580423523.88994,-1.41676966506447,0.497810330357822,-0.80494392309453
1580423523.92202,-1.45778591592279,-0.327397573815519,0.305912870984969
1580423523.9541,-1.39528496223392,-0.828381780727856,0.88355840390631
1580423523.98617,0.402105745021743,0.671641107804991,-1.04469367513542
1580423524.01826,-0.0944838635843439,0.297123674372472,-0.125246051728084
1580423524.05034,0.067139696345464,0.288334477759975,-0.829846646829939
1580423524.08242,-0.0607919432364383,0.617441062027925,0.163332570382238
1580423524.11451,-0.738536659800106,-0.352788586251622,0.171633478294041
1580423524.14659,-0.722911421377889,2.43533989471275,-2.27615777828641
1580423524.17867,-2.74003204394598,-0.486579690241856,0.630624856946671
1580423524.21076,-1.47487602044709,-1.23561455710689,-0.316655222400245
1580423524.24284,-1.60866712443732,0.747814145113299,-0.0754406042572668
1580423524.27492,-1.42458228427558,0.520271610589763,-0.353276874952316
1580423524.30701,-1.9783016708629,-0.132570382238498,-0.231204699778743
1580423524.33909,-1.85476462958724,-0.0681162737468526,-0.906507972838941
1580423524.37117,-1.61647974364843,0.276615548943312,-0.592050049591821
1580423524.40325,-1.05836575875486,1.41188677805753,-0.89381246662089
1580423524.43534,-0.198001068131532,1.11207751583123,-1.12867933165484
1580423524.46742,0.368902113374531,0.519295033188374,-1.19703974975204
1580423524.4995,0.627695124742505,0.709239337758451,-0.985610742351415
1580423524.53159,0.0817883573662925,0.598397802700848,-0.328862439917602
1580423524.56367,-0.0920424200808725,0.196536202029449,-0.305424582284276
1580423524.59575,-0.953383688105593,0.378667887388417,-0.724864576180666
1580423524.62784,-2.10672159914549,0.297611963073166,-0.626718547341115
1580423524.65992,-1.93826199740597,0.178957808804455,-0.149172198062104
1580423524.692,-2.03006027313649,1.07350270847639,-0.0920424200808725
1580423524.72408,-1.63356984817273,0.713633936064699,-0.571541924162661
1580423524.75617,-1.45387960631724,0.325932707713434,-1.03102159151598
1580423524.78825,-1.5251697566186,-0.421149004348822,0.0417486839093613
1580423524.82033,-1.33424887464714,-0.0349126420996413,0.956313420309758
1580423524.85242,-0.10083161669337,0.855725947966736,-0.358159761959259
1580423524.8845,0.31519035629816,-0.132570382238498,-0.85621423666743
1580423524.91658,-0.124269474326695,0.582772564278631,-0.367925535973145
1580423524.94867,-0.0573739223315783,0.0861829556725411,-0.0524910353246355
1580423524.98075,-0.48364995803769,-0.211184863050278,0.385992217898831
1580423525.01283,-1.20436408026245,2.11209277485313,-1.67849240863661
1580423525.04491,-1.12428473334859,-0.328862439917602,0.431891355764094
1580423525.077,-2.03006027313649,-1.37868314641032,0.180910963607232
1580423525.10908,-1.46413366903182,0.61792935072862,0.0407721065079727
1580423525.14116,-1.57741664759289,0.5940032043946,-0.507087815671015
1580423525.17325,-1.80202944991226,0.01196307316701,-0.268802929732205
1580423525.20533,-1.87429617761502,0.0334477759975584,-0.621835660334172
1580423525.23741,-1.6360112916762,0.225833524071106,-0.270267795834288
1580423525.2695,-1.28151369497215,0.693125810635539,-0.891859311818113
1580423525.30158,-0.221438925764858,0.710215915159839,-1.3801480125124
1580423525.33367,0.225833524071106,0.856702525368124,-1.15114061188678
1580423525.36575,0.572030212863357,1.08717479209583,-0.802502479591059
1580423525.39783,0.0715342946517126,0.502693217364769,-0.481208514534218
1580423525.42992,0.135988403143358,0.175051499198901,-0.38794537270161
1580423525.462,-0.587167162584878,-0.0432135500114441,-0.706309605554283
1580423525.49408,-2.40262455176623,0.372808422980086,-0.726817730983443
1580423525.52617,-2.14480811779965,0.465583276112,-0.149660486762798
1580423525.55825,-2.15262073701076,0.79468986037995,-0.517341878385595
1580423525.59033,-2.07400625619898,0.749279011215382,-0.36743724727245
1580423525.62241,-1.71657892729076,0.698985275043871,-0.51783016708629
1580423525.6545,-1.41286335545892,0.0461432822156098,-0.655527580682078
1580423525.68658,-1.38356603341726,-0.453376058594644,0.385992217898831
1580423525.71866,-0.656992446784161,0.551522087434197,0.205325398641946
1580423525.75075,0.394293125810634,-0.0925307087815668,-0.914808880750744
1580423525.78283,-0.11450370031281,0.640390630960557,0.24682993820096
1580423525.81491,0.0573739223315783,0.199954222934309,-0.457282368200199
1580423525.84699,0.0266117341878385,0.229739833676661,0.0271000228885327
1580423525.87908,-0.939711604486153,0.0256351567864499,-0.638925764858472
1580423525.91116,-0.115968566414892,2.55252918287938,-1.9265430685893
1580423525.94324,-2.38992904554818,-0.532478828107118,-0.117433432516975
1580423525.97533,-1.61794460975051,-0.237064164187075,-0.267338063630122
1580423526.00741,-1.85329976348516,1.1833676661326,0.0627450980392155
1580423526.03949,-1.44899671931029,0.346440833142594,-0.516365300984207
1580423526.07158,-1.80007629510948,-0.344975967040513,-0.445075150682841
1580423526.10366,-1.8581826504921,-0.228763256275272,-0.714122224765392
1580423526.13574,-1.56276798657206,0.591073472190434,-0.291264209964142
1580423526.16782,-1.072526131075,0.982192721446555,-0.941176470588236
1580423526.19991,-0.244876783398183,0.788830395971619,-1.28688487067979
1580423526.23199,0.470466163118942,0.650644693675137,-1.30153353170062
1580423526.26407,0.47241931792172,0.880628671702144,-0.914808880750744
1580423526.29616,0.131105516136415,0.586190585183491,-0.35034714274815
1580423526.32824,-0.100343327992675,0.195071335927366,-0.417242694743267
1580423526.36032,-1.2004577706569,0.323002975509269,-0.942641336690318
1580423526.39241,-2.24930189974823,0.215579461356526,-0.430426489662013
1580423526.42449,-1.96023498893721,0.389898527504386,-0.129640650034332
1580423526.45657,-2.10428015564202,0.923109788662547,0.0437018387121384
1580423526.48866,-1.38991378652628,0.894789044022279,-0.884534981307699
1580423526.52074,-1.41725795376516,0.331792172121766,-0.860120546272984
1580423526.55289,-1.54470130464637,-0.149172198062104,0.0988784618905925
1580423526.58497,-1.5163805600061,-0.214114595254443,0.511482413977266
1580423526.61705,0.0988784618905925,0.892835889219501,-0.998306248569467
1580423526.64914,0.102784771496147,0.0612802319371326,-0.2434119172961
1580423526.68122,-0.0813000686655982,0.302006561379415,-0.642343785763332
1580423526.7133,-0.109620813305867,0.587655451285574,-0.0559090562294955
1580423526.74538,-0.146730754558632,-0.0139162279697871,0.00805676356145568
1580423526.77747,-0.908461127641718,0.106691081101701,-0.802990768291753
1580423526.80955,-1.24098573281453,1.53591210803388,-0.430426489662013
1580423526.84163,-1.87038986800946,-1.1233081559472,0.682383459220265
1580423526.87372,-1.5935301747158,0.106202792401007,-0.723399710078583
1580423526.9058,-1.53786526283665,0.688242923628597,-0.130617227435721
1580423526.93788,-1.93826199740597,-0.159914549477378,-0.135500114442664
1580423526.96997,-1.76345464255741,0.000732433051041426,-0.803479056992447
1580423527.00205,-1.36940566109712,0.51880674448768,-0.563729304951552
1580423527.03413,-0.97926298924239,1.1237964446479,-0.778576333257039
1580423527.06622,-0.48364995803769,0.700938429846648,-0.932875562676433
1580423527.0983,0.465094987411305,0.473395895323108,-1.34889753566796
1580423527.13038,0.780529488059816,0.829358358129245,-1.09449912260624
1580423527.16246,0.0266117341878385,0.673594262607768,-0.0900892652780954
1580423527.19455,-0.287846189059282,0.288822766460669,-0.171633478294041
1580423527.22663,-1.92898451209278,0.625253681239034,-0.663340199893186
1580423527.25871,-1.84744029907683,0.140383001449607,-0.429938200961319
1580423527.2908,-1.97293049515526,0.403082322423131,-0.368413824673839
1580423527.32288,-1.97293049515526,0.883070115205616,0.0305180437933927
1580423527.35496,-1.43923094529641,0.908949416342413,-0.499275196459907
1580423527.38704,-1.39040207522698,0.389898527504386,-0.729747463187609
1580423527.41913,-1.33278400854505,-0.362066071564813,-0.472419317921721
1580423527.45121,-1.47634088654917,-0.839612420843824,0.656504158083468
1580423527.48329,0.0500495918211641,1.00123598077363,-0.0725108720531011
1580423527.51538,0.397711146715494,0.0197756923781185,-0.689707789730678
1580423527.54746,-0.133058670939192,0.405035477225908,-0.380621042191196
1580423527.57954,-0.0485847257190812,0.243900205996795,-0.164309147783626
1580423527.61163,-0.486579690241856,-0.221438925764858,-0.0319829098954756
1580423527.64371,-1.11940184634165,2.26053253986419,-1.50759136339361
1580423527.67579,-2.0466620889601,0.179446097505149,0.388921950102997
1580423527.70788,-1.73318074311437,-1.71560234988937,0.0427252613107498
1580423527.73996,-1.66970321202411,0.5769130998703,-0.40161745632105
1580423527.77204,-1.34938582436866,0.724376287479974,-0.441168841077287
1580423527.80412,-1.96169985503929,-0.325444419012742,-0.344487678339819
1580423527.83621,-1.66677347981994,0.169680323491264,-0.930434119172961
1580423527.86829,-1.37331197070268,0.692149233234151,-0.43921568627451
1580423527.90038,-0.865003433279927,1.25709925993744,-0.788342107270925
1580423527.93246,-0.316166933699551,0.728282597085528,-0.899183642328527
1580423527.96455,0.547127489127949,0.346440833142594,-1.27028305485618
1580423527.99663,0.795178149080645,0.692149233234151,-1.0124666208896
1580423528.02871,-0.0427252613107498,0.574471656366828,-0.40161745632105
1580423528.0608,-0.430914778362707,0.257572289616235,-0.159426260776684
1580423528.09288,-2.07693598840314,0.395757991912717,-0.619394216830701
1580423528.12496,-1.9265430685893,0.136476691844052,-0.474372472724498
1580423528.15705,-2.04812695506218,0.594491493095294,-0.222415503166246
1580423528.18913,-2.05447470817121,0.962661173418784,-0.0559090562294955
1580423528.22121,-1.58815899900816,0.800061036087587,-0.93141069657435
1580423528.2533,-1.50368505378805,0.223392080567635,-0.675059128709849
1580423528.28538,-1.58767071030747,-0.248783093003738,0.313725490196077
1580423528.31746,-1.44704356450752,-0.760021362630656,0.853772793163959
1580423528.34955,0.592050049591823,0.259037155718318,-1.0041657129778
1580423528.38163,0.27075608453498,0.442633707179368,0.327397573815517
1580423528.41371,0.0710460059510183,0.276615548943312,-0.813244831006333
1580423528.4458,-0.0749523155565726,0.804455634393836,-0.160891126878766
1580423528.47788,-0.998794537270161,0.203860532539863,-0.563241016250858
1580423528.50997,-0.797131303883422,0.421637293049514,-0.327885862516213
1580423528.54205,-2.40457770656901,-0.524177920195315,0.401129167620354
1580423528.57413,-1.57936980239567,0.0100099183642328,-0.215091172655832
1580423528.60622,-1.95779354543374,0.665781643396659,-0.228763256275272
1580423528.6383,-1.83572137026017,-0.0588387884336612,-0.34692912184329
1580423528.67038,-1.81179522392615,-0.164797436484321,-0.721446555275806
1580423528.70247,-1.4226291294728,0.273197528038452,-0.665781643396658
1580423528.73455,-1.06129549095903,0.90406652933547,-0.56226443884947
1580423528.76663,-0.53150225070573,1.13502708476387,-0.833752956435493
1580423528.79872,-0.250736247806516,0.553475242236974,-0.76392767223621
1580423528.8308,0.527107652399483,0.470954451819637,-1.12037842374304
1580423528.86288,0.786388952468148,0.659433890287634,-0.945571068894484
1580423528.89497,0.142824444953078,0.32202639810788,-0.34692912184329
1580423528.92705,-0.281986724650951,0.184817273212786,-0.371831845578699
1580423528.95913,-3.12529182879377,0.788342107270925,-0.480720225833524
1580423528.99122,-1.86648355840391,-0.0793469138628211,-0.550545510032807
1580423529.0233,-1.89333943694209,0.79468986037995,-0.320073243305105
1580423529.05538,-1.96462958724346,0.727794308384833,-0.0261234454871442
1580423529.08747,-1.5339589532311,0.966567483024338,-0.568123903257801
1580423529.1196,-1.50075532158389,0.439703974975203,-0.477790493629358
1580423529.15168,-1.29176775768673,-0.266849774929428,-0.51783016708629
1580423529.18376,-1.44606698710613,-1.16090638590066,0.0993667505912867
1580423529.21585,-0.306401159685665,0.800061036087587,0.305912870984969
1580423529.24793,0.676035706111239,-0.0861829556725411,-1.28493171587701
1580423529.28001,0.0334477759975584,1.04811169604028,0.195559624628061
1580423529.3121,-0.115480277714198,0.0988784618905925,-0.0134279392690928
1580423529.34418,-0.737560082398717,-0.177004654001678,-0.403570611123827
1580423529.37626,-0.856702525368124,0.875257495994507,-1.03590447852293
1580423529.40834,-1.97048905165179,0.887464713511864,-0.156984817273212
1580423529.44043,-1.62429236285954,-0.93482871747921,0.265873197528038
1580423529.47251,-1.77468528267338,0.664316777294577,-0.185305561913481
1580423529.50459,-1.59645990691997,0.264408331425955,-0.417730983443962
1580423529.53668,-1.92361333638514,-0.234134431982909,-0.419684138246739
1580423529.56876,-1.66921492332341,-0.0588387884336612,-0.860120546272984
1580423529.60084,-1.30153353170062,0.705821316853591,-0.458258945601587
1580423529.63293,-0.814221408407722,1.16871900511177,-0.889906157015336
1580423529.66501,-0.284916456855116,0.802502479591059,-1.0808270389868
1580423529.69709,0.615976195925843,0.557381551842528,-1.29811551079576
1580423529.72918,0.57007705806058,0.882581826504921,-0.727794308384832
1580423529.76126,-0.0300297550926985,0.561776150148777,-0.399176012817579
1580423529.79334,-0.272220950637065,0.151125352864881,-0.266849774929428
1580423529.82542,-2.1404135194934,0.370366979476614,-0.961684596017395
1580423529.85751,-2.10330357824063,0.114991989013504,-0.328862439917602
1580423529.88959,-1.89040970473793,0.483649958037688,-0.252689402609294
1580423529.92167,-1.91189440756848,0.901136797131304,-0.0642099641412983
1580423529.95376,-1.44216067750057,0.713633936064699,-0.806408789196613
1580423529.98584,-1.52224002441443,0.210696574349583,-0.565194171053635
1580423530.01792,-1.48415350576028,-0.444098573281453,0.2605020218204
1580423530.05001,-1.68825818265049,-0.499275196459907,0.686289768825819
1580423530.08209,0.60425726710918,0.815686274509805,-1.52370489051652
1580423530.11417,0.099855039291981,-0.0349126420996413,0.160891126878766
1580423530.14626,-0.153566796368352,0.38355077439536,-0.74927901121538
1580423530.17834,-0.0324711985961699,0.823010605020219,-0.181887541008621
1580423530.21042,-0.686289768825818,-0.350835431448845,-0.123292896925307
1580423530.2425,-0.72535286488136,1.45534447241932,-1.24782177462425
1580423530.27459,-2.2517433432517,-0.522224765392538,-0.161379415579461
1580423530.30667,-1.39333180743114,-0.77418173495079,-0.310307469291219
1580423530.33875,-1.63161669336995,0.77418173495079,-0.180422674906538
1580423530.37084,-1.59206530861372,0.256595712214846,-0.322026398107882
1580423530.40304,-1.90701152056153,-0.139406424048218,-0.170168612191958
1580423530.43513,-1.69021133745327,-0.00366216525520713,-1.00611886778058
1580423530.46721,-1.4055390249485,0.754650186923019,-0.468513008316167
1580423530.4993,-0.927504386968796,1.02027924010071,-0.807873655298696
1580423530.53138,-0.351812008850233,0.768810559243153,-0.839612420843824
1580423530.56346,0.478767071030745,0.426031891355763,-1.34059662775616
1580423530.59555,0.851819638361182,0.83912413214313,-0.96559090562295
1580423530.62763,0.0539559014267184,0.566170748455026,-0.266849774929428
1580423530.65972,-0.212649729152361,0.235599298084992,-0.139406424048218
1580423530.6918,-1.56569771877623,0.485114824139771,-0.926527809567407
1580423530.72388,-1.90505836575876,0.0881361104753182,-0.606210421911955
1580423530.75597,-2.00955214770733,0.45532921339742,-0.35718318455787
1580423530.78805,-1.90603494316014,1.21852445258259,-0.144289311055161
1580423530.82014,-1.42165255207141,1.13160906385901,-0.634042877851529
1580423530.85222,-1.58132295719844,0.642832074464028,-0.754650186923019
1580423530.88431,-1.47780575265126,-0.181399252307926,-0.453864347295339
1580423530.91639,-1.68923476005188,-0.943129625391013,0.115480277714198
1580423530.94847,-0.631601434348058,0.0295414663920042,0.737071793698025
1580423530.98056,0.685313191424431,0.259525444419012,-1.06227206836042
1580423531.01264,0.160402838178072,1.08326848249027,0.0749523155565726
1580423531.04472,-0.027588311589227,0.428961623559928,-0.197024490730143
1580423531.07681,-0.410894941634242,-0.0852063782711525,-0.239017318989852
1580423531.10889,-1.11891355764095,1.41579308766308,-1.14235141527428
1580423531.14098,-2.01589990081636,-0.0100099183642328,-0.231204699778743
1580423531.17306,-1.58620584420539,-0.998794537270161,0.168215457389181
1580423531.20514,-1.73415732051575,0.716563668268865,-0.261966887922485
1580423531.23723,-1.508567940795,0.413336385137711,-0.375738155184253
1580423531.26931,-1.96218814373999,-0.0285648889906156,-0.260990310521096
1580423531.3014,-1.58571755550469,0.0129396505683985,-0.838147554741742
1580423531.33348,-1.20778210116731,0.456305790798808,-0.54175631342031
1580423531.36556,-0.940199893186847,1.04859998474098,-0.667246509498741
1580423531.39765,-0.403570611123827,0.740978103303579,-0.773693446250096
1580423531.42973,0.264896620126649,0.53931486991684,-1.31032272831312
1580423531.46182,0.804455634393836,0.689219501029985,-1.16285954070344
1580423531.4939,0.259037155718318,0.668223086900131,-0.359624628061342
1580423531.52599,-0.146730754558632,0.436774242771037,-0.11450370031281
1580423531.55807,-1.24879835202563,0.427008468757151,-0.600350957503624
1580423531.59015,-1.9607232776379,0.0598153658350498,-0.659433890287632
1580423531.62224,-1.9783016708629,0.204348821240558,-0.599374380102235
1580423531.65432,-2.10818646524758,0.83228809033341,-0.206790264744029
1580423531.6864,-1.67312123292897,0.807385366598002,-0.352788586251622
1580423531.71848,-1.4480201419089,0.612069886320288,-0.642832074464026
1580423531.75057,-1.29274433508812,0.198489356832226,-0.45972381170367
1580423531.78265,-1.48708323796445,-0.511482413977264,0.617441062027925
1580423531.81473,-0.717540245670252,-0.204348821240558,0.913344014648661
1580423531.84682,0.898695353627833,0.245365072098878,-1.2942092011902
1580423531.8789,0.0104982070649271,1.00660715648127,0.505622949568934
1580423531.91099,-0.0544441901274126,0.302983138780803,-0.404058899824522
1580423531.94307,-0.256107423514154,0.838635843442436,-0.86988632028687
1580423531.97515,-0.998306248569467,0.164309147783626,-0.303959716182193
1580423532.00724,-2.06179903868162,0.668711375600825,-0.803479056992447
1580423532.03932,-1.63308155947204,-0.32642099641413,0.240970473792629
1580423532.0714,-1.76540779736019,0.734630350194553,-0.334233615625239
1580423532.10349,-1.71560234988937,-0.0358892195010299,-0.325444419012742
1580423532.13557,-1.98513771267262,-0.208255130846112,-0.457770656900893
1580423532.16765,-1.5764400701915,0.0339360646982527,-0.78101777676051
1580423532.19974,-1.09205767910277,0.792248416876479,-0.520759899290455
1580423532.23182,-0.561287861448081,1.26100556954299,-1.11451895933471
1580423532.2639,-0.272220950637065,0.699473563744565,-0.777111467154956
1580423532.29599,0.158937972075989,0.490485999847408,-1.1745784695201
1580423532.32807,0.871351186388953,0.586678873884185,-1.09352254520485
1580423532.36015,0.208743419546806,0.428961623559928,-0.427008468757153
1580423532.39224,-0.230716411078049,0.262455176623178,-0.320073243305105
1580423532.42432,-2.6789959563592,1.03297474631876,-0.542244602121004
1580423532.4564,-1.60378423743038,0.103761348897535,-0.501228351262684
1580423532.48849,-1.67946898603799,0.714122224765394,-0.573983367666132
1580423532.52057,-2.09011978332189,0.726817730983445,0.0207522697795071
1580423532.55266,-1.49636072327764,0.820569161516747,-0.892347600518807
1580423532.58474,-1.61452658884565,0.250736247806515,-0.741466392004272
1580423532.61682,-1.22194247348745,0.0046387426565957,-0.144777599755855
1580423532.64891,-1.22780193789578,-0.657969024185549,0.229251544975966
1580423532.68099,-0.210208285648889,0.98951705195697,-0.238529030289158
1580423532.71307,0.31519035629816,-0.0212405584802013,-0.751720454718853
1580423532.74516,0.124269474326695,0.806897077897307,-0.406012054627299
1580423532.77724,-0.0754406042572668,0.196047913328755,0.115480277714198
1580423532.80932,-0.557869840543221,-0.067139696345464,-0.136964980544747
1580423532.84141,-1.17409018081941,1.4568093385214,-1.09547570000763
1580423532.87349,-1.72683299000534,0.470954451819637,-0.137941557946135
1580423532.90557,-1.62868696116579,-1.24098573281453,0.484626535439077
1580423532.93766,-1.65554283970397,0.89039444571603,-0.0900892652780954
1580423532.96979,-1.54860761425193,0.349858854047454,-0.624277103837644
1580423533.00187,-1.91140611886778,-0.426031891355764,-0.433844510566873
1580423533.03395,-1.62966353856718,0.124269474326695,-0.76734569314107
1580423533.06604,-1.32252994583047,0.598886091401543,-0.414801251239796
1580423533.09812,-1.00270084687572,1.16578927290761,-0.7048447394522
1580423533.13021,-0.741954680704966,0.750743877317465,-0.622812237735561
1580423533.16229,0.405523765926603,0.564217593652248,-1.29274433508812
1580423533.19438,1.14332799267567,0.5940032043946,-1.62136263065537
1580423533.22646,0.186282139314869,0.61792935072862,-0.286869611657893
1580423533.25854,-0.242923628595406,0.243900205996795,0.143312733653772
1580423533.29063,-1.52809948882277,0.37671473258564,-0.716563668268863
1580423533.32271,-1.71120775158312,0.313725490196077,-0.71168078126192
1580423533.35479,-1.90408178835737,0.32202639810788,-0.477790493629358
1580423533.38688,-2.13553063248646,0.84937819485771,0.0642099641412983
1580423533.41896,-1.67458609903105,0.954848554207675,-0.427985046158541
1580423533.45105,-1.5593499656672,0.659922178988328,-0.642343785763332
1580423533.48313,-1.42458228427558,0.0598153658350498,-0.506599526970321
1580423533.51521,-1.1579766536965,-0.457282368200199,0.502693217364769
1580423533.5473,-1.00123598077363,-0.450934615091173,0.133058670939192
1580423533.57938,0.322514686808574,0.362554360265506,-0.90748455024033
1580423533.61147,0.421637293049514,1.00856031128405,-0.162355992980849
1580423533.64355,-0.0666514076447697,0.527595941100177,-0.509529259174487
1580423533.67563,-0.0402838178072784,0.331792172121766,-0.122804608224612
1580423533.70772,-0.855725947966736,-0.23315785458152,-0.623300526436255
1580423533.7398,-0.834729533836882,1.11158922713054,-1.05104142824445
1580423533.77189,-2.37039749752041,-1.07789730678263,1.06129549095903
1580423533.80397,-1.45387960631724,0.128664072632944,-0.720958266575112
1580423533.83606,-1.61452658884565,0.766857404440376,-0.129152361333638
1580423533.86814,-1.8674601358053,-0.133058670939192,-0.176516365300984
1580423533.90022,-1.85574120698863,-0.129152361333638,-0.888441290913253
1580423533.93231,-1.40456244754711,0.193606469825284,-0.86988632028687
1580423533.96439,-1.22047760738537,0.95533684290837,-0.434332799267567
1580423533.99647,-0.634531166552224,1.07789730678263,-1.24782177462425
1580423534.02856,-0.116945143816281,0.760021362630656,-0.912367437247273
1580423534.06064,0.686778057526514,0.402594033722437,-1.29323262378882
1580423534.09273,0.550545510032808,0.698008697642482,-0.750255588616771
1580423534.12481,0.0173342488746471,0.641367208361945,-0.506111238269627
1580423534.15689,-0.453864347295339,0.370855268177309,-0.333745326924545
1580423534.18898,-2.85282673380636,0.265873197528038,-0.420172426947433
1580423534.22106,-1.75124742504006,0.216067750057221,-0.754161898222325
1580423534.25323,-2.04959182116426,0.90748455024033,-0.293217364766919
1580423534.28532,-1.66237888151369,0.889906157015336,-0.310795757991913
1580423534.3174,-1.60329594872969,0.775158312352179,-0.543709468223087
1580423534.34949,-1.51149767299916,0.128175783932249,-0.251224536507211
1580423534.38157,-1.29616235599298,-0.733165484092469,0.096437018387121
1580423534.41365,-0.194583047226672,0.776623178454262,0.167238879987792
1580423534.44574,0.477302204928662,0.0783703364614325,-0.843518730449379
1580423534.47782,-0.0886243991760125,0.696543831540399,0.32202639810788
1580423534.50991,-0.0295414663920042,1.08717479209583,-0.539314869916838
1580423534.54199,-0.523689631494621,-1.02027924010071,0.298588540474555
1580423534.57407,-0.968520637827115,0.425543602655068,-0.860120546272984
1580423534.60616,-2.003692683299,1.19069199664301,-0.341069657434959
1580423534.63824,-1.34108491645686,-0.765392538338293,0.580819409475854
1580423534.67033,-1.62233920805676,0.731700617990388,-0.388921950102999
1580423534.70241,-1.60622568093385,0.384039063096054,-0.435309376668956
1580423534.73449,-1.87771419851988,-0.108155947203784,-0.416754406042573
1580423534.76658,-1.63747615777829,0.0715342946517126,-0.615487907225146
1580423534.79866,-1.29127946898604,0.30493629358358,-0.636972610055695
1580423534.83075,-0.977798123140307,1.28151369497215,-0.758556496528573
1580423534.86283,-0.441657129777981,0.906996261539636,-0.815686274509805
1580423534.89491,0.2434119172961,0.544197756923783,-1.11110093842985
1580423534.927,0.749279011215382,0.4484931715877,-1.36647592889296
1580423534.95908,0.291752498664835,0.620370794232091,-0.38452735179675
1580423534.99117,-0.218509193560692,0.427008468757151,-0.218997482261386
1580423535.02325,-1.70925459678035,0.63843747615778,-0.623300526436255
1580423535.05533,-1.83913939116503,0.0515144579232469,-0.70826276035706
1580423535.08742,-1.83816281376364,0.523689631494623,-0.474372472724498
1580423535.1195,-2.06277561608301,0.730724040588999,-0.0803234912642097
1580423535.15159,-1.53786526283665,0.882093537804227,-0.533455405508507
1580423535.18367,-1.33913176165408,0.535408560311286,-0.556893263141832
1580423535.21575,-1.20387579156176,0.0314946211947813,-0.350835431448845
1580423535.24784,-1.54714274814984,-0.903089951934081,0.614023041123065
1580423535.27992,0.0251468680857556,0.720469977874419,-0.0524910353246355
1580423535.31201,0.415289539940488,0.204837109941252,-0.592538338292515
1580423535.34409,-0.0432135500114441,0.509529259174489,-0.39136339360647
1580423535.37617,0.0349126420996413,0.819104295414665,-0.164797436484321
1580423535.40826,-0.457282368200199,0.139406424048218,-0.44946974898909
1580423535.44034,-1.19655146105135,0.131105516136415,-0.169192034790569
1580423535.47243,-1.83718623636225,0.888929579613947,-0.444098573281453
1580423535.50451,-1.52224002441443,-0.521736476691844,0.181399252307926
1580423535.53662,-1.83230334935531,0.81861600671397,-0.307866025787748
1580423535.5687,-1.62233920805676,0.0383306630045013,-0.582284275577935
1580423535.60079,-2.0295719844358,-0.290775921263448,-0.586678873884184
1580423535.63287,-1.65456626230259,0.206301976043335,-0.762462806134128
1580423535.66496,-1.37819485770962,0.843518730449379,-0.43579766536965
1580423535.69704,-0.46997787441825,1.12672617685206,-1.08131532768749
1580423535.72913,0.288822766460669,0.665293354695965,-1.14821087968261
1580423535.76121,0.802990768291753,0.755626764324408,-1.21998931868467
1580423535.79329,0.152590218966964,0.693125810635539,-0.643320363164721
1580423535.82538,-0.104737926298924,0.175539787899595,-0.303959716182193
1580423535.85746,-0.659433890287632,-0.0783703364614325,-0.448981460288396
1580423535.88954,-2.27078660257878,0.422613870450903,-0.456794079499504
1580423535.92163,-2.03884946974899,0.389898527504386,-0.261478599221791
1580423535.95371,-2.2258640421149,1.11354238193332,0.0700694285496297
1580423535.9858,-1.7986114290074,0.90064850843061,-0.222415503166246
1580423536.01788,-1.52907606622415,0.385503929198137,-0.802990768291753
1580423536.04996,-1.37575341420615,-0.339116502632182,-0.380132753490502
1580423536.08205,-1.57058060578317,-0.578866254673075,0.622323949034868
1580423536.11413,-0.603768978408484,0.614999618524454,0.360601205462729
1580423536.14622,0.91773861295491,0.0466315709163041,-1.02906843671321
1580423536.1783,-0.256107423514154,0.788342107270925,0.168215457389181
1580423536.21038,-0.129640650034332,0.46900129701686,-0.42212558175021
1580423536.24247,-0.12133974212253,-0.00415045395590141,0.0314946211947813
1580423536.27455,-1.1921568627451,0.657969024185551,-0.84254215304799
1580423536.30664,-0.799084458686199,1.21705958648051,-0.196536202029449
1580423536.33872,-2.03640802624552,-1.3283894102388,0.813244831006333
1580423536.3708,-1.64284733348592,0.454352635996031,-0.457770656900893
1580423536.40289,-1.49098954757,0.788342107270925,-0.621835660334172
1580423536.43497,-1.95632867933165,-0.407476920729382,-0.218997482261386
1580423536.46706,-1.75222400244144,0.198489356832226,-0.476325627527276
1580423536.49914,-1.36598764019226,0.645761806668194,-0.701915007248035
1580423536.53122,-0.896253910124361,1.37233539330129,-0.888929579613947
1580423536.56331,-0.42896162355993,0.871839475089647,-0.860608834973679
1580423536.59539,0.537361715114063,0.286381322957197,-1.30251010910201
1580423536.62748,0.701915007248036,0.338139925230792,-1.12233157854581
1580423536.65956,-0.0578622110322726,0.747325856412605,-0.313725490196079
1580423536.69164,-0.359624628061342,0.456794079499502,-0.109620813305867
1580423536.72373,-2.13699549858854,0.527107652399483,-0.484626535439078
1580423536.75581,-1.89138628213932,0.269779507133592,-0.375738155184253
1580423536.7879,-2.03445487144274,0.431891355764094,-0.0393072404058898
1580423536.82004,-2.06570534828717,0.85279621576257,0.234134431982909
1580423536.85212,-1.37672999160754,0.81861600671397,-0.502693217364767
1580423536.8842,-1.23219653620203,0.196536202029449,-0.884534981307699
1580423536.91629,-1.3625696192874,-0.587655451285572,-0.0456549935149155
1580423536.94837,-1.31667048142214,-0.859143968871596,0.759533073929962
1580423536.98046,0.450446326390477,0.93141069657435,-1.19996948195621
1580423537.01254,-0.0451667048142212,-0.293705653467613,-0.176516365300984
1580423537.04463,-0.135500114442664,0.454352635996031,-0.411383230334936
1580423537.07671,-0.0559090562294955,0.853772793163959,-0.190188448920424
1580423537.10879,-0.720469977874417,-0.657969024185549,0.034424353398947
1580423537.14088,-0.954360265506981,2.30008392462043,-1.75075913633936
1580423537.17296,-2.56961928740368,-0.42554360265507,0.0139162279697871
1580423537.20504,-1.39577325093462,-0.739513237201495,-0.326909285114825
1580423537.23713,-1.8928511482414,1.16285954070344,-0.0393072404058898
1580423537.26921,-1.5251697566186,-0.0388189517051956,-0.643808651865415
1580423537.3013,-1.85427634088655,-0.323979552910659,-0.409918364232853
1580423537.33338,-1.44313725490196,0.565194171053637,-0.960708018616007
1580423537.36546,-0.99977111467155,1.05055313954376,-0.728282597085526
1580423537.39755,-0.617929350728618,0.860120546272984,-0.842053864347296
1580423537.42963,0.187258716716258,0.625741969939728,-1.23414969100481
1580423537.46172,0.828381780727856,0.773693446250096,-1.10084687571527
1580423537.4938,0.377203021286334,0.55640497444114,-0.24682993820096
1580423537.52588,-0.167238879987792,0.249759670405126,-0.216067750057221
1580423537.55797,-1.63210498207065,0.595956359197377,-0.494880598153658
1580423537.59005,-1.78640421149004,0.287357900358586,-0.635507743953612
1580423537.62214,-2.16336308842603,0.272709239337757,-0.308354314488442
1580423537.65422,-2.16775768673228,0.857190814068819,-0.0935072861829553
1580423537.68631,-1.52370489051652,0.931898985275044,-0.641367208361943
1580423537.71839,-1.46266880292973,0.463141832608528,-0.566659037155718
1580423537.75047,-1.45632104982071,-0.254642557412071,-0.503181506065461
1580423537.78256,-1.25905241474022,-2.0290836957351,0.408941786831463
1580423537.81464,0.187258716716258,1.12428473334859,-0.0593270771343555
1580423537.84672,0.767833981841765,0.232181277180132,-0.862073701075762
1580423537.87881,-0.0183108262760356,0.731212329289693,-0.395269703212024
1580423537.91089,-0.0949721522850382,0.443121995880063,-0.0607919432364383
1580423537.94298,-0.629648279545281,-0.38452735179675,0.106202792401007
1580423537.97506,-1.16871900511177,1.62868696116579,-1.51931029221027
1580423538.00714,-1.44655527580682,0.466559853513388,0.691172655832762
1580423538.03923,-1.85476462958724,-1.79421683070115,0.552498664835586
1580423538.07131,-1.6023193713283,0.385015640497443,-0.363042648966202
1580423538.10336,-1.54128328374151,0.505622949568934,-0.248783093003738
1580423538.13545,-1.92458991378653,0.0100099183642328,-0.122804608224612
1580423538.16753,-1.77712672617685,-0.247318226901655,-1.10231174181735
1580423538.19962,-1.52126344701305,0.350347142748149,-0.553963530937667
1580423538.2317,-0.955825131609064,0.983169298847944,-0.771252002746625
1580423538.26378,-0.330327306019685,0.973891813534753,-1.02174410620279
1580423538.29587,0.232669565880826,0.569100480659191,-0.960708018616007
1580423538.32795,0.752208743419548,0.820569161516747,-1.13112077515831
1580423538.36003,0.106202792401007,0.492439154650185,-0.528572518501564
1580423538.39212,-0.073975738155184,0.136476691844052,-0.248294804303043
1580423538.4242,-0.807385366598002,0.209719996948195,-0.709727626459143
1580423538.45629,-2.41727321278706,0.278080415045395,-0.659922178988326
1580423538.48837,-1.93826199740597,0.574471656366828,-0.208743419546806
1580423538.52045,-2.17605859464408,1.10035858701457,-0.262455176623179
1580423538.55254,-1.98611429007401,0.706797894254979,-0.663340199893186
1580423538.58462,-1.73122758831159,0.38696879530022,-0.421149004348822
1580423538.61671,-1.31374074921798,-0.103273060196841,-0.380132753490502
1580423538.64879,-1.21559472037842,-0.266361486228734,0.286381322957197
1580423538.68087,-0.255619134813459,1.1579766536965,0.169192034790569
1580423538.71296,0.608163576714734,-0.576424811169604,-0.887464713511864
1580423538.74504,0.00659189745937283,0.888441290913253,0.0349126420996413
1580423538.77713,-0.0720225833524069,0.401617456321048,-0.358159761959259
1580423538.80921,-0.321538109407188,0.269779507133592,0.299565117875943
1580423538.84129,-1.54030670634012,0.784924086366065,-1.52565804531929
1580423538.87338,-0.174563210498206,1.30836957351034,-0.183352407110704
1580423538.90546,-2.08816662851911,-1.62087434195468,1.06910811017014
1580423538.93755,-1.65944914930953,0.334721904325932,-0.302983138780805
1580423538.96963,-1.51931029221027,0.52906080720226,-0.802014190890365
1580423539.00171,-1.72780956740673,-0.204837109941252,-0.367925535973145
1580423539.0338,-1.69948882276646,-0.00708018616006711,-0.306889448386359
1580423539.06588,-1.45143816281376,0.374761577782863,-0.56226443884947
1580423539.09797,-0.903578240634776,1.27125963225757,-0.748302433813992
1580423539.13005,-0.424567025253682,0.963637750820173,-1.12867933165484
1580423539.16213,0.0554207675288012,0.456305790798808,-1.11793698023957
1580423539.19422,0.871839475089647,0.640390630960557,-1.32350652323186
1580423539.2263,0.234622720683603,0.5940032043946,-0.448004882887007
1580423539.25839,-0.131593804837109,0.269779507133592,-0.210208285648889
1580423539.29047,-0.865491721980622,0.278080415045395,-0.653086137178606
1580423539.32255,-2.29178301670863,0.187258716716258,-0.756603341725796
1580423539.35464,-2.23123521782254,0.199954222934309,-0.269291218432899
1580423539.38678,-2.20828564888991,0.747325856412605,-0.189211871519035
1580423539.41886,-1.59597161821927,0.82545204852369,-0.364507515068285
1580423539.45095,-1.27858396276799,0.805920500495919,-0.453864347295339
1580423539.48303,-1.22731364919509,0.331303883421072,-0.297123674372473
1580423539.51512,-1.35817502098116,-0.957778286411841,0.310307469291217
1580423539.5472,-0.323491264209965,0.559822995346,0.397711146715494
1580423539.57929,0.509529259174489,0.237064164187075,-1.08278019378958
1580423539.61137,0.0168459601739528,0.729259174486916,-0.0422369726100555
1580423539.64346,-0.0227054245822842,0.498786907759211,-0.440680552376593
1580423539.67554,-0.442145418478676,-0.202395666437781,0.153078507667658
1580423539.70762,-1.0212558175021,0.33911650263218,-1.05885404745556
1580423539.73971,-0.786388952468148,1.31569390402075,0.067139696345464
1580423539.77179,-2.05593957427329,-1.60085450522621,1.02906843671321
1580423539.80388,-1.63064011596857,0.385015640497443,-0.435309376668956
1580423539.83596,-1.51198596169985,0.63160143434806,-0.342046234836348
1580423539.86805,-1.88894483863584,-0.034424353398947,-0.300053406576639
1580423539.90013,-1.91335927367056,-0.261966887922485,-0.762951094834822
1580423539.93221,-1.74441138323033,0.0295414663920042,-0.421637293049516
1580423539.9643,-0.990981918059052,1.41725795376516,-0.947035934996567
1580423539.99638,-0.269291218432899,1.11305409323262,-1.00904859998474
1580423540.02847,0.324467841611352,0.427496757457845,-1.51735713740749
1580423540.06055,0.749767299916076,0.631113145647365,-0.966079194323644
1580423540.09264,0.0778820477607383,0.611581597619594,-0.498298619058518
1580423540.12472,-0.187747005416952,0.327885862516212,-0.492927443350881
1580423540.15681,-1.09596398870832,0.174074921797512,-0.584237430380712
1580423540.18889,-2.39188220035096,0.0461432822156098,-0.407476920729382
1580423540.22098,-2.01101701380941,0.411383230334934,-0.367925535973145
1580423540.25306,-2.39041733424888,0.979751277943084,0.205325398641946
1580423540.28514,-1.58718242160677,0.984634164950027,-0.717051956969557
1580423540.31723,-1.35622186617838,0.366948958571754,-0.839612420843824
1580423540.34931,-1.34059662775616,-0.288334477759976,-0.175539787899595
1580423540.3814,-1.41774624246586,-0.841077286945907,0.77418173495079
1580423540.41348,0.140871290150301,0.891859311818113,-0.610605020218204
1580423540.44557,0.437262531471731,-0.00708018616006711,-0.686778057526512
1580423540.47765,0.159914549477378,0.457282368200197,-0.596444647898069
1580423540.50974,0.0139162279697871,0.186770428015564,0.0744640268558783
1580423540.54182,-0.433844510566873,0.179446097505149,-0.344975967040513
1580423540.5739,-1.06129549095903,0.715587090867476,-0.935317006179904
1580423540.60599,-1.76882581826505,0.670176241702908,-0.579354543373769
1580423540.63807,-1.7732204165713,-0.598397802700847,0.565682459754331
1580423540.6702,-1.80202944991226,0.558846417944611,-0.0251468680857556
1580423540.70228,-1.51979858091096,0.430426489662011,-0.462165255207141
1580423540.73436,-1.85671778439002,-0.128175783932249,-0.518318455786984
1580423540.76645,-1.84841687647822,-0.113527122911421,-0.766369115739682
1580423540.79853,-1.40944533455406,0.717051956969559,-0.469001297016861
1580423540.83062,-0.86646829938201,1.23903257801175,-1.04029907682918
1580423540.8627,-0.196047913328755,0.765880827038988,-0.769298847943848
1580423540.89479,0.367437247272449,0.299565117875943,-1.29616235599298
1580423540.92687,0.835217822537576,0.930922407873656,-0.96900892652781
1580423540.95896,-0.0417486839093613,0.654551003280691,-0.438239108873121
1580423540.99104,-0.145265888456549,0.131593804837109,-0.167727168688486
1580423541.02312,-0.903578240634776,0.170656900892652,-0.76734569314107
1580423541.05521,-2.29813076981766,0.193606469825284,-0.426031891355764
1580423541.08729,-2.02371252002747,0.331792172121766,-0.483161669336996
1580423541.11938,-2.2004730296788,0.915785458152133,-0.339604791332876
1580423541.15146,-1.52565804531929,0.823498893720913,-0.388433661402305
1580423541.18355,-1.39186694132906,0.718516823071642,-0.636484321355001
1580423541.21563,-1.37233539330129,0.158937972075989,-0.328374151216908
1580423541.24772,-1.1921568627451,-0.532478828107118,0.30493629358358
1580423541.2798,-1.11842526894026,-0.520271610589761,0.668223086900131
1580423541.31188,0.406500343327991,0.756115053025102,-1.04176394293126
1580423541.34397,0.35962462806134,0.78443579766537,-0.153078507667658
1580423541.37605,-0.0383306630045013,0.417242694743265,-0.434332799267567
1580423541.40814,-0.198977645532921,-0.232669565880826,0.152590218966964
1580423541.44022,-1.04567025253681,-0.0778820477607383,-0.831311512932022
1580423541.47231,-0.044678416113527,2.38211642633707,-1.03590447852293
1580423541.50439,-2.67704280155642,-1.55642023346303,1.11305409323262
1580423541.53648,-1.42507057297627,0.0515144579232469,-0.605722133211261
1580423541.56856,-1.77468528267338,0.949477378500038,-0.249271381704432
1580423541.60065,-1.6189211871519,0.147707331960021,-0.402594033722439
1580423541.63273,-1.83181506065461,-0.267826352330816,-0.614511329823758
1580423541.66481,-1.58669413290608,0.0124513618677042,-0.760997940032045
1580423541.6969,-1.29079118028534,0.870374608987564,-0.284916456855116
1580423541.72898,-0.55542839703975,1.18043793392843,-1.07447928587777
1580423541.76107,-0.225345235370412,0.656992446784162,-0.857679102769513
1580423541.79315,0.51538872358282,0.444586861982145,-1.44216067750057
1580423541.82524,0.600350957503625,0.674082551308462,-1.01588464179446
1580423541.85732,-0.0471198596169984,0.425543602655068,-0.401129167620356
1580423541.88941,-0.390875104905776,0.280521858548866,-0.559334706645304
1580423541.92149,-2.0891432059205,0.528572518501566,-0.927504386968796
1580423541.95361,-2.45584802014191,0.0949721522850382,-0.0803234912642097
1580423541.9857,-2.08279545281147,0.714610513466088,-0.486579690241856
1580423542.01778,-2.11160448615244,0.753673609521631,-0.258060578316931
1580423542.04987,-1.61647974364843,0.793713282978562,-0.594491493095292
1580423542.08195,-1.43581292439155,0.236087586785686,-0.723887998779277
1580423542.11403,-1.52468146791791,-0.296147096971085,0.760021362630656
1580423542.14612,-1.75271229114214,-0.454352635996033,1.47096971084153
1580423542.1782,0.569100480659191,0.282475013351643,-1.69948882276646
1580423542.21029,-0.136476691844052,-0.00610360875867855,0.338628213931486
1580423542.24237,-0.0236820019836728,-0.0441901274128327,-0.850843060959793
1580423542.27446,0.0891126878767068,0.968032349126421,-0.0852063782711525
1580423542.30654,-0.556893263141832,0.0104982070649271,0.0456549935149155
1580423542.33863,-0.857190814068819,1.42653543907835,-1.65554283970397
1580423542.37071,-2.23221179522393,-0.0915541313801782,-0.0163576714732585
1580423542.40279,-1.74001678492409,-1.15602349889372,-0.102296482795452
1580423542.43488,-1.88992141603723,0.698008697642482,-0.027588311589227
1580423542.46696,-1.33913176165408,0.380621042191194,-0.441657129777981
1580423542.49905,-1.84402227817197,-0.299565117875945,-0.462165255207141
1580423542.53113,-1.71706721599145,-0.0109864957656214,-0.782482642862593
1580423542.56322,-1.33229571984436,0.828381780727856,-0.410894941634242
1580423542.5953,-0.708751049057755,1.38698405432212,-0.856702525368124
1580423542.62739,-0.276127260242619,0.587655451285574,-0.803967345693142
1580423542.65947,0.616952773327231,0.559334706645306,-1.51735713740749
1580423542.69156,0.736583504997331,0.689219501029985,-0.943129625391013
1580423542.72364,-0.00219729915312428,0.476325627527274,-0.352788586251622
1580423542.75572,-0.310307469291219,0.00805676356145568,-0.210208285648889
1580423542.78781,-2.85185015640497,0.906507972838941,-0.96559090562295
1580423542.81989,-1.89968719005112,0.313725490196077,-0.309819180590525
1580423542.85198,-1.94705119401846,0.887953002212559,-0.582772564278629
1580423542.88406,-1.95877012283513,0.836682688639659,-0.194583047226672
1580423542.91615,-1.46706340123598,0.716563668268865,-0.724864576180666
1580423542.94823,-1.45094987411307,0.231204699778743,-0.640878919661249
1580423542.98032,-1.29811551079576,-0.511482413977264,0.341069657434957
1580423543.0124,-1.21998931868467,-0.305424582284276,1.12086671244373
1580423543.04448,0.598886091401543,0.457770656900891,-1.30055695429923
1580423543.07657,0.0329594872968642,0.741954680704968,0.34253452353704
1580423543.10865,-0.0607919432364383,0.347905699244677,-0.577401388570992
1580423543.14074,-0.192629892423895,0.222415503166246,0.159914549477378
1580423543.17282,-0.766857404440376,-0.160402838178072,-0.892835889219501
1580423543.20491,-0.157473105973907,1.89773403524834,-0.896253910124361
1580423543.23703,-2.61210040436408,-1.29274433508812,0.695567254139011
1580423543.26911,-1.42409399557488,-0.106691081101701,-0.508552681773098
1580423543.3012,-1.90212863355459,0.867933165484093,-0.312260624093996
1580423543.33328,-1.74831769283589,-0.207278553444723,-0.399664301518273
1580423543.36537,-1.88357366292821,-0.112062256809338,-0.649179827573052
1580423543.39745,-1.56472114137484,0.27075608453498,-0.752208743419548
1580423543.42954,-1.27614251926452,1.05934233615625,-0.385015640497445
1580423543.46162,-0.459235523002976,0.906507972838941,-0.863538567177844
1580423543.49371,-0.0500495918211641,0.381597619592583,-1.13112077515831
