Timestamp_seconds,Accel_X_g,Accel_Y_g,Accel_Z_g
1580423490.03653,-0.964614328221561,-0.248783093003738,0.00317387655451284
1580423490.06883,-0.961684596017395,-0.258060578316931,-0.0192874036774242
1580423490.10113,-0.970473792629893,-0.24682993820096,-0.00317387655451284
1580423490.13343,-0.964614328221561,-0.240970473792629,-0.00268558785381856
1580423490.16572,-0.962661173418784,-0.250736247806516,0.0046387426565957
1580423490.19802,-0.963149462119478,-0.251224536507211,-0.00659189745937283
1580423490.23032,-0.966079194323644,-0.253177691309988,-0.0178225375753414
1580423490.26262,-0.958266575112535,-0.269291218432899,-0.0124513618677042
1580423490.29492,-0.956801709010453,-0.250736247806516,-0.0129396505683985
1580423490.32722,-0.957289997711147,-0.257084000915542,-0.0173342488746471
1580423490.35952,-0.964126039520867,-0.260990310521096,-0.0109864957656214
1580423490.39181,-0.954848554207675,-0.260013733119708,-0.00512703135728998
1580423490.42411,-0.965102616922255,-0.260502021820402,-0.0192874036774242
1580423490.45641,-0.959731441214618,-0.244876783398183,-0.00561532005798426
1580423490.48871,-0.965102616922255,-0.247318226901655,-0.0192874036774242
1580423490.52101,-0.954360265506981,-0.245853360799572,-0.00512703135728998
1580423490.55331,-0.96217288471809,-0.252201113908599,0.00512703135728998
1580423490.58561,-0.966079194323644,-0.257572289616236,-0.0134279392690928
1580423490.6179,-0.963149462119478,-0.252689402609294,0.000732433051041426
1580423490.6502,-0.961196307316701,-0.251712825207905,0.00708018616006711
1580423490.6825,-0.968520637827115,-0.247318226901655,-0.00659189745937283
1580423490.7148,-0.973403524834058,-0.254642557412071,0.00122072175173571
1580423490.7471,-0.957289997711147,-0.237064164187075,0.0109864957656214
1580423490.7794,-0.969497215228504,-0.23657587548638,-0.00170901045242999
1580423490.8117,-0.97242694743267,-0.254642557412071,-0.00659189745937283
1580423490.84399,-0.958266575112535,-0.248783093003738,-0.00366216525520713
1580423490.87631,-0.956801709010453,-0.249759670405126,-0.0163576714732585
1580423490.90861,-0.950942244602121,-0.24682993820096,-0.0104982070649271
1580423490.94091,-0.953871976806287,-0.24682993820096,-0.0231937132829785
1580423490.97321,-0.949477378500038,-0.244876783398183,-0.0329594872968642
1580423491.00551,-0.971450370031281,-0.250736247806516,-0.00659189745937283
1580423491.0378,-0.961684596017395,-0.234622720683603,-0.0139162279697871
1580423491.0701,-0.96559090562295,-0.240482185091935,0.00805676356145568
1580423491.1024,-0.976821545738918,-0.226810101472495,0.00561532005798426
1580423491.1347,-0.974380102235447,-0.231204699778743,0.00268558785381856
1580423491.167,-0.96900892652781,-0.216067750057221,0.00219729915312428
1580423491.1993,-1.00660715648127,-0.222415503166246,0.0104982070649271
1580423491.2316,-0.984145876249332,-0.203860532539863,0.00317387655451284
1580423491.2639,-1.00465400167849,-0.200930800335698,-0.0231937132829785
1580423491.29619,-1.02760357061112,-0.222415503166246,-0.0222171358815899
1580423491.32849,-1.00758373388266,-0.236087586785686,-0.00659189745937283
1580423491.36079,-0.923598077363241,-0.287357900358588,0.0256351567864499
1580423491.39309,-0.953871976806287,-0.261478599221791,0.00854505226214997
1580423491.42539,-0.973403524834058,-0.127199206530861,0.0187991149767299
1580423491.45769,-0.990981918059052,-0.0588387884336612,0.0813000686655982
1580423491.48998,-1.0036774242771,-0.0725108720531011,0.0881361104753182
1580423491.52228,-1.05445944914931,-0.11792172121767,0.200930800335698
1580423491.55458,-1.11305409323262,-0.0222171358815899,0.252201113908598
1580423491.58688,-1.00074769207294,-0.0129396505683985,0.260013733119706
1580423491.61918,-0.956801709010453,-0.231204699778743,0.210696574349583
1580423491.65148,-0.954848554207675,0.0388189517051956,0.259525444419012
1580423491.68378,-0.800061036087587,-0.0539559014267184,0.242435339894712
1580423491.71607,-0.782482642862593,-0.0900892652780954,0.197024490730143
1580423491.74837,-0.599374380102235,-0.137941557946135,0.0144045166704814
1580423491.78067,-0.651132982375829,-0.184817273212786,-0.0432135500114441
1580423491.81297,-1.42653543907836,0.844983596551462,0.610605020218205
1580423491.84527,-1.79226367589838,-0.0383306630045013,0.103761348897535
1580423491.87757,-0.38794537270161,-0.469001297016861,-0.073975738155184
1580423491.90987,-1.25856412603952,0.197512779430838,-0.231692988479438
1580423491.94216,-1.08375677119097,0.665293354695965,-0.305912870984971
1580423491.97446,-0.829846646829939,-0.0339360646982527,-0.204837109941252
1580423492.00676,-0.942641336690318,0.112550545510032,-0.0632333867399097
1580423492.03906,-1.0207675288014,0.0539559014267184,0.0402838178072784
1580423492.07136,-1.00514229037919,0.0300297550926985,0.132082093537804
1580423492.10366,-0.934340428778516,0.186770428015564,0.149660486762798
1580423492.13596,-0.972915236133364,0.388921950102997,0.114015411612115
1580423492.16827,-0.937270160982681,0.385992217898831,-0.0197756923781185
1580423492.20057,-0.857679102769513,0.136476691844052,-0.0876478217746239
1580423492.23287,-1.03102159151598,0.204348821240558,-0.152590218966964
1580423492.26517,-1.10035858701457,0.218509193560692,-0.223392080567635
1580423492.29747,-0.904554818036164,0.4484931715877,-0.153078507667658
1580423492.32976,-0.900160219729916,0.776623178454262,0.031006332494087
1580423492.36206,-1.05152971694514,0.731700617990388,0.433356221866177
1580423492.39436,-1.18483253223468,0.819592584115359,0.841565575646602
1580423492.42666,-1.13893339436942,0.56665903715572,0.963149462119478
1580423492.45896,-1.32252994583047,-0.454840924696727,0.0910658426794839
1580423492.49125,-1.4314183260853,-0.727306019684137,-0.263920042725262
1580423492.52355,-1.34157320515755,0.138918135347524,-0.270267795834288
1580423492.55585,-1.49489585717556,-0.031006332494087,0.117433432516975
1580423492.58815,-0.846448462653544,0.462653543907834,-0.209231708247501
1580423492.62045,-0.553963530937667,-0.37427328908217,-0.489509422446021
1580423492.65275,0.642832074464028,-0.178469520103761,-0.727306019684137
1580423492.68504,0.506599526970323,1.66579690241856,0.368413824673837
1580423492.71734,-1.65798428320745,0.733653772793165,0.909925993743801
1580423492.74964,-0.143801022354467,-1.41530479896239,0.62476539253834
1580423492.78194,-7.07017624170291,2.7644464789807,1.95828183413443
1580423492.81423,0.357183184557869,-1.95437552452888,-1.24733348592355
1580423492.84653,-0.93141069657435,-1.08570992599374,-1.1150072480354
1580423492.87883,-0.730235751888303,2.15408560311284,-0.922621499961853
1580423492.91113,-1.21510643167773,-0.364995803768979,-0.950942244602121
1580423492.94343,-1.13112077515831,0.259525444419012,-0.377203021286336
1580423492.97573,-1.42653543907836,0.786877241168842,0.23315785458152
1580423493.00802,-1.21364156557565,0.740978103303579,0.57349507896544
1580423493.04032,-1.22291905088884,0.749767299916076,0.898695353627833
1580423493.07262,-0.990493629358358,0.840100709544519,0.978286411841001
1580423493.10492,-0.598886091401541,0.865491721980622,0.802990768291753
1580423493.13722,-0.37085526817731,0.0593270771343555,0.61451132982376
1580423493.16951,-0.0822766460669868,-0.106202792401007,0.0158693827725642
1580423493.20181,-0.948989089799344,0.817151140611887,-0.0988784618905925
1580423493.23411,-3.84649423971923,0.520759899290457,-0.474860761425193
1580423493.26641,-1.80935378042268,-0.255619134813459,-0.165774013885709
1580423493.29871,-2.41824979018845,-0.350835431448845,-0.0046387426565957
1580423493.331,-1.33571374074922,-0.293705653467613,-0.0881361104753182
1580423493.3633,-0.916273746852827,0.00952162966353853,-0.413824673838407
1580423493.3956,-0.448981460288396,-0.254642557412071,-0.431403067063401
1580423493.4279,-0.0402838178072784,-0.0456549935149155,-0.358648050659953
1580423493.46017,-0.606698710612649,0.0681162737468526,-0.402105745021744
1580423493.49247,-0.484138246738384,1.3972381170367,0.76734569314107
1580423493.52477,-0.71851682307164,0.946547646295873,0.206790264744029
1580423493.55707,-0.168215457389181,0.0280766002899213,1.38747234302281
1580423493.58937,-0.677012283512626,-1.21559472037842,0.414801251239794
1580423493.62167,-3.05546654459449,0.472907606622414,1.23170824750133
1580423493.65396,0.0222171358815899,-2.10037384603647,-1.04518196383612
1580423493.68626,-1.40260929274434,-0.0725108720531011,-0.354741741054399
1580423493.71856,-1.10719462882429,0.582284275577937,-0.325444419012742
1580423493.75086,-1.34108491645686,-0.210208285648889,-0.649668116273746
1580423493.78315,-1.57839322499428,0.286381322957197,-0.954848554207675
1580423493.81545,-1.56667429617761,0.595468070496683,-0.807385366598002
1580423493.84775,-1.92507820248722,0.736095216296636,0.10083161669337
1580423493.88005,-1.61159685664149,1.2429388876173,1.11354238193332
1580423493.91235,-0.797131303883422,0.0217288471808956,1.64382391088731
1580423493.94465,-0.385015640497445,0.927016098268101,0.856702525368124
1580423493.97694,-0.242923628595406,0.657480735484857,0.227298390173189
1580423494.00924,-0.256107423514154,0.00659189745937283,0.0983901731898982
1580423494.04154,-0.951430533302815,-0.0524910353246355,-0.189211871519035
1580423494.07384,-2.62674906538491,0.5256427862974,-0.126710917830167
1580423494.10614,-1.55446707866026,0.0793469138628211,-0.115968566414892
1580423494.13843,-2.0549629968719,0.0300297550926985,-0.139406424048218
1580423494.17073,-1.74196993972686,0.103761348897535,-0.142824444953078
1580423494.20303,-1.31764705882353,0.0402838178072784,-0.322026398107882
1580423494.23533,-0.985122453650721,-0.044678416113527,-0.390386816205082
1580423494.26763,-0.429449912260624,-0.45630579079881,-0.265384908827345
1580423494.29992,-0.208743419546806,-0.361577782864119,-0.366460669871062
1580423494.33222,-0.337651636530099,0.630136568245977,0.0471198596169984
1580423494.36452,-0.612558175020981,1.52761120012207,0.732677195391776
1580423494.39682,-0.674082551308461,0.420172426947431,0.608163576714734
1580423494.42912,-0.0363775082017241,-0.291264209964142,0.551522087434197
1580423494.46141,-0.0612802319371326,-1.91140611886778,0.466071564812694
1580423494.49371,-4.84553292133974,1.99148546578164,1.40846875715267
1580423494.52601,0.048096437018387,-1.9436331731136,-0.737071793698023
1580423494.55831,-0.772228580148013,-0.178469520103761,-0.77759975585565
1580423494.59061,-1.6706797894255,0.750743877317465,-0.960219729915313
1580423494.62291,-1.16285954070344,0.0271000228885327,-1.00563057907988
1580423494.6552,-1.6106202792401,-0.133546959639887,-0.68091859311818
1580423494.6875,-1.56179140917067,0.405523765926603,-0.546639200427252
1580423494.7198,-1.64821850919356,0.614023041123065,-0.120363164721141
1580423494.75217,-1.39919127183948,1.08717479209583,0.501228351262686
1580423494.78446,-1.09205767910277,0.838147554741742,1.07057297627222
1580423494.81676,-0.760021362630656,0.323002975509269,1.50173189898528
1580423494.84906,-0.307377737087053,0.858167391470207,0.778088044556345
1580423494.88136,-0.279056992446785,0.425055313954374,0.218509193560692
1580423494.91366,-0.550545510032807,-0.0529793240253298,-0.112550545510032
1580423494.94596,-2.80204470893416,0.362066071564811,-0.668223086900129
1580423494.97825,-1.70778973067826,0.582772564278631,-0.103273060196841
1580423495.01055,-2.42655069810025,-0.23657587548638,-0.206790264744029
1580423495.04285,-2.00613412680247,0.145754177157244,-0.232181277180132
1580423495.07515,-1.57985809109636,0.198489356832226,-0.283939879453728
1580423495.10745,-1.17994964522774,-0.0432135500114441,-0.605722133211261
1580423495.13974,-0.46314183260853,-0.623300526436255,-0.426031891355764
1580423495.17204,0.355718318455786,-1.40505073624781,-0.540779736018921
1580423495.20434,0.114015411612115,0.188723582818341,-0.589120317387655
1580423495.23664,-0.814221408407722,1.76296635385672,1.81081864652476
1580423495.26894,-0.761974517433433,0.276127260242617,0.627695124742505
1580423495.30123,-0.10424963759823,-0.797131303883422,-0.176028076600289
1580423495.33353,-0.717540245670252,-0.874769207293813,1.55544365606165
1580423495.36583,-1.8752727550164,0.43823910887312,-0.341557946135653
1580423495.39813,0.956313420309758,-2.08963149462119,-1.41921110856794
1580423495.43043,-2.7126878767071,1.17555504692149,-1.00318913557641
1580423495.46272,-1.22145418478675,-0.150637064164187,-0.476325627527276
1580423495.49502,-1.48757152666514,-0.101808194094758,-0.786877241168842
1580423495.52732,-1.4309300373846,0.260990310521095,-0.79127183947509
1580423495.55962,-1.74099336232547,0.585702296482797,-0.470954451819638
1580423495.59192,-1.6706797894255,0.814709697108416,0.28101014724956
1580423495.62421,-1.22243076218814,0.988052185854887,0.898207064927139
1580423495.65651,-0.901136797131304,0.569100480659191,1.54567788204776
1580423495.68881,-0.468513008316167,0.91432059205005,0.998794537270161
1580423495.72111,-0.404058899824522,0.449958037689782,0.260990310521095
1580423495.75341,-0.383062485694667,-0.145754177157244,-0.0529793240253298
1580423495.7857,-1.79324025329976,0.215091172655832,-0.321049820706493
1580423495.818,-1.92800793469139,0.768322270542459,-0.0749523155565726
1580423495.8503,-2.08133058670939,-0.293217364766919,-0.229251544975966
1580423495.8826,-2.07595941100175,0.128175783932249,-0.344487678339819
1580423495.9149,-1.52712291142138,0.101808194094758,-0.256595712214848
1580423495.9472,-1.2175478751812,0.26392004272526,-0.519783321889067
1580423495.97949,-0.632578011749446,-0.274662394140536,-0.453864347295339
1580423496.01179,-0.147707331960021,-1.04176394293126,-0.35034714274815
1580423496.0441,0.0754406042572668,-0.34351110093843,-0.560311284046692
1580423496.0764,-0.44263370717937,0.812268253604945,0.621835660334174
1580423496.10869,-0.845471885252156,1.17213702601663,0.927504386968796
1580423496.14099,-0.317631799801633,-0.679453727016098,0.137941557946135
1580423496.17329,-0.36401922636759,-1.41676966506447,0.89381246662089
1580423496.20559,-2.32205691615168,1.57204547188525,0.278080415045395
1580423496.23789,0.341557946135651,-1.9265430685893,-0.895765621423667
1580423496.27018,-0.729259174486915,-0.0124513618677042,-0.522713054093233
1580423496.30248,-1.39333180743114,0.618905928130008,-0.469001297016861
1580423496.33478,-1.21412985427634,-0.302983138780805,-0.647714961470969
1580423496.36708,-1.36012817578393,-0.0207522697795071,-0.823498893720913
1580423496.39938,-1.6535896849012,0.712169069962616,-0.705333028152895
1580423496.43167,-1.64870679789425,0.676523994811934,0.187747005416952
1580423496.46397,-1.65700770580606,0.909925993743801,0.966567483024338
1580423496.49627,-1.11842526894026,0.629648279545282,1.63405813687343
1580423496.52857,-0.442145418478676,1.22145418478675,1.16578927290761
1580423496.56087,-0.260502021820402,0.839612420843824,0.118898298619058
1580423496.59316,-0.381597619592585,-0.112062256809338,-0.142336156252384
1580423496.62546,-1.59304188601511,0.125734340428778,-0.263431754024568
1580423496.65776,-2.16043335622187,0.693125810635539,-0.0803234912642097
1580423496.69006,-2.09353780422675,-0.376226443884947,-0.299076829175251
1580423496.72236,-2.07156481269551,0.0617685206378269,-0.335210193026628
1580423496.75465,-1.4655985351339,-0.149172198062104,-0.287846189059282
1580423496.78695,-1.0808270389868,0.0520027466239412,-0.512947280079347
1580423496.81925,-0.606698710612649,-0.385015640497445,-0.431403067063401
1580423496.85155,0.258060578316929,-0.759044785229268,-0.489021133745327
1580423496.88385,0.0183108262760356,0.0759288929579611,-0.737071793698023
1580423496.91615,-0.837659266041047,1.31520561532006,1.38747234302281
1580423496.94844,-1.14235141527428,0.827893492027162,0.819104295414665
1580423496.98074,-0.200930800335698,-0.635507743953612,0.340581368734263
1580423497.01304,-0.308354314488442,-1.48805981536584,0.964126039520867
1580423497.04534,-2.12771801327535,0.838147554741742,0.11108567940795
1580423497.07764,0.570565346761274,-1.96853589684901,-0.947524223697261
1580423497.10993,-1.56716258487831,0.30493629358358,-0.740978103303577
1580423497.14223,-1.37868314641032,0.268314641031509,-0.378667887388419
1580423497.17453,-1.31862363622492,-0.0632333867399097,-0.765880827038988
1580423497.20683,-1.63796444647898,-0.0568856336308841,-0.635507743953612
1580423497.23913,-1.64919508659495,0.478278782330051,-0.315190356298162
1580423497.27143,-1.58083466849775,0.801037613488976,0.306889448386357
1580423497.30372,-1.0979171435111,0.846448462653544,0.757579919127185
1580423497.33612,-0.598886091401541,0.911390859845884,1.13795681696803
1580423497.36842,-0.335698481727322,1.32790112153811,0.864515144579233
1580423497.40072,-0.412848096437019,0.110109102006561,0.409918364232851
1580423497.43301,-0.563729304951552,-0.366460669871062,0.224368657969023
1580423497.46531,-2.45145342183566,0.00512703135728998,-0.593514915693904
1580423497.49761,-1.567650873579,0.455817502098114,-0.12133974212253
1580423497.52991,-2.30789654383154,0.165285725185015,-0.187258716716258
1580423497.56221,-1.9949034866865,0.336186770428014,-0.320561532005799
1580423497.5945,-1.64870679789425,0.364507515068283,-0.289311055161365
1580423497.6268,-1.28883802548257,0.135988403143358,-0.622812237735561
1580423497.6591,-0.685313191424429,-0.383550774395362,-0.580819409475852
1580423497.6914,-0.235599298084992,-0.73560692759594,-0.41187151903563
1580423497.7237,0.2434119172961,-0.71509880216678,-0.760509651331351
1580423497.756,-0.152101930266269,0.612558175020983,0.10766765850309
1580423497.78829,-0.984145876249332,1.33962005035477,1.38747234302281
1580423497.82059,-0.372320134279393,-0.411383230334936,0.616952773327231
1580423497.85289,0.264896620126649,-0.986587319752804,0.269779507133592
1580423497.88519,-3.50566872663462,2.09890897993439,0.324467841611352
1580423497.91749,0.0715342946517126,-2.56278324559396,-0.790783550774396
1580423497.94978,-0.505622949568933,-0.420660715648127,-0.654062714579995
1580423497.98208,-2.1662928206302,0.850354772259099,-1.03639276722362
1580423498.01438,-1.14381628137636,0.235111009384298,-1.01490806439307
1580423498.04668,-1.41628137636378,0.0583504997329669,-0.76392767223621
1580423498.07898,-1.39772640573739,-0.067139696345464,-0.659433890287632
1580423498.11127,-1.82986190585184,0.549080643930726,-0.257084000915542
1580423498.14357,-1.75417715724422,0.604745555809874,0.3288624399176
1580423498.17587,-1.19655146105135,0.948989089799344,0.670176241702908
1580423498.20817,-0.529549095902953,1.40993362325475,1.03053330281529
1580423498.24047,-0.427008468757153,1.23366140230411,1.11696040283818
1580423498.27276,-0.439703974975204,0.42114900434882,0.589120317387657
1580423498.30506,-0.696055542839703,-0.286381322957199,0.0993667505912867
1580423498.33736,-1.81130693522545,0.205325398641946,-0.547615777828641
1580423498.36966,-1.76687266346227,0.404547188525214,0.0451667048142212
1580423498.40196,-2.06424048218509,0.044678416113527,-0.0510261692225527
1580423498.43425,-2.05935759517815,0.0871595330739297,-0.358159761959259
1580423498.46655,-2.02761882963302,0.128664072632944,-0.222415503166246
1580423498.49885,-1.57888151369497,0.0373540856031127,-0.37085526817731
1580423498.53115,-0.779552910658428,-0.261478599221791,-0.454840924696727
1580423498.56345,-0.244388494697489,-0.76734569314107,-0.440680552376593
1580423498.59575,0.141847867551689,-0.189211871519035,-0.519783321889067
1580423498.62817,-0.109620813305867,0.653574425879302,-0.176516365300984
1580423498.66047,-0.639902342259861,1.24245059891661,0.417242694743265
1580423498.69277,-1.17018387121385,0.585214007782103,1.10035858701457
1580423498.72507,0.11108567940795,-1.13795681696803,-0.906507972838941
1580423498.75737,-0.0305180437933927,-0.510017547875181,1.04762340733959
1580423498.78967,-1.91531242847334,0.0910658426794839,-0.866956588082704
1580423498.82196,0.435309376668954,-1.19557488364996,-1.21266498817426
1580423498.85426,-2.23318837262531,0.908949416342413,-0.911879148546578
1580423498.88656,-1.05348287174792,0.0227054245822842,-0.628671702143892
1580423498.91886,-1.61599145494774,0.302494850080109,-0.733653772793163
1580423498.95116,-1.45094987411307,-0.126222629129472,-0.522713054093233
1580423498.98346,-1.59157701991302,0.060303654535744,-0.366460669871062
1580423499.01576,-1.68239871824216,0.713145647364005,0.0280766002899213
1580423499.04805,-1.27858396276799,0.86646829938201,0.564705882352943
1580423499.08035,-0.772228580148013,0.968032349126421,1.07985046158541
1580423499.11265,-0.395757991912719,1.25123979552911,1.30739299610895
1580423499.14495,-0.393316548409247,0.584725719081408,0.47925535973144
1580423499.17725,-0.435309376668956,-0.167238879987792,0.285893034256503
1580423499.20955,-1.30153353170062,0.129640650034332,-0.227786678873883
1580423499.24185,-2.28201724269474,0.692637521934845,-0.118898298619058
1580423499.27414,-2.20535591668574,-0.213626306553749,-0.434821087968261
1580423499.30644,-2.15701533531701,0.222903791866941,-0.232669565880826
1580423499.33874,-1.60378423743038,-0.161867704280155,-0.33325703822385
1580423499.37104,-1.28346684977493,-0.130617227435721,-0.420660715648127
1580423499.40334,-0.783947508964676,-0.426031891355764,-0.492927443350881
1580423499.43564,0.305424582284274,-1.39235523002976,-0.386480506599527
1580423499.46794,0.322514686808574,-0.0881361104753182,-0.77759975585565
1580423499.50023,-0.827893492027162,1.57936980239567,1.32985427634089
1580423499.53253,-0.940688181887541,0.948012512397955,0.383062485694666
1580423499.56483,-0.355230029755093,-0.352788586251622,0.776623178454262
1580423499.59713,-0.227298390173189,-1.58669413290608,0.76392767223621
1580423499.62943,-3.46318760967422,0.703868162050814,0.407965209430074
1580423499.66173,0.0813000686655982,-2.04226749065385,-0.857679102769513
1580423499.69403,-1.07106126497291,0.233646143282215,-0.741954680704966
1580423499.72633,-1.25368123903258,0.493415732051574,-0.488044556343938
1580423499.75862,-1.18483253223468,-0.0134279392690928,-0.70826276035706
1580423499.79092,-1.49391927977417,0.0290531776913099,-0.662851911192492
1580423499.82322,-1.42897688258183,0.135500114442664,-0.509040970473793
1580423499.85552,-1.64724193179217,0.56324101625086,-0.206301976043335
1580423499.88782,-1.36794079499504,1.00563057907988,0.38355077439536
1580423499.9202,-1.12233157854581,0.728770885786222,0.803479056992447
1580423499.95249,-0.851331349660487,0.312260624093994,1.21266498817426
1580423499.98479,-0.431403067063401,1.16090638590066,0.94850080109865
1580423500.01709,-0.384039063096056,0.345464255741206,0.35620660715648
1580423500.04939,-0.625741969939726,-0.0852063782711525,-0.0114747844663157
1580423500.08169,-2.42459754329747,0.296147096971083,-0.633554589150835
1580423500.11399,-1.79421683070115,0.508064393072406,0.00219729915312428
1580423500.14629,-2.31570916304265,-0.0803234912642097,-0.110109102006561
1580423500.17858,-1.92312504768444,0.160891126878766,-0.341557946135653
1580423500.21088,-1.55007248035401,-0.0358892195010299,-0.202883955138475
1580423500.24318,-1.0554360265507,0.0476081483176927,-0.472419317921721
1580423500.27548,-0.450934615091173,-0.222903791866941,-0.518318455786984
1580423500.30778,-0.176028076600289,-0.426520180056459,-0.283939879453728
1580423500.34008,0.027588311589227,-0.590585183489738,-0.560311284046692
1580423500.37238,-0.35376516365301,0.737071793698025,0.3801327534905
1580423500.40468,-1.13649195086595,1.46755168993667,1.22096589608606
1580423500.43697,-0.437262531471733,-0.48023193713283,0.793713282978562
1580423500.46927,-0.634531166552224,-1.14674601358053,0.65210955977722
1580423500.50157,-2.28006408789197,-0.0622568093385212,0.451422903791865
1580423500.53387,0.181887541008621,-2.17654688334478,-0.909925993743801
1580423500.56617,-1.81521324483101,0.575448233768217,-0.72877088578622
1580423500.59847,-1.18483253223468,0.302494850080109,-0.400640878919662
1580423500.63076,-1.19752803845273,-0.179446097505149,-0.74244296940566
1580423500.66306,-1.51100938429847,0.118410009918364,-0.736583504997329
1580423500.69536,-1.5422598611429,0.34253452353704,-0.468513008316167
1580423500.72766,-1.54372472724498,0.521248187991151,-0.0212405584802013
1580423500.75996,-1.4480201419089,0.858167391470207,0.507087815671017
1580423500.79226,-1.00660715648127,0.821057450217442,0.811291676203556
1580423500.82456,-0.739513237201495,0.5940032043946,1.17653162432288
1580423500.85685,-0.355230029755093,1.05055313954376,0.721446555275808
1580423500.88915,-0.256107423514154,0.308842603189134,0.28784618905928
1580423500.92145,-0.505622949568933,-0.172121766994735,-0.024170290684367
1580423500.95375,-2.68339055466545,0.464606698710611,-0.684824902723735
1580423500.98605,-1.6360112916762,0.572518501564051,0.0153810940718699
1580423501.01835,-2.24197756923781,-0.312260624093996,-0.0300297550926985
1580423501.05065,-1.89480430304418,0.244876783398183,-0.162355992980849
1580423501.08294,-1.59450675211719,0.231204699778743,-0.136476691844052
1580423501.11524,-1.22194247348745,0.153078507667658,-0.383550774395362
1580423501.14754,-0.656504158083466,-0.234622720683603,-0.325444419012742
1580423501.17984,-0.509529259174487,-0.595468070496681,-0.272709239337759
1580423501.21216,0.0505378805218584,-0.101808194094758,-0.402105745021744
1580423501.24446,0.134035248340581,0.992446784161135,0.0148928053711757
1580423501.27675,-0.664316777294575,1.51882200350958,0.646738384069582
1580423501.30905,-0.659433890287632,-0.443121995880064,0.836194399938964
1580423501.34135,-0.175051499198901,-2.26639200427253,0.805920500495919
1580423501.37365,-2.88749523155566,0.840588998245213,-0.0153810940718699
1580423501.40595,-0.127199206530861,-0.922133211261158,-0.964126039520867
1580423501.43825,-1.64138246738384,0.35278858625162,-0.588143739986267
1580423501.47055,-1.35182726787213,0.0104982070649271,-0.584725719081407
1580423501.50284,-1.52956435492485,-0.123292896925307,-0.644785229266803
1580423501.53514,-1.46462195773251,0.0886243991760125,-0.709239337758449
1580423501.56744,-1.74099336232547,0.519783321889069,-0.604257267109178
1580423501.59974,-1.56960402838178,0.726817730983445,0.10766765850309
1580423501.63204,-1.23610284580758,1.00660715648127,0.649668116273748
1580423501.66434,-0.855237659266042,0.481696803234911,1.05738918135348
1580423501.69664,-0.437262531471733,0.788342107270925,1.22682536049439
1580423501.72894,-0.289311055161365,0.838147554741742,0.674082551308462
1580423501.76123,-0.368413824673839,-0.0720225833524069,0.222903791866941
1580423501.79353,-1.19996948195621,0.0114747844663157,-0.131593804837109
1580423501.82583,-2.06472877088579,0.582772564278631,-0.169680323491264
1580423501.85813,-1.86208896009766,-0.0495613031204698,-0.219974059662775
1580423501.89043,-2.40262455176623,0.179934386205844,-0.115480277714198
1580423501.92273,-1.77615014877546,-0.0422369726100555,-0.265384908827345
1580423501.95502,-1.51540398260471,0.194094758525978,-0.433844510566873
1580423501.98732,-1.0383459220264,-0.103273060196841,-0.507087815671015
1580423502.01962,-0.409430075532159,-0.446540016784924,-0.409918364232853
1580423502.05192,0.0227054245822842,-0.990005340657664,-0.415777828641184
1580423502.08422,0.0109864957656214,0.0314946211947813,-0.384039063096056
1580423502.11652,-0.706797894254978,1.44557869840543,0.667734798199437
1580423502.14882,-0.93482871747921,1.1921568627451,0.591073472190434
1580423502.18111,-0.244388494697489,-0.456794079499504,-0.131593804837109
1580423502.21341,-0.117433432516975,-1.31862363622492,0.824475471122302
1580423502.24571,-2.34451819638361,0.760997940032045,-0.0788586251621268
1580423502.27801,1.15651178759441,-2.23514152742809,-0.831799801632716
1580423502.31031,-1.26247043564508,0.517341878385597,-0.746837567711909
1580423502.34261,-1.14869916838331,0.254642557412069,-0.38110933089189
1580423502.37491,-0.991470206759747,0.0832532234683754,-0.795178149080645
1580423502.4072,-1.68484016174563,-0.112550545510032,-0.730724040588997
1580423502.4395,-1.40944533455406,0.048096437018387,-0.448004882887007
1580423502.4718,-1.73122758831159,0.674082551308462,0.0290531776913099
1580423502.50421,-1.57399862668803,0.779064621957733,0.656992446784162
1580423502.53651,-0.997817959868772,0.967055771725033,1.19411001754787
1580423502.56881,-0.448981460288396,1.27663080796521,1.21022354467079
1580423502.60111,-0.279545281147479,0.913344014648661,0.37671473258564
1580423502.6334,-0.314213778896773,0.0759288929579611,0.141359578850995
1580423502.6657,-0.91432059205005,-0.219974059662775,-0.312260624093996
1580423502.698,-2.56961928740368,0.484138246738382,-0.236087586785686
1580423502.7303,-1.66628519111925,0.034424353398947,-0.161867704280155
1580423502.7626,-2.48270389868009,-0.263920042725262,-0.154543373769741
1580423502.7949,-1.66579690241855,0.0539559014267184,-0.138429846646829
1580423502.8272,-1.36940566109712,0.244388494697489,-0.257084000915542
1580423502.85949,-0.94850080109865,-0.214602883955138,-0.531990539406424
1580423502.89179,-0.329350728618296,-0.531990539406424,-0.38110933089189
1580423502.92409,0.121828030823224,-0.750255588616771,-0.656504158083466
1580423502.95639,-0.141359578850995,0.135988403143358,-0.330327306019685
1580423502.98869,-0.83570611123827,2.0124818799115,0.979751277943084
1580423503.02099,-0.519783321889067,0.635996032654308,0.596444647898071
1580423503.05329,-0.138429846646829,-0.763439383535516,-0.0969253070878153
1580423503.08558,-1.61599145494774,1.88796826123446,-0.138429846646829
1580423503.11788,-1.24049744411383,-0.589120317387655,-0.782970931563288
1580423503.15018,-0.0710460059510183,-1.27321278706035,-0.872816052491036
1580423503.18248,-2.55741206988632,1.09449912260624,-1.02467383840696
1580423503.21478,-1.27907225146868,-0.178469520103761,-0.955825131609064
1580423503.24708,-1.48561837186236,0.0451667048142212,-0.819104295414665
1580423503.27938,-1.56276798657206,0.0876478217746239,-0.660898756389715
1580423503.31167,-1.54958419165331,0.372808422980086,-0.276615548943314
1580423503.34397,-1.49391927977417,0.977309834439613,0.307377737087052
1580423503.37627,-1.17653162432288,0.858655680170902,0.79810788128481
1580423503.40857,-0.784924086366065,0.788830395971619,1.16041809719997
1580423503.44087,-0.370366979476616,1.14869916838331,0.926039520866713
1580423503.47317,-0.420660715648127,0.329350728618294,0.38355077439536
1580423503.50547,-0.473884184023804,-0.257084000915542,0.134035248340581
1580423503.53777,-1.83962767986572,-0.0568856336308841,-0.323491264209965
1580423503.57006,-1.66921492332341,0.599862668802931,-0.131593804837109
1580423503.60236,-2.22635233081559,-0.0515144579232469,-0.238529030289158
1580423503.63466,-1.99832150759136,0.53589684901198,-0.365972381170367
1580423503.66696,-1.81423666742962,0.429938200961317,-0.263920042725262
1580423503.69926,-1.4914778362707,0.268802929732203,-0.513435568780041
1580423503.73156,-0.657969024185549,-0.330815594720379,-0.465094987411307
1580423503.76385,-0.322026398107882,-0.772228580148013,-0.406988632028687
1580423503.7962,0.255619134813458,-1.21901274128328,-0.0651865415426869
1580423503.8285,0.333257038223849,0.39038681620508,-0.327397573815519
1580423503.8608,-0.352300297550928,2.49149309529259,1.41725795376516
1580423503.8931,-0.639902342259861,-0.385503929198139,1.05299458304723
1580423503.9254,0.0949721522850382,-1.87966735332265,0.496345464255739
1580423503.9577,-2.12429999237049,0.566170748455026,0.733653772793165
1580423503.99,1.30983443961242,-2.72733653772793,-0.89039444571603
1580423504.02229,-1.71902037079423,0.524666208896011,-0.90748455024033
1580423504.05459,-1.04322880903334,0.417242694743265,-0.426031891355764
1580423504.08689,-1.13453879606317,0.0314946211947813,-0.802990768291753
1580423504.11919,-1.59938963912413,0.077393759060044,-0.726817730983443
1580423504.15149,-1.414328221561,0.0305180437933927,-0.508552681773098
1580423504.18379,-1.66530861371786,0.732188906691082,0.00805676356145568
1580423504.21608,-1.52028686961166,0.935805294880598,0.542244602121006
1580423504.24838,-1.04957656214237,1.03395132372015,1.04127565423056
1580423504.28068,-0.561287861448081,0.723887998779279,1.39089036392767
1580423504.31298,-0.259037155718319,0.924086366063936,0.633066300450142
1580423504.34528,-0.134035248340581,0.129152361333638,0.198977645532921
1580423504.37758,-0.522224765392538,-0.251712825207905,-0.257084000915542
1580423504.40988,-2.89042496375982,0.326420996414129,-0.865980010681316
1580423504.44217,-1.67653925383383,0.437750820172425,-0.103761348897535
1580423504.47447,-2.39334706645304,-0.146242465857938,-0.0124513618677042
1580423504.50677,-1.81179522392615,0.170168612191958,-0.115968566414892
1580423504.53907,-1.5847409781033,0.149172198062104,-0.0539559014267184
1580423504.57137,-1.16334782940413,-0.102296482795452,-0.325932707713436
1580423504.60367,-0.494392309452964,-0.491462577248798,-0.332768749523156
1580423504.63597,-0.449958037689784,-0.51441214618143,-0.282963302052339
1580423504.66826,-0.131105516136415,-0.264408331425956,-0.575448233768215
1580423504.70056,-0.177004654001678,1.25270466163119,0.105714503700312
1580423504.73286,-0.523689631494621,1.31960021362631,0.295170519569695
1580423504.76516,-0.445075150682841,-0.706309605554283,0.163820859082932
1580423504.79746,-0.00952162966353853,-1.54763103685054,0.836194399938964
1580423504.82976,-3.19267566948959,1.52224002441444,0.578866254673077
1580423504.86206,0.365484092469671,-1.56179140917067,-0.533455405508507
1580423504.89435,-0.594979781795987,-0.0725108720531011,-0.746349279011215
1580423504.92665,-1.50954451819638,0.368902113374531,-0.712657358663309
1580423504.95895,-0.961684596017395,-0.0207522697795071,-0.693614099336232
1580423504.99125,-1.7043717097734,0.150637064164187,-0.650156404974441
1580423505.02355,-1.48708323796445,-0.138429846646829,-0.595468070496681
1580423505.05585,-2.02273594262608,0.347417410543983,-0.24682993820096
1580423505.08819,-1.65749599450675,0.980727855344472,0.448004882887005
1580423505.12049,-0.928969253070878,1.40114442664225,0.713633936064699
1580423505.15279,-0.78101777676051,0.86988632028687,1.47975890745403
1580423505.18509,-0.609140154116121,0.879163805600061,1.1403982604715
1580423505.21739,-0.380132753490502,0.370855268177309,0.183840695811398
1580423505.24969,-0.629648279545281,-0.0886243991760125,-0.208743419546806
1580423505.28199,-2.32156862745098,0.220462348363469,-0.785412375066759
1580423505.31429,-1.96755931944762,0.282475013351643,0.0656748302433812
1580423505.34659,-2.04812695506218,-0.00805676356145568,-0.174563210498206
1580423505.37889,-1.97097734035248,0.169680323491264,-0.312260624093996
1580423505.41119,-1.7649195086595,0.070557717250324,-0.11792172121767
1580423505.44349,-1.26100556954299,-0.0544441901274126,-0.367925535973145
1580423505.47578,-0.598886091401541,-0.539314869916838,-0.385992217898833
1580423505.50808,-0.185305561913481,-1.03639276722362,-0.419195849546044
1580423505.54038,0.288334477759975,-0.0427252613107498,-0.726817730983443
1580423505.57268,-0.462165255207141,1.64138246738384,0.272709239337757
1580423505.60498,-0.707774471656366,1.36159304188601,0.166750591287098
1580423505.63728,-0.462653543907836,-0.426520180056459,0.0666514076447697
1580423505.66958,0.0920424200808725,-1.67800411993591,0.986587319752804
1580423505.70188,-4.0286259250782,0.771740291447319,0.254642557412069
1580423505.73418,0.78785381857023,-2.08865491721981,-0.601327534905012
1580423505.76647,-0.924086366063936,0.368902113374531,-0.96217288471809
1580423505.79877,-1.03688105592432,0.449958037689782,-0.619394216830701
1580423505.83107,-1.0378576333257,0.161867704280155,-0.74244296940566
1580423505.86337,-1.81326009002823,0.114991989013504,-0.6877546349279
1580423505.89567,-1.48854810406653,-0.431891355764096,-0.348882276646068
1580423505.92797,-1.85183489738308,0.32202639810788,0.101808194094758
1580423505.96027,-1.44899671931029,0.602792401007097,0.553963530937668
1580423505.99257,-0.795666437781339,0.98951705195697,0.740978103303579
1580423506.02487,-0.461676966506447,1.20729381246662,1.12477302204929
1580423506.05717,-0.359136339360647,1.23903257801175,0.595956359197377
1580423506.08947,-0.375738155184253,0.296147096971083,0.178957808804455
1580423506.12176,-0.752697032120242,-0.240970473792629,0.0539559014267184
1580423506.15406,-2.46414892805371,0.561287861448083,-0.632578011749446
1580423506.18636,-1.94460975051499,0.37329671168078,-0.0715342946517126
1580423506.21866,-2.26492713817044,-0.379644464789807,-0.10424963759823
1580423506.25096,-1.9182421606775,0.0510261692225527,-0.362554360265507
1580423506.28326,-1.55593194476234,0.0983901731898982,-0.169680323491264
1580423506.31556,-1.3454795147631,0.168703746089875,-0.325444419012742
1580423506.34786,-0.640390630960555,-0.254642557412071,-0.414801251239796
1580423506.38019,-0.23315785458152,-0.698496986343175,-0.318120088502328
1580423506.41249,-0.00708018616006711,-0.421149004348822,-0.248783093003738
1580423506.44479,-0.214114595254443,0.898207064927139,0.0573739223315783
1580423506.47708,-0.613046463721675,1.28639658197909,0.620370794232091
1580423506.50938,-0.556893263141832,-0.167727168688486,0.963149462119478
1580423506.54168,0.218509193560692,-0.851819638361182,-0.554451819638361
1580423506.57398,-1.94509803921569,3.99884031433585,-0.817151140611887
1580423506.60628,-2.00173952849622,-1.13942168307011,-1.1750667582208
1580423506.63858,-0.238040741588463,-0.600839246204318,-0.844983596551462
1580423506.67088,-2.21365682459754,1.20094605935759,-0.891371023117419
1580423506.70318,-1.30641641870756,0.070557717250324,-0.839612420843824
1580423506.73548,-1.43923094529641,0.155031662470435,-0.668223086900129
1580423506.76778,-1.42702372777905,-0.264408331425956,-0.590585183489738
1580423506.80007,-1.65700770580606,0.0915541313801782,-0.479743648432136
1580423506.83237,-1.81228351262684,0.960708018616007,0.00219729915312428
1580423506.86467,-1.38503089951934,1.30006866559853,0.695078965438316
1580423506.89697,-0.989028763256275,0.591561760891128,1.23854428931105
1580423506.92927,-0.634531166552224,0.688242923628597,1.20289921416037
1580423506.96157,-0.359136339360647,0.77418173495079,0.680918593118182
1580423506.99387,-0.45288776989395,-0.135988403143358,0.207278553444723
1580423507.02617,-1.10133516441596,-0.105714503700312,-0.250736247806516
1580423507.05847,-1.80593575951782,0.443121995880063,-0.317143511100939
1580423507.09077,-1.81863126573587,0.0632333867399097,-0.116456855115587
1580423507.12307,-2.20535591668574,0.26733806363012,-0.172610055695429
1580423507.15536,-1.90798809796292,0.178469520103761,-0.199465934233615
1580423507.18766,-1.52028686961166,0.159914549477378,-0.252201113908599
1580423507.21996,-0.892835889219501,-0.067139696345464,-0.347417410543985
1580423507.25226,-0.307866025787748,-0.437262531471733,-0.39819943541619
1580423507.28456,-0.266361486228734,-0.354253452353705,-0.273197528038454
1580423507.31686,0.0393072404058898,0.0300297550926985,-0.443610284580759
1580423507.34916,-0.415777828641184,1.13551537346456,0.476813916227968
1580423507.38146,-0.865491721980622,0.78443579766537,1.18825055313954
1580423507.41376,-0.0217288471808956,-1.01930266269932,-0.844983596551462
1580423507.44606,-0.156496528572518,-0.958266575112535,1.12867933165484
1580423507.47835,-2.08181887541009,0.613046463721677,-0.988052185854887
1580423507.51065,1.10572976272221,-1.96023498893721,-1.10572976272221
1580423507.54295,-1.85232318608377,0.90748455024033,-0.720469977874417
1580423507.57525,-1.04469367513542,0.244388494697489,-0.411383230334936
1580423507.60755,-1.35329213397421,-0.0100099183642328,-0.706797894254978
1580423507.63985,-1.50759136339361,-0.226810101472495,-0.719005111772335
1580423507.67224,-1.64724193179217,0.202883955138475,-0.541268024719615
1580423507.70454,-1.74831769283589,0.945571068894484,0.0466315709163041
1580423507.73684,-1.33083085374228,1.00172426947433,0.715098802166782
1580423507.76914,-0.762951094834822,0.635507743953614,1.06080720225834
1580423507.80144,-0.434332799267567,1.11451895933471,1.00807202258335
1580423507.83374,-0.392339971007859,0.742931258106356,0.578866254673077
1580423507.86604,-0.430914778362707,-0.0666514076447697,0.160891126878766
1580423507.89834,-1.12867933165484,0.184817273212786,-0.218020904859998
1580423507.93064,-1.83962767986572,0.32202639810788,-0.140871290150301
1580423507.96294,-2.00662241550317,-0.137941557946135,-0.0910658426794839
1580423507.99524,-2.16678110933089,0.0993667505912867,-0.144777599755855
1580423508.02754,-1.87380788891432,0.170656900892652,-0.172121766994735
1580423508.05983,-1.48854810406653,0.206790264744029,-0.209719996948195
1580423508.09213,-0.960219729915313,-0.00805676356145568,-0.385992217898833
1580423508.12443,-0.401129167620356,-0.340581368734265,-0.444586861982147
1580423508.15673,-0.323979552910659,-0.445075150682841,-0.306401159685665
1580423508.18903,0.0607919432364383,-0.141847867551689,-0.395757991912719
1580423508.22133,-0.505134660868238,1.36061646448463,0.503669794766157
1580423508.25363,-0.862561989776456,0.968032349126421,0.811291676203556
1580423508.28593,0.0461432822156098,-1.4485084306096,-0.592050049591821
1580423508.31823,0.0212405584802013,-0.756115053025102,0.838147554741742
1580423508.35053,-2.62381933318074,-0.0271000228885327,-1.18483253223468
1580423508.38283,1.37672999160754,-2.16531624322881,-1.17701991302357
1580423508.41513,-2.3879758907454,1.65993743801022,-1.09938200961318
1580423508.44743,-1.0378576333257,-0.187258716716258,-0.472419317921721
1580423508.47973,-1.2946974898909,0.170656900892652,-0.69800869764248
1580423508.51203,-1.40407415884642,-0.205325398641946,-0.675059128709849
1580423508.54433,-1.43581292439155,0.113038834210727,-0.445075150682841
1580423508.57663,-1.71950865949493,0.656015869382774,0.0905775539787896
1580423508.60893,-1.43483634699016,0.668711375600825,0.588143739986268
1580423508.64123,-0.92115663385977,1.05983062485695,1.00758373388266
1580423508.67353,-0.576424811169604,1.38893720912489,1.22340733958953
1580423508.70582,-0.447028305485619,1.13502708476387,0.733653772793165
1580423508.73812,-0.458747234302281,-0.0832532234683754,0.190188448920424
1580423508.77042,-0.96217288471809,-0.0612802319371326,-0.196047913328755
1580423508.80272,-2.1404135194934,0.405523765926603,-0.702403295948729
1580423508.83502,-1.93484397650111,-0.00659189745937283,-0.212649729152361
1580423508.86732,-2.25662623025864,-0.404058899824522,-0.0944838635843439
1580423508.89962,-1.95388723582818,0.269779507133592,-0.185793850614175
1580423508.93192,-1.55983825436789,0.195559624628061,-0.256595712214848
1580423508.96429,-1.18580910963607,0.0749523155565726,-0.37769130998703
1580423508.99659,-0.39478141451133,-0.373296711680782,-0.371343556878005
1580423509.02889,-0.0681162737468526,-0.676523994811932,-0.298100251773862
1580423509.06119,-0.0690928511482412,-0.813733119707027,-0.654062714579995
1580423509.09349,-0.542244602121004,0.2605020218204,0.210208285648889
1580423509.12579,-0.722911421377889,2.39822995345998,0.407965209430074
1580423509.15809,-0.203860532539863,0.395269703212023,0.39380483710994
1580423509.19039,-0.139894712748912,-1.70193026626993,0.728770885786222
1580423509.22269,-3.42510109102007,1.42311741817349,0.862073701075762
1580423509.25499,0.639902342259862,-2.01785305561913,-0.83912413214313
1580423509.28729,-0.553475242236972,0.149660486762798,-0.85963225757229
1580423509.31959,-1.31422903791867,0.317143511100937,-0.509529259174487
1580423509.35189,-0.868421454184787,-0.0153810940718699,-0.85963225757229
1580423509.38419,-1.73708705271992,-0.041260395208667,-0.800061036087587
1580423509.41649,-1.41872281986725,-0.0466315709163041,-0.471442740520333
1580423509.44879,-1.75027084763867,0.571053635461968,-0.0876478217746239
1580423509.48109,-1.58278782330053,0.85621423666743,0.51538872358282
1580423509.51339,-0.88697642481117,0.989028763256275,1.00465400167849
1580423509.54568,-0.628671702143892,1.14967574578469,1.34206149385824
1580423509.57798,-0.514900434882124,0.83570611123827,0.756115053025102
1580423509.61028,-0.480720225833524,-0.126222629129472,0.177492942702372
1580423509.64258,-0.897718776226444,-0.000732433051041426,-0.208255130846112
1580423509.67488,-1.82497901884489,0.772228580148013,-0.489997711146716
1580423509.70718,-2.05008010986496,0.126710917830167,-0.147219043259327
1580423509.73948,-2.26541542687114,-0.0778820477607383,-0.168215457389181
1580423509.77178,-2.09549095902953,0.0896009765774011,-0.257084000915542
1580423509.80408,-1.59499504081788,-0.00610360875867855,-0.179446097505149
1580423509.83638,-1.1408865491722,-0.0896009765774011,-0.348882276646068
1580423509.86868,-0.493415732051576,-0.46655985351339,-0.497810330357824
1580423509.90098,-0.24682993820096,-0.55884641794461,-0.41528953994049
1580423509.93328,0.23999389639124,-0.500251773861295,-0.418219272144656
1580423509.96558,-0.0856946669718468,1.2092469672694,-0.281010147249562
1580423509.99788,-0.937270160982681,1.50710307469291,1.07057297627222
1580423510.03018,-0.513923857480735,-0.465094987411307,1.08766308079652
1580423510.06248,0.0910658426794839,-1.3625696192874,0.565194171053637
1580423510.09478,-3.56816968032349,0.510017547875183,0.31519035629816
1580423510.12708,0.0939955748836496,-2.30350194552529,-0.532478828107118
1580423510.15938,-1.26540016784924,0.523201342793929,-0.788830395971619
1580423510.19168,-1.31032272831312,0.0690928511482412,-0.304448004882888
1580423510.22397,-1.00465400167849,-0.0651865415426869,-0.670664530403601
1580423510.25546,-1.70241855497063,0.2434119172961,-0.807873655298696
1580423510.28776,-1.48561837186236,0.0144045166704814,-0.51099412527657
1580423510.32006,-1.61159685664149,0.0124513618677042,-0.060303654535744
1580423510.35236,-1.74050507362478,0.783947508964676,0.422125581750208
1580423510.38465,-1.10182345311665,0.878675516899367,0.911879148546578
1580423510.41695,-0.577401388570992,1.07350270847639,1.2092469672694
1580423510.44925,-0.380132753490502,1.27809567406729,0.85963225757229
1580423510.48155,-0.491950865949493,0.24682993820096,0.198977645532921
1580423510.51385,-0.652109559777218,-0.292729076066225,0.102296482795452
1580423510.54614,-2.41190203707942,0.46216525520714,-0.600350957503624
1580423510.57844,-1.74441138323033,0.477790493629357,-0.0363775082017241
1580423510.61074,-2.19021896696422,-0.00512703135728998,-0.0129396505683985
1580423510.64304,-2.07449454489967,0.112550545510032,-0.269291218432899
1580423510.67534,-1.51979858091096,0.034424353398947,-0.11108567940795
1580423510.70764,-1.30446326390478,0.0813000686655982,-0.382085908293279
1580423510.73993,-0.599374380102235,-0.386968795300222,-0.427985046158541
1580423510.77223,-0.171633478294041,-0.546150911726558,-0.400640878919662
1580423510.80453,0.157961394674601,-0.392828259708553,-1.02467383840696
1580423510.83683,-0.354741741054399,0.82887006942855,-0.200930800335698
1580423510.86913,-0.871351186388953,1.69460593575952,0.721446555275808
1580423510.90142,-0.570077058060578,-0.535896849011978,1.57058060578317
1580423510.93372,0.61792935072862,-2.67704280155642,-0.241947051194018
1580423510.96602,-7.85925078202487,-16,3.30156404974441
1580423510.99832,-0.479255359731441,-1.80788891432059,-0.346440833142596
1580423511.03062,0.0187991149767299,-0.803479056992447,-0.978774700541695
1580423511.06291,-3.02226291294728,1.59645990691997,-0.926527809567407
1580423511.09521,-1.23952086671244,0.160891126878766,-0.938735027084764
1580423511.12751,-1.37624170290684,-0.044678416113527,-0.499275196459907
1580423511.15981,-1.38600747692073,-0.292729076066225,-0.586678873884184
1580423511.19211,-1.82693217364767,0.40064087891966,-0.317143511100939
1580423511.2244,-1.59157701991302,0.740489814602885,0.210208285648889
1580423511.2567,-1.14430457007706,0.911390859845884,0.640878919661251
1580423511.289,-0.743419546807049,0.799084458686199,0.901136797131304
1580423511.3213,-0.488532845044633,1.01002517738613,0.920668345159076
1580423511.3536,-0.45288776989395,0.404547188525214,0.50513466086824
1580423511.3859,-0.53833829251545,0.164309147783626,0.207766842145418
1580423511.41819,-1.47927061875334,0.286869611657892,-0.36060120546273
1580423511.45049,-1.76589608606088,0.683848325322348,-0.242435339894712
1580423511.48279,-2.25564965285725,-0.031006332494087,-0.218997482261386
1580423511.51509,-2.2429541466392,-0.181399252307926,-0.166750591287098
1580423511.54751,-1.80056458381018,-0.164797436484321,-0.172610055695429
1580423511.57981,-1.46755168993668,-0.0524910353246355,-0.213138017853055
1580423511.61211,-0.804455634393836,-0.198977645532921,-0.385503929198139
1580423511.64441,-0.252689402609294,-0.461188677805753,-0.450446326390479
1580423511.67671,0.0197756923781185,-0.633066300450141,-0.433356221866179
1580423511.70901,0.0725108720531011,0.135500114442664,-0.404058899824522
1580423511.74131,-0.756603341725796,1.7136491950866,0.532967116807814
1580423511.7736,-0.69800869764248,1.02906843671321,0.322514686808574
1580423511.8059,-0.143312733653772,-0.962661173418784,0.0212405584802013
1580423511.8382,-0.305912870984971,-0.161379415579461,0.548592355230031
1580423511.8705,-1.92507820248722,-0.89381246662089,-0.497810330357824
1580423511.9028,0.632089723048754,-1.55446707866026,-1.07057297627222
1580423511.9351,-2.4050659952697,1.8586709391928,-1.69802395666438
1580423511.9674,-1.22487220569161,-0.264408331425956,-0.718028534370946
1580423511.99969,-1.18678568703746,0.285404745555809,-0.651132982375829
1580423512.03199,-1.53054093232624,-0.260013733119708,-0.631601434348058
1580423512.06429,-1.53786526283665,-0.0676279850461583,-0.475837338826581
1580423512.09659,-1.59743648432135,0.42456702525368,-0.148195620660715
1580423512.12889,-1.42995345998322,0.935805294880598,0.418707560845348
1580423512.16119,-0.982192721446555,1.14137483787289,0.847425040054933
1580423512.19349,-0.667246509498741,0.944106202792401,1.45094987411307
1580423512.22579,-0.468024719615473,0.973891813534753,0.809338521400779
1580423512.25808,-0.534431982909895,0.246341649500266,0.104737926298924
1580423512.29038,-1.14625772487983,-0.0192874036774242,-0.219974059662775
1580423512.32268,-1.73513389791714,0.795178149080645,-0.380132753490502
1580423512.35498,-2.31668574044404,-0.0134279392690928,-0.260013733119708
1580423512.38728,-2.22293430991073,-0.526131074998093,-0.153566796368352
1580423512.41958,-1.88162050812543,0.0441901274128327,-0.386480506599527
1580423512.45187,-1.42800030518044,0.143801022354467,-0.110597390707255
1580423512.48417,-1.03150988021668,-0.0300297550926985,-0.373785000381476
1580423512.51647,-0.45972381170367,-0.501716639963378,-0.355230029755093
1580423512.54877,0.219485770962081,-1.11207751583123,-0.485603112840467
1580423512.58107,0.0588387884336612,0.230716411078049,-0.366948958571756
1580423512.61337,-0.669687953002212,1.3117875944152,0.809338521400779
1580423512.64567,-0.546150911726558,0.402105745021743,0.85963225757229
1580423512.67796,0.338628213931486,-1.56911573968109,-0.319096665903716
1580423512.71026,-2.25662623025864,7.80260929274434,-2.07351796749828
1580423512.74256,-1.32204165712978,-0.822522316319525,-0.648203250171663
1580423512.77486,0.522713054093234,-1.54909590295262,-0.932387273975738
1580423512.80716,-2.77811856260014,1.66970321202411,-1.31911192492561
1580423512.83954,-1.25807583733883,0.00366216525520713,-0.772716868848708
1580423512.87184,-1.30641641870756,0.115968566414892,-0.757579919127185
1580423512.90413,-1.4231174181735,-0.380132753490502,-0.74927901121538
1580423512.93643,-1.5847409781033,0.099855039291981,-0.489021133745327
1580423512.96873,-1.66872663462272,0.65552758068208,0.0759288929579611
1580423513.00103,-1.50417334248875,0.730724040588999,0.546639200427254
1580423513.03333,-0.830334935530633,0.893324177920196,0.989028763256275
1580423513.06563,-0.389410238803693,1.20680552376593,1.08863965819791
1580423513.09793,-0.315190356298162,0.932875562676433,0.5427328908217
1580423513.13022,-0.551033798733501,0.135500114442664,-0.00366216525520713
1580423513.16252,-1.41042191195544,0.103273060196841,-0.320561532005799
1580423513.19482,-1.92263675898375,0.387945372701608,-0.0900892652780954
1580423513.22712,-2.27322804608225,-0.163332570382238,-0.268314641031511
1580423513.25942,-2.13064774547951,-0.325444419012742,-0.273197528038454
1580423513.29172,-1.68191042954147,0.099855039291981,-0.169192034790569
1580423513.32402,-1.41042191195544,0.242435339894712,-0.252689402609294
1580423513.35631,-0.895277332722973,-0.154543373769741,-0.556404974441138
1580423513.38861,-0.277592126344702,-0.564705882352941,-0.44605172808423
1580423513.42091,0.11108567940795,-1.06666666666667,-0.512947280079347
1580423513.45321,0.0935072861829553,0.544197756923783,-0.190676737621118
1580423513.48551,-0.682383459220263,2.19851987487602,1.06520180056458
1580423513.51781,-0.514900434882124,0.0832532234683754,1.10133516441596
1580423513.55011,0.210696574349583,-2.04373235675593,-0.354741741054399
1580423513.5824,-4.10870527199206,11.1586175326162,-0.105226214999618
1580423513.6147,-0.992446784161135,-1.3801480125124,-0.745372701609826
1580423513.647,-0.337163347829405,-0.510017547875181,-0.945571068894484
1580423513.6793,-2.39920653086137,0.589608606088351,-0.80494392309453
1580423513.7116,-1.25368123903258,-0.128175783932249,-0.845471885252156
1580423513.7439,-1.54860761425193,0.460700389105057,-0.740489814602883
1580423513.7762,-1.5339589532311,-0.246341649500266,-0.647226672770275
1580423513.8085,-1.71706721599145,0.177492942702372,-0.312260624093996
1580423513.84079,-1.54860761425193,0.981216144045167,0.172610055695429
1580423513.87309,-1.15846494239719,0.935805294880598,0.528084229800871
1580423513.90539,-0.797131303883422,0.759533073929962,0.817151140611887
1580423513.93769,-0.462653543907836,0.839612420843824,1.16481269550622
1580423513.96999,-0.409430075532159,0.768810559243153,0.783947508964676
1580423514.00229,-0.44263370717937,-0.0305180437933927,0.185305561913481
1580423514.03458,-1.32204165712978,0.154543373769741,-0.179934386205844
1580423514.06688,-1.71902037079423,0.43482108796826,-0.265384908827345
1580423514.09918,-2.18777752346075,0.0871595330739297,-0.222903791866941
1580423514.13156,-2.33572899977112,-0.178957808804455,-0.226810101472495
1580423514.16386,-1.96462958724346,0.131593804837109,-0.286869611657893
1580423514.19616,-1.59841306172274,0.329350728618294,-0.220950637064163
1580423514.22846,-1.12086671244373,-0.0339360646982527,-0.470466163118944
1580423514.26075,-0.467536430914778,-0.460700389105059,-0.495857175555047
1580423514.29305,-0.165285725185015,-0.867933165484093,-0.398687724116884
1580423514.32535,0.175051499198901,-0.284428168154422,-0.413824673838407
1580423514.35765,-0.108644235904478,1.16774242771038,0.343511100938429
1580423514.38995,-0.918226901655604,1.38942549782559,1.00953688868544
1580423514.42225,-0.292729076066225,-0.258548867017625,-0.78785381857023
1580423514.45455,0.174074921797512,-0.915785458152133,0.199465934233615
1580423514.48685,-2.80350957503624,0.823010605020219,-0.88014038300145
1580423514.51914,0.762951094834822,-2.22781719691768,-0.863538567177844
1580423514.55144,-1.42751201647974,0.257572289616235,-0.51783016708629
1580423514.58374,-1.02760357061112,0.548104066529337,-0.340581368734265
1580423514.61604,-1.06178377965972,-0.10766765850309,-0.83228809033341
1580423514.64834,-1.71560234988937,-0.0456549935149155,-0.778576333257039
1580423514.68064,-1.45046158541238,0.124269474326695,-0.687266346227206
1580423514.71293,-1.57497520408942,0.46900129701686,-0.221927214465552
1580423514.74523,-1.7214618142977,0.694102388036928,0.389410238803691
1580423514.77753,-1.21022354467079,0.969985503929198,0.942641336690318
1580423514.80983,-0.815686274509805,0.984145876249332,1.28053711757076
1580423514.84213,-0.422613870450904,1.27516594186313,1.05641260395209
1580423514.87443,-0.466071564812696,0.302494850080109,0.171633478294041
1580423514.90673,-0.902113374532693,0.0656748302433812,-0.229251544975966
1580423514.93902,-1.96267643244068,0.302983138780803,-0.612558175020981
1580423514.97132,-1.83230334935531,0.218509193560692,-0.177981231403066
1580423515.00362,-2.04324406805524,-0.475837338826581,-0.117433432516975
1580423515.03592,-1.76345464255741,0.150637064164187,-0.444586861982147
1580423515.06822,-1.7727321278706,0.312260624093994,-0.2434119172961
1580423515.10052,-1.22780193789578,0.0563973449301898,-0.465583276112001
1580423515.13282,-0.614511329823758,-0.488532845044633,-0.525154497596704
1580423515.16511,-0.106202792401007,-1.15944151979858,-0.385503929198139
1580423515.19741,0.176516365300984,-0.149172198062104,-0.658457312886243
1580423515.22971,-0.524177920195315,1.58425268940261,0.811291676203556
1580423515.26201,-0.551522087434195,1.03736934462501,0.313725490196077
1580423515.29431,-0.377203021286336,-0.76392767223621,0.0598153658350498
1580423515.32661,0.0134279392690928,-0.421149004348822,0.289311055161363
1580423515.35891,-1.84890516517891,0.231692988479438,-0.55201037613489
1580423515.3912,0.411383230334934,-1.36403448538949,-0.811291676203556
1580423515.42361,-1.93679713130388,0.600350957503625,-0.870862897688259
1580423515.45591,-1.15602349889372,0.126710917830167,-0.522224765392538
1580423515.48821,-1.37770656900893,0.0979018844892039,-0.743419546807049
1580423515.52051,-1.47829404135195,-0.144777599755855,-0.709239337758449
1580423515.55281,-1.567650873579,0.0695811398489354,-0.458258945601587
1580423515.58511,-1.59743648432135,0.677012283512628,-0.00708018616006711
1580423515.61741,-1.4738994430457,0.719005111772336,0.468513008316165
1580423515.6497,-0.885511558709087,1.25905241474021,0.961196307316701
1580423515.682,-0.56568245975433,1.07399099717708,1.43385976958877
1580423515.7143,-0.491462577248798,0.812268253604945,0.879652094300756
1580423515.7466,-0.456794079499504,0.0720225833524069,0.0578622110322726
1580423515.7789,-1.03981078812848,-0.0197756923781185,-0.239505607690546
1580423515.8112,-1.93337911039902,0.420660715648125,-0.533455405508507
1580423515.84349,-2.13894865339132,0.0651865415426869,-0.198977645532921
1580423515.87579,-2.23611810482948,-0.209231708247501,-0.140383001449607
1580423515.90809,-1.98367284657053,0.205813687342641,-0.260502021820402
1580423515.94039,-1.69069962615396,0.252689402609292,-0.192141603723201
1580423515.97269,-1.07057297627222,-0.0754406042572668,-0.471931029221027
1580423516.00499,-0.371343556878005,-0.593514915693904,-0.50074006256199
1580423516.03729,0.0158693827725642,-1.21705958648051,-0.362554360265507
1580423516.06958,0.283939879453726,-0.0305180437933927,-0.49732204165713
1580423516.10188,-0.571053635461967,1.79079880979629,1.0891279468986
1580423516.13418,-0.641367208361943,0.61792935072862,0.559822995346
1580423516.16648,-0.0197756923781185,-1.30202182040131,-0.323491264209965
1580423516.19878,-0.0754406042572668,0.960708018616007,0.863538567177844
1580423516.23108,-2.06814679179065,-0.678477149614709,-0.606210421911955
1580423516.26338,0.443121995880063,-1.87820248722057,-1.11403067063401
1580423516.29568,-2.50614175631342,1.12428473334859,-1.54567788204776
1580423516.32797,-1.21364156557565,0.0148928053711757,-0.527107652399481
1580423516.36027,-1.39235523002976,0.117433432516975,-0.689219501029983
1580423516.39257,-1.5505607690547,-0.441657129777981,-0.636972610055695
1580423516.42487,-1.56276798657206,-0.0681162737468526,-0.48023193713283
1580423516.45717,-1.58864728770886,0.82203402761883,-0.116945143816281
1580423516.48947,-1.17848477912566,1.05836575875486,0.351323720149537
1580423516.52176,-0.677988860914015,1.31276417181659,0.864026855878539
1580423516.55406,-0.710704203860532,0.970473792629893,1.09596398870832
1580423516.58636,-0.620370794232089,0.333745326924543,0.796643015182728
1580423516.61866,-0.434821087968261,0.367437247272449,0.237064164187075
1580423516.65096,-1.03883421072709,0.35962462806134,-0.080811779964904
1580423516.68326,-1.76784924086366,0.77759975585565,-0.822522316319525
1580423516.71564,-2.38406958113985,0.0925307087815668,-0.308354314488442
1580423516.74793,-2.20682078278782,-0.349858854047456,-0.0632333867399097
1580423516.78023,-2.08181887541009,0.103761348897535,-0.266361486228734
1580423516.81253,-1.78103303578241,-0.137941557946135,-0.125734340428778
1580423516.84483,-1.25270466163119,-0.230716411078049,-0.32642099641413
1580423516.87713,-0.550545510032807,-0.283451590753033,-0.39819943541619
1580423516.90943,-0.188235294117646,-0.471442740520333,-0.327397573815519
1580423516.94173,0.0402838178072784,-0.509529259174487,-0.635507743953612
1580423516.97403,-0.138429846646829,0.595468070496683,-0.257572289616236
1580423517.00632,-0.549080643930724,1.79519340810254,0.630136568245977
1580423517.03862,-0.654551003280689,0.0783703364614325,0.964614328221561
1580423517.07092,0.320561532005797,-2.49686427100023,0.35962462806134
1580423517.10322,-6.08480964370184,2.31522087434195,0.545174334325171
1580423517.13552,-0.346440833142596,-1.06520180056458,-0.383062485694667
1580423517.16782,-0.318120088502328,-0.485603112840467,-0.98609903105211
1580423517.20011,-2.48709849698634,0.599862668802931,-0.783947508964676
1580423517.23241,-1.10182345311665,-0.0271000228885327,-0.791760128175785
1580423517.26471,-1.6360112916762,0.259525444419012,-0.637949187457084
1580423517.29701,-1.53249408712901,-0.374761577782865,-0.542732890821698
1580423517.32931,-1.909452964065,0.165774013885709,-0.40845349813077
1580423517.36161,-1.61696803234913,1.03297474631876,0.138429846646829
1580423517.39391,-1.03102159151598,1.36159304188601,0.691172655832762
1580423517.4262,-0.611093308918898,1.00904859998474,0.946547646295873
1580423517.4585,-0.536873426413367,0.737560082398719,0.990005340657664
1580423517.4908,-0.435309376668956,0.56665903715572,0.572518501564051
1580423517.5231,-0.474372472724498,-0.0861829556725411,-0.0524910353246355
1580423517.5554,-1.76687266346227,1.01979095140002,-0.41870756084535
1580423517.5877,-1.88113221942474,0.229251544975966,-0.192141603723201
1580423517.62,-2.1062333104448,-0.353276874952316,-0.196536202029449
1580423517.65229,-2.27566948958572,0.333745326924543,-0.226810101472495
1580423517.68459,-2.02859540703441,-0.0144045166704814,-0.297123674372473
1580423517.71689,-1.35085069047074,-0.123292896925307,-0.34009308003357
1580423517.74919,-0.778576333257039,-0.325444419012742,-0.465583276112001
1580423517.78149,-0.367925535973145,-0.48706797894255,-0.487556267643244
1580423517.81379,0.0827649347676811,-0.899183642328527,-0.378667887388419
1580423517.84609,0.135011825741969,0.281498435950255,-0.125734340428778
1580423517.87838,-0.758068207827879,1.89529259174487,1.16090638590066
1580423517.91068,-0.782970931563288,0.330815594720377,1.06471351186389
1580423517.94298,0.123781185626001,-1.74441138323033,-0.682383459220263
1580423517.97528,-1.70339513237201,5.59700923170825,-0.98268101014725
1580423518.00772,-1.51589227130541,-1.10963607232776,-0.7219348439765
1580423518.04002,0.168703746089875,-1.00807202258335,-1.01930266269932
1580423518.07232,-2.53250934615091,1.86990157930877,-0.398687724116884
1580423518.10462,-1.26686503395132,-0.247806515602349,-0.789318684672313
1580423518.13691,-1.2942092011902,0.0520027466239412,-0.734630350194552
1580423518.16921,-1.585229266804,-0.219974059662775,-0.608163576714732
1580423518.20151,-1.61403830014496,0.112062256809338,-0.531990539406424
1580423518.23381,-1.71462577248798,1.1403982604715,0.034424353398947
1580423518.26611,-1.31911192492561,0.917250324254216,0.800549324788282
1580423518.29841,-0.885999847409781,0.509040970473794,1.10914778362707
1580423518.33071,-0.426031891355764,0.94508278019379,0.969497215228504
1580423518.363,-0.363530937666896,0.824475471122302,0.430914778362705
1580423518.3953,-0.412359807736324,0.33911650263218,0.00952162966353853
1580423518.4276,-1.17360189211871,0.548104066529337,-0.434332799267567
1580423518.4599,-1.79763485160601,0.33911650263218,-0.332280460822462
1580423518.4922,-2.04812695506218,-0.119386587319752,-0.140383001449607
1580423518.5245,-2.07009994659342,-0.274174105439842,0.0144045166704814
1580423518.5568,-1.83962767986572,0.144289311055161,-0.0651865415426869
1580423518.58909,-1.57009231708247,0.129152361333638,-0.0861829556725411
1580423518.62139,-0.963637750820173,-0.202883955138475,-0.246341649500266
1580423518.65369,-0.41870756084535,-0.479255359731441,-0.310307469291219
1580423518.68599,-0.426031891355764,-0.503181506065461,-0.375738155184253
1580423518.71829,-0.106202792401007,0.178957808804455,-0.159426260776684
1580423518.75059,-0.54859235523003,1.40895704585336,0.0354009308003356
1580423518.78289,-0.594979781795987,1.26344701304646,0.42798504615854
1580423518.81518,-0.0495613031204698,-0.327885862516213,-0.516365300984207
1580423518.84748,0.480231937132828,-2.19851987487602,0.960708018616007
1580423518.87978,-6.64194705119402,3.00419623102159,-0.184817273212786
1580423518.91208,-0.156008239871824,-0.881116960402839,-0.417730983443962
1580423518.94438,-0.0495613031204698,-0.569588769359884,-0.867933165484093
1580423518.97668,-3.43291371023117,0.726817730983445,-0.906019684138247
1580423519.00898,-0.880628671702144,0.182864118410009,-0.766857404440376
1580423519.04128,-1.56032654306859,-0.0217288471808956,-0.606698710612649
1580423519.07357,-1.35378042267491,-0.00122072175173571,-0.703868162050812
1580423519.10587,-1.71609063859007,0.425543602655068,-0.389410238803693
1580423519.13817,-1.50466163118944,0.675059128709851,0.188235294117646
1580423519.17047,-1.29274433508812,0.95191882200351,0.566170748455026
1580423519.20277,-0.803967345693142,0.970962081330587,0.898207064927139
1580423519.23507,-0.647226672770275,1.2004577706569,1.09205767910277
1580423519.26736,-0.576424811169604,0.356694895857174,0.78785381857023
1580423519.29974,-0.503669794766155,-0.373785000381476,0.272709239337757
1580423519.33204,-1.28542000457771,0.0759288929579611,-0.294682230869002
1580423519.36434,-1.67556267643244,0.668711375600825,-0.215579461356526
1580423519.39664,-1.99978637369345,0.117433432516975,-0.291752498664836
1580423519.42894,-2.19266041046769,-0.027588311589227,-0.295170519569696
1580423519.46124,-1.95828183413443,-0.0187991149767299,-0.358648050659953
1580423519.49354,-1.5168688487068,0.0612802319371326,-0.34009308003357
1580423519.52584,-0.755138475623713,-0.142824444953078,-0.458747234302281
1580423519.55814,-0.23999389639124,-0.48023193713283,-0.429938200961319
1580423519.59044,-0.0734874494544897,-0.70826276035706,-0.38110933089189
1580423519.62273,-0.0891126878767068,0.218020904859998,-0.309330891889831
1580423519.65503,-0.890882734416724,2.10428015564202,0.772716868848708
1580423519.68733,-0.754161898222325,0.710704203860534,0.786388952468148
1580423519.71963,0.184328984512092,-1.19948119325551,-0.69800869764248
1580423519.75193,0.160402838178072,-0.86305027847715,0.718028534370948
1580423519.78423,-2.37625696192874,0.0949721522850382,-1.06617837796597
1580423519.81653,1.07789730678263,-1.9182421606775,-1.2175478751812
1580423519.84883,-2.3196154726482,1.30202182040131,-0.858167391470207
1580423519.88113,-1.17262531471733,-0.208255130846112,-0.404058899824522
1580423519.91342,-1.23512626840619,0.0842298008697639,-0.729747463187609
1580423519.94572,-1.54323643854429,-0.0827649347676811,-0.682871747920958
1580423519.97802,-1.63454642557412,0.276127260242617,-0.414801251239796
1580423520.01032,-1.63991760128176,0.475349050125885,0.179446097505149
1580423520.04262,-1.38600747692073,0.628671702143894,0.583260852979326
1580423520.07492,-0.821057450217442,0.745860990310522,0.785412375066759
1580423520.10722,-0.492439154650187,0.905043106736859,1.20241092545968
1580423520.13952,-0.433356221866179,1.0637369344625,0.60425726710918
1580423520.17182,-0.382085908293279,0.101319905394064,0.341069657434957
1580423520.20412,-0.790783550774396,-0.113527122911421,-0.0881361104753182
1580423520.23641,-2.59598687724117,0.588143739986268,-0.567635614557107
1580423520.26871,-1.77370870527199,0.152101930266269,-0.155519951171129
1580423520.30101,-2.31522087434196,-0.45288776989395,-0.0466315709163041
1580423520.33331,-1.72683299000534,0.139406424048218,-0.382085908293279
1580423520.36561,-1.72390325780117,0.333257038223849,-0.166750591287098
1580423520.39791,-1.39577325093462,0.188235294117646,-0.517341878385595
1580423520.43021,-0.530525673304341,-0.317143511100939,-0.464118410009918
1580423520.46251,-0.255130846112765,-0.698496986343175,-0.477790493629358
1580423520.49481,-0.140871290150301,-0.434821087968261,-0.290287632562753
1580423520.52711,-0.39136339360647,0.535408560311286,0.583260852979326
1580423520.55941,-0.49048599984741,1.65212481879912,0.421637293049514
1580423520.59183,-0.36743724727245,-0.122316319523918,0.134523537041275
1580423520.62413,0.4143129625391,-1.6023193713283,0.224856946669718
1580423520.65642,-6.86460669871061,4.16729991607538,-1.41481651026169
1580423520.68872,-0.584725719081407,-1.04908827344167,-0.990005340657664
1580423520.72102,0.335210193026626,-0.69800869764248,-0.738048371099412
1580423520.75332,-4.13849088273442,2.11258106355383,-0.771740291447319
1580423520.78562,-0.964126039520867,-0.00415045395590141,-0.971938658731975
1580423520.81792,-1.46852826733806,-0.101808194094758,-0.720958266575112
1580423520.85022,-1.52809948882277,-0.106691081101701,-0.669687953002212
1580423520.88252,-1.92019531548028,0.145754177157244,-0.334233615625239
1580423520.91482,-1.67605096513313,0.845471885252156,0.211673151750972
1580423520.94712,-1.16383611810483,1.16774242771038,0.822522316319525
1580423520.97942,-0.647226672770275,1.13551537346456,1.14235141527428
1580423521.01171,-0.35034714274815,1.15162890058747,0.931898985275044
1580423521.04401,-0.376226443884947,0.218997482261386,0.371343556878003
1580423521.07631,-0.54175631342031,-0.45972381170367,-0.034424353398947
1580423521.10861,-2.10330357824063,1.07057297627222,-0.544686045624475
1580423521.14091,-1.87087815671016,0.354741741054397,-0.156984817273212
1580423521.17321,-2.16189822232395,-0.448981460288396,-0.214602883955138
1580423521.20551,-1.99246204318303,0.0852063782711525,-0.296147096971085
1580423521.23781,-1.74441138323033,0.0207522697795071,-0.152101930266269
1580423521.27011,-1.47585259784848,0.0983901731898982,-0.325444419012742
1580423521.30241,-0.793713282978562,-0.23657587548638,-0.481208514534218
1580423521.3347,-0.285404745555811,-0.50074006256199,-0.447516594186313
1580423521.367,0.147219043259327,-0.927016098268101,-0.406012054627299
1580423521.3993,0.031006332494087,0.136964980544747,0.0510261692225527
1580423521.4316,-0.701915007248035,2.31082627603571,1.09742885481041
1580423521.4639,-0.604257267109178,0.271244373235675,0.544197756923783
1580423521.4962,0.341557946135651,-2.17801174944686,0.168703746089875
1580423521.5285,-6.65659571221485,2.8323186083772,-0.254642557412071
1580423521.5608,-0.0583504997329669,-1.60573739223316,-0.635507743953612
1580423521.5931,-0.240970473792629,-0.560799572747387,-0.870374608987564
1580423521.6254,-2.96806286717021,0.879163805600061,-0.899671931029221
1580423521.65769,-1.12672617685206,-0.0866712443732354,-0.858167391470207
1580423521.68999,-1.49245441367208,0.370366979476614,-0.670664530403601
1580423521.72229,-1.50417334248875,-0.510017547875181,-0.588632028686961
1580423521.75459,-1.90212863355459,0.350835431448843,-0.420660715648127
1580423521.78689,-1.56716258487831,0.913344014648661,0.280033569848172
1580423521.81919,-0.948989089799344,1.11061264972915,0.793713282978562
1580423521.85149,-0.548104066529335,1.11744869153887,1.0378576333257
1580423521.88391,-0.69117265583276,0.341557946135651,0.77076371404593
1580423521.91621,-0.443121995880064,0.494880598153657,0.510505836575877
1580423521.94851,-0.511482413977264,0.51880674448768,0.114991989013504
1580423521.98081,-1.55202563515679,0.669687953002214,-0.511482413977264
1580423522.01311,-1.9016403448539,0.310795757991912,-0.361089494163425
1580423522.04541,-2.45047684443427,-0.434332799267567,-0.264896620126651
1580423522.0777,-2.31717402914473,-0.163820859082932,-0.184328984512092
1580423522.11,-2.16287479972534,-0.0886243991760125,-0.32983901731899
1580423522.1423,-1.60964370183871,-0.0393072404058898,-0.273685816739148
1580423522.1746,-0.920668345159076,-0.167238879987792,-0.386480506599527
1580423522.2069,-0.441657129777981,-0.447028305485619,-0.426031891355764
1580423522.2392,0.144777599755855,-1.05152971694514,-0.451911192492561
1580423522.2715,0.443121995880063,0.0168459601739528,-0.315190356298162
1580423522.3038,-0.375738155184253,1.04029907682918,0.467536430914777
1580423522.3361,-0.559822995345998,0.837170977340353,0.151613641565575
1580423522.3684,-0.0832532234683754,-0.509529259174487,0.187258716716258
1580423522.40069,-2.23758297093156,5.47835507743953,-0.363530937666896
1580423522.43299,-1.52224002441443,-1.10865949492637,-0.69117265583276
1580423522.46529,0.0192874036774242,-1.5080796520943,-0.882581826504921
1580423522.49759,-2.7732356755932,1.30836957351034,-1.4397192339971
1580423522.52989,-1.31667048142214,-0.132570382238498,-0.642832074464026
1580423522.56219,-1.35671015487907,0.264896620126649,-0.712657358663309
1580423522.59449,-1.49684901197833,-0.150148775463492,-0.762462806134128
1580423522.62679,-1.63356984817273,-0.152101930266269,-0.532478828107118
1580423522.65909,-1.63747615777829,0.729747463187611,-0.118410009918364
1580423522.69139,-1.31276417181659,1.17653162432288,0.429449912260623
1580423522.72369,-0.687266346227206,1.18971541924163,1.13014419775692
1580423522.75599,-0.757579919127185,0.857190814068819,1.30202182040131
1580423522.78828,-0.521736476691844,0.687266346227208,0.676035706111239
1580423522.82058,-0.561287861448081,0.209719996948195,0.114991989013504
1580423522.85288,-1.17604333562219,0.516853589684903,-0.48023193713283
1580423522.88518,-1.88894483863584,0.370855268177309,-0.40845349813077
1580423522.91748,-2.17752346074617,-0.196536202029449,-0.278568703746091
1580423522.94978,-2.27322804608225,-0.080811779964904,-0.164309147783626
1580423522.98208,-2.06912336919203,0.0300297550926985,-0.324956130312048
1580423523.01438,-1.56130312046998,-0.0817883573662925,-0.328374151216908
1580423523.04668,-0.92457465476463,-0.217044327458609,-0.390386816205082
1580423523.07897,-0.447028305485619,-0.597909514000152,-0.512458991378653
1580423523.11127,0.570565346761274,-1.65505455100328,-0.445563439383536
1580423523.14357,0.162355992980849,0.194094758525978,-0.642343785763332
1580423523.17593,-0.978286411841001,2.61844815747311,3.34941634241245
1580423523.20823,-0.927016098268101,-0.205325398641946,0.917250324254216
1580423523.24053,0.191165026321812,-1.22487220569161,-0.99293507286183
1580423523.27283,-0.402105745021744,0.757579919127185,0.651621271076525
1580423523.30513,-2.32401007095445,-0.834729533836882,-1.22340733958953
1580423523.33743,0.313237201495383,-1.61647974364843,-1.2087586785687
1580423523.36973,-3.04374761577783,2.3367055771725,-1.08229190508888
1580423523.40203,-1.36745250629435,-0.330815594720379,-0.817639429312582
1580423523.43433,-1.2776073853666,0.126222629129472,-0.823498893720913
1580423523.46662,-1.55544365606165,0.10424963759823,-0.680430304417486
1580423523.49892,-1.67849240863661,0.0490730144197755,-0.244388494697489
1580423523.53122,-1.83669794766156,0.792736705577173,0.229251544975966
1580423523.56352,-1.05690089265278,1.06129549095903,0.922621499961853
1580423523.59582,-0.727306019684137,1.52370489051652,1.35085069047074
1580423523.62812,-0.637949187457084,1.21901274128328,1.03297474631876
1580423523.66042,-0.423590447852293,0.0397955291065841,0.282963302052337
1580423523.69272,-0.491462577248798,-0.418219272144656,-0.0158693827725642
1580423523.72502,-2.27322804608225,0.456794079499502,-0.663340199893186
1580423523.75732,-1.92068360418097,0.490974288548102,-0.238040741588463
1580423523.78961,-2.13943694209201,-0.232181277180132,-0.156984817273212
1580423523.82191,-1.95632867933165,-0.0500495918211641,-0.417242694743267
1580423523.85421,-1.54323643854429,0.105226214999618,-0.127687495231555
1580423523.88651,-1.36696421759365,0.12475776302739,-0.44263370717937
1580423523.91881,-0.651132982375829,-0.251712825207905,-0.520759899290455
1580423523.95111,-0.0432135500114441,-0.854749370565347,-0.292240787365531
1580423523.98341,0.031006332494087,-0.401129167620356,-0.850354772259099
1580423524.01571,-0.563241016250858,0.86988632028687,0.653574425879302
1580423524.04801,-0.678965438315403,1.15114061188678,0.573983367666134
1580423524.08031,-0.338628213931488,-0.427008468757153,-0.0988784618905925
1580423524.11261,0.32544441901274,-1.42800030518044,0.318120088502326
1580423524.1449,-5.76302738994431,2.11892881666285,0.314213778896772
1580423524.1772,-0.599862668802929,-1.60915541313802,-0.966567483024338
1580423524.2095,-0.0759288929579611,-0.439703974975204,-0.720958266575112
1580423524.2418,-3.10185397116045,1.29372091248951,-0.714610513466086
1580423524.2741,-1.1833676661326,-0.0485847257190812,-0.919691767757687
1580423524.3064,-1.42555886167697,0.154543373769741,-0.645761806668192
1580423524.3387,-1.36696421759365,-0.250736247806516,-0.656992446784161
1580423524.371,-1.87771419851988,0.368902113374531,-0.423102159151599
1580423524.4033,-1.77663843747616,0.924086366063936,0.281498435950255
1580423524.4356,-1.24196231021591,1.00953688868544,0.98951705195697
1580423524.46808,-0.854749370565347,0.709239337758451,1.39186694132906
1580423524.50038,-0.613046463721675,1.01490806439307,1.21559472037842
1580423524.53268,-0.392339971007859,0.372320134279391,0.280521858548866
1580423524.56498,-0.445563439383536,0.060303654535744,-0.147219043259327
1580423524.59727,-1.89871061264973,0.893324177920196,-0.736583504997329
1580423524.62957,-1.7815213244831,0.251712825207903,-0.191653315022506
1580423524.66187,-1.98513771267262,-0.264408331425956,-0.0554207675288012
1580423524.69417,-2.0891432059205,-0.128664072632944,-0.373296711680782
1580423524.72647,-1.76882581826505,0.037842374303807,-0.254642557412071
1580423524.75877,-1.3884489204242,0.112550545510032,-0.274662394140536
1580423524.79107,-0.772716868848708,-0.141359578850995,-0.42896162355993
1580423524.82337,-0.230228122377355,-0.99293507286183,-0.323979552910659
1580423524.85567,0.105714503700312,-0.535896849011978,-0.712169069962615
1580423524.88797,-0.525642786297398,1.12623788815137,0.190676737621118
1580423524.92026,-0.617441062027924,1.09108110170138,0.63843747615778
1580423524.95256,-0.332768749523156,-0.281986724650951,-0.188723582818341
1580423524.98486,0.545174334325171,-1.71511406118868,0.330327306019683
1580423525.01716,-6.74009308003357,3.49248493171588,0.620859082932785
1580423525.04946,-0.334721904325933,-1.15407034409094,-0.769298847943848
1580423525.08176,0.00268558785381856,-0.686289768825818,-0.795178149080645
1580423525.11406,-3.05741969939727,0.897718776226444,-1.02711528191043
1580423525.14636,-1.03150988021668,-0.0495613031204698,-0.973403524834058
1580423525.17866,-1.67458609903105,0.0285648889906156,-0.563729304951552
1580423525.21096,-1.39919127183948,-0.0896009765774011,-0.558358129243915
1580423525.24325,-1.78689250019074,-0.0148928053711757,-0.35718318455787
1580423525.27555,-1.60573739223316,0.512458991378654,0.266849774929426
1580423525.30785,-1.10524147402151,1.19850461585412,0.581795986877243
1580423525.34015,-0.763439383535516,1.33034256504158,1.14137483787289
1580423525.37245,-0.569588769359884,1.37819485770962,0.971938658731975
1580423525.40475,-0.403082322423133,-0.0217288471808956,0.471442740520331
1580423525.43705,-0.447516594186313,-0.393316548409247,0.110109102006561
1580423525.46935,-1.93044937819486,1.1745784695201,-0.468513008316167
1580423525.50165,-1.93142595559625,0.484626535439077,-0.413336385137713
1580423525.53395,-2.44559395742733,-0.916762035553521,-0.176516365300984
1580423525.56625,-2.40067139696345,-0.034424353398947,-0.143312733653772
1580423525.59854,-1.98367284657053,-0.193606469825284,-0.181399252307926
1580423525.63084,-1.42751201647974,-0.0534676127260241,-0.255130846112765
1580423525.66314,-0.81861600671397,-0.153078507667658,-0.477790493629358
1580423525.69544,-0.152590218966964,-0.533455405508507,-0.468513008316167
1580423525.72774,0.321538109407186,-0.294193942168308,-0.689707789730678
1580423525.7601,-0.174563210498206,0.532967116807814,-0.338628213931488
1580423525.7924,-0.469489585717556,1.18873884184024,0.786388952468148
1580423525.8247,-0.613046463721675,0.239017318989852,0.667246509498742
1580423525.857,0.55640497444114,-1.69948882276646,-0.606210421911955
1580423525.8893,0.683360036621654,0.663828488593882,0.81177996490425
1580423525.9216,-1.75710688944839,-0.89723048752575,-0.237064164187075
1580423525.95389,0.762951094834822,-2.0974441138323,-0.848889906157016
1580423525.98619,-2.26102082856489,1.16090638590066,-1.27614251926452
1580423526.01849,-1.28200198367285,-0.122316319523918,-0.6877546349279
1580423526.05079,-1.06569008926528,0.442633707179368,-0.662363622491798
1580423526.08309,-1.60036621652552,-0.681895170519569,-0.678965438315403
1580423526.11539,-1.52468146791791,-0.0979018844892039,-0.582772564278629
1580423526.14769,-1.69558251316091,0.54615091172656,-0.212161440451666
1580423526.17999,-1.4743877317464,1.01002517738613,0.507087815671017
1580423526.21229,-1.03639276722362,0.992446784161135,0.950942244602121
1580423526.24459,-0.771740291447319,1.10133516441596,1.30397497520409
1580423526.27689,-0.447516594186313,1.16578927290761,0.824475471122302
1580423526.30919,-0.482673380636301,0.227298390173189,0.157473105973907
1580423526.34148,-0.908461127641718,0.0798352025635154,-0.267826352330816
1580423526.37378,-1.98171969176776,0.344487678339817,-0.551033798733501
1580423526.40608,-2.18387121385519,-0.0935072861829553,-0.208743419546806
1580423526.43838,-2.10574502174411,-0.331792172121768,-0.222415503166246
1580423526.47068,-1.88601510643168,0.232669565880826,-0.318608377203022
1580423526.50298,-1.53249408712901,0.132570382238498,-0.171145189593346
1580423526.53528,-1.09108110170138,-0.0803234912642097,-0.411383230334936
1580423526.56758,-0.487556267643244,-0.499275196459907,-0.454840924696727
1580423526.59988,-0.031006332494087,-0.741466392004272,-0.355230029755093
1580423526.63217,-0.0158693827725642,0.0305180437933927,-0.407965209430076
1580423526.66447,-0.702891584649423,1.33278400854505,0.661387045090411
1580423526.69677,-0.771252002746625,0.988052185854887,0.420172426947431
1580423526.72907,-0.385015640497445,-0.550545510032807,-0.0476081483176927
1580423526.76137,0.113527122911421,-1.22487220569161,0.494880598153657
1580423526.79367,-2.36600289921416,1.1067063401236,-0.436774242771039
1580423526.82597,0.240482185091935,-1.4138399328603,-0.590585183489738
1580423526.85827,-1.22291905088884,0.177004654001678,-0.737560082398717
1580423526.89057,-1.21120012207217,0.455817502098114,-0.410894941634242
1580423526.92287,-1.13551537346456,-0.219974059662775,-0.780529488059816
1580423526.95516,-1.62478065156023,-0.0563973449301898,-0.70826276035706
1580423526.98746,-1.55300221255817,0.221438925764858,-0.365972381170367
1580423527.01976,-1.63894102388037,0.710704203860534,0.0734874494544897
1580423527.05215,-1.44460212100404,0.606210421911957,0.62134737163348
1580423527.08445,-0.909437705043107,0.829358358129245,1.05104142824445
1580423527.11675,-0.52124818799115,1.28542000457771,1.12623788815137
1580423527.14905,-0.458258945601587,0.790295262073702,0.512947280079349
1580423527.18135,-0.421637293049516,-0.0749523155565726,0.0529793240253298
1580423527.21365,-1.33424887464714,-0.0695811398489354,-0.185305561913481
1580423527.24595,-1.73611047531853,0.290775921263446,-0.221927214465552
1580423527.27825,-2.02615396353094,-0.282475013351645,-0.204348821240558
1580423527.31055,-2.06472877088579,-0.0554207675288012,-0.338139925230793
1580423527.34285,-1.71267261768521,0.134523537041275,-0.310307469291219
1580423527.37515,-1.40846875715267,0.309819180590523,-0.378667887388419
1580423527.40745,-0.89723048752575,0.0354009308003356,-0.598886091401541
1580423527.43975,-0.397711146715496,-0.407476920729382,-0.461188677805753
1580423527.47205,0.0471198596169984,-1.14186312657359,-0.419684138246739
1580423527.50435,-0.105714503700312,-0.0329594872968642,-0.264408331425956
1580423527.53665,-0.833752956435493,1.71511406118868,1.53298237582971
1580423527.56895,-0.499763485160601,0.201907377737086,0.910414282444496
1580423527.60125,0.273197528038452,-1.35915159838254,-0.975356679636835
1580423527.63355,-0.245853360799572,0.700938429846648,0.884534981307699
1580423527.66584,-3.01493858243687,-1.39479667353323,-1.15358205539025
1580423527.69814,0.531502250705731,-1.65993743801022,-1.01979095140002
1580423527.73044,-2.40848401617456,1.4822003509575,-1.56081483176928
1580423527.76274,-1.36745250629435,-0.0207522697795071,-0.605233844510566
1580423527.79504,-1.13844510566873,0.30835431448844,-0.782970931563288
1580423527.82734,-1.53200579842832,-0.0715342946517126,-0.706797894254978
1580423527.85964,-1.71023117418173,0.326420996414129,-0.227786678873883
1580423527.89194,-1.68239871824216,0.370366979476614,0.362554360265506
1580423527.92424,-1.21852445258259,0.694590676737622,0.822522316319525
1580423527.95654,-0.713633936064697,0.84254215304799,1.11012436102846
1580423527.98884,-0.317143511100939,1.34010833905547,0.950942244602121
1580423528.02114,-0.435309376668956,0.827893492027162,0.12133974212253
1580423528.05344,-0.700938429846646,-0.0280766002899213,-0.0246585793850613
1580423528.08574,-1.93289082169833,-0.0974135957885096,-0.558358129243915
1580423528.11804,-1.8074006256199,0.4143129625391,-0.0397955291065841
1580423528.15034,-2.34744792858778,-0.286869611657893,-0.0729991607537954
1580423528.18264,-2.17996490424964,0.0461432822156098,-0.465094987411307
1580423528.21494,-1.81179522392615,0.250736247806515,-0.280521858548868
1580423528.24724,-1.25563439383536,0.117433432516975,-0.443610284580759
1580423528.27954,-0.670664530403601,-0.308842603189136,-0.539803158617532
1580423528.31183,-0.143801022354467,-0.741954680704966,-0.404547188525216
1580423528.34421,0.353276874952314,-0.343999389639125,-0.850354772259099
1580423528.37651,-0.137453269245441,0.697520408941788,0.048096437018387
1580423528.40881,-0.891371023117419,1.33327229724575,1.03688105592432
1580423528.44111,-0.495857175555047,-0.850354772259099,0.85279621576257
1580423528.4734,-0.294193942168308,-1.17018387121385,0.53931486991684
1580423528.5057,-1.88308537422751,0.564705882352943,-0.0925307087815668
1580423528.538,0.545662623025866,-2.19021896696422,-0.81177996490425
1580423528.5703,-2.05349813076982,0.476325627527274,-0.882093537804227
1580423528.6026,-1.11793698023957,0.300541695277332,-0.621347371633478
1580423528.6349,-1.37477683680476,0.0104982070649271,-0.977309834439613
1580423528.6672,-1.49391927977417,0.0686045624475469,-0.698496986343175
1580423528.6995,-1.50319676508736,0.181887541008621,-0.383550774395362
1580423528.7318,-1.52224002441443,0.564217593652248,0.0588387884336612
1580423528.7641,-1.3288776989395,0.604745555809874,0.501228351262686
1580423528.7964,-0.878187228198673,0.741466392004273,0.912855725947967
1580423528.8287,-0.557381551842527,0.836682688639659,1.15944151979858
1580423528.861,-0.357671473258565,1.11940184634165,0.728770885786222
1580423528.8933,-0.198001068131532,0.549080643930726,0.256107423514152
1580423528.9256,-0.755626764324408,-0.109132524605172,-0.180910963607232
1580423528.9579,-2.59549858854047,0.485114824139771,-0.675059128709849
1580423528.9902,-1.86501869230182,0.444586861982145,-0.278080415045396
1580423529.0225,-2.47000839246204,-0.925551232166018,0.0930189974822611
1580423529.0548,-1.93630884260319,-0.0432135500114441,-0.295658808270391
1580423529.0871,-1.70241855497063,0.28101014724956,-0.191653315022506
1580423529.1194,-1.25075150682841,0.145265888456549,-0.499275196459907
1580423529.1517,-0.689219501029983,-0.324956130312048,-0.460700389105059
1580423529.184,-0.382085908293279,-0.494880598153658,-0.447028305485619
1580423529.21629,0.0476081483176927,-0.753673609521631,-0.695078965438315
1580423529.24859,-0.00805676356145568,0.468024719615471,-0.164797436484321
1580423529.28089,-0.551522087434195,2.06619363698787,0.985122453650721
1580423529.31319,-0.562752727550164,-0.51783016708629,0.538826581216146
1580423529.34549,0.119386587319752,-1.85964751659419,0.307377737087052
1580423529.37779,-3.71172655832761,1.79616998550393,0.83912413214313
1580423529.41009,-0.160891126878766,-1.29713893339437,-0.403570611123827
1580423529.44239,-0.623300526436255,-0.55884641794461,-0.920668345159076
1580423529.47469,-2.03006027313649,0.853772793163959,-0.861585412375067
1580423529.50699,-1.12672617685206,-0.115968566414892,-0.959731441214618
1580423529.53929,-1.6189211871519,0.077393759060044,-0.759044785229268
1580423529.57159,-1.42702372777905,-0.0588387884336612,-0.531990539406424
1580423529.60389,-1.66872663462272,0.461676966506445,-0.0886243991760125
1580423529.63635,-1.51198596169985,0.806408789196613,0.423102159151597
1580423529.66865,-0.960708018616007,0.861097123674373,0.933852140077821
1580423529.70095,-0.663340199893186,1.31813534752422,1.27565423056382
1580423529.73325,-0.549080643930724,1.16383611810483,0.818127718013276
1580423529.76555,-0.51783016708629,0.0817883573662925,0.262455176623178
1580423529.79785,-0.924086366063936,-0.0368657969024184,-0.231692988479438
1580423529.83015,-1.9953917753872,0.423102159151597,-0.678965438315403
1580423529.86245,-2.05008010986496,0.104737926298924,-0.349370565346762
1580423529.89475,-2.17215228503853,-0.451422903791867,-0.138429846646829
1580423529.92705,-1.88113221942474,0.142336156252384,-0.42212558175021
1580423529.95935,-1.58669413290608,0.204348821240558,-0.278568703746091
1580423529.99165,-1.07789730678263,-0.0124513618677042,-0.555916685740444
1580423530.02395,-0.454352635996033,-0.494392309452964,-0.477302204928664
1580423530.05625,-0.0227054245822842,-0.903089951934081,-0.269779507133594
1580423530.08854,0.164309147783626,-0.0983901731898982,-0.970473792629893
1580423530.12084,-0.954360265506981,2.15506218051423,1.73220416571298
1580423530.15314,-0.667246509498741,0.59058518348974,0.797619592584116
1580423530.18544,-0.267826352330816,-0.573983367666132,-0.94166475928893
1580423530.21774,0.0197756923781185,-0.247318226901655,0.588143739986268
1580423530.25004,-2.3625848783093,0.296635385671777,-0.78443579766537
1580423530.28234,0.55640497444114,-1.66677347981994,-0.961684596017395
1580423530.31464,-1.37233539330129,0.229739833676661,-0.737560082398717
1580423530.34694,-1.05494773785,0.59058518348974,-0.459235523002976
1580423530.37924,-1.21705958648051,-0.163332570382238,-0.838147554741742
1580423530.41154,-1.52077515831235,-0.156008239871824,-0.656015869382772
1580423530.44384,-1.585229266804,0.174074921797512,-0.485114824139773
1580423530.47614,-1.57497520408942,0.47925535973144,-0.0319829098954756
1580423530.50844,-1.44997329671168,0.78785381857023,0.379644464789806
1580423530.54074,-0.902601663233387,0.884046692607004,0.869398031586176
1580423530.57304,-0.589120317387655,0.920180056458381,1.34303807125963
1580423530.60534,-0.46997787441825,1.12672617685206,0.801037613488976
1580423530.63764,-0.444586861982147,0.132082093537804,0.266361486228732
1580423530.66994,-0.775646601052873,-0.206301976043335,-0.151613641565575
1580423530.70224,-2.46707866025788,0.322514686808574,-0.702403295948729
1580423530.73454,-1.9441214618143,0.368902113374531,-0.224368657969023
1580423530.76683,-2.44852368963149,-0.375249866483559,0.0788586251621268
1580423530.79913,-1.92068360418097,0.314213778896772,-0.336186770428016
1580423530.83143,-1.69314106965743,0.368413824673837,-0.200930800335698
1580423530.86373,-1.3459678034638,0.0568856336308841,-0.460212100404364
1580423530.89603,-0.573006790264744,-0.497810330357824,-0.479255359731441
1580423530.92841,-0.275150682841231,-0.786877241168842,-0.418219272144656
1580423530.96071,0.241947051194018,-0.469001297016861,-0.817151140611887
1580423530.99301,0.0866712443732354,1.13405050736248,0.0920424200808725
1580423531.02531,-0.637460898756389,1.21510643167773,0.892347600518807
1580423531.05761,-0.431403067063401,-0.647226672770275,-0.143312733653772
1580423531.08991,-0.134523537041275,-0.492927443350881,0.729747463187611
1580423531.12221,-2.03445487144274,0.311284046692606,-0.712657358663309
1580423531.15451,0.627695124742505,-1.57839322499428,-1.00953688868544
1580423531.18681,-1.86306553749905,0.467048142214082,-0.798596169985505
1580423531.21911,-1.00904859998474,0.398687724116883,-0.389898527504387
1580423531.25141,-1.32350652323186,0.0134279392690928,-0.755138475623713
1580423531.2837,-1.55202563515679,-0.0979018844892039,-0.658945601586938
1580423531.316,-1.49880216678111,0.148195620660715,-0.360112916762036
1580423531.3483,-1.50417334248875,0.394293125810634,0.063721675440604
1580423531.3806,-1.28297856107424,0.817639429312582,0.360112916762034
1580423531.4129,-0.833264667734799,0.80494392309453,0.836194399938964
1580423531.4452,-0.599862668802929,0.964614328221561,1.18239108873121
1580423531.4775,-0.494880598153658,1.02467383840696,0.867933165484093
1580423531.5098,-0.500251773861295,0.0813000686655982,0.325932707713434
1580423531.5421,-0.923109788662547,-0.211673151750972,0.034424353398947
1580423531.5744,-2.47000839246204,0.31519035629816,-0.637460898756389
1580423531.6067,-1.99148546578164,0.374761577782863,-0.288334477759976
1580423531.639,-2.3196154726482,-0.310795757991913,-0.0788586251621268
1580423531.6713,-1.95730525673304,0.129152361333638,-0.470954451819638
1580423531.7036,-1.53640039673457,0.302983138780803,-0.260502021820402
1580423531.7359,-1.15162890058747,0.099855039291981,-0.470466163118944
1580423531.7682,-0.494880598153658,-0.385503929198139,-0.492439154650187
1580423531.8005,-0.12133974212253,-0.627206836041809,-0.346440833142596
1580423531.8328,0.307377737087052,-0.570077058060578,-0.957778286411841
1580423531.8651,-0.103273060196841,1.36354619668879,0.140383001449607
1580423531.8974,-0.703868162050812,0.987563897154192,0.881605249103533
1580423531.9297,-0.457282368200199,-1.14235141527428,0.179446097505149
1580423531.962,-1.89040970473793,3.21025406271458,-1.2263370717937
1580423531.9943,-0.931898985275044,-0.54859235523003,-1.20582894636454
1580423532.0266,-0.172121766994735,-0.983169298847944,-1.04176394293126
1580423532.0589,-2.34744792858778,0.901625085831999,-0.747814145113297
1580423532.0912,-1.22047760738537,-0.395757991912719,-0.819104295414665
1580423532.1235,-1.55837338826581,0.0114747844663157,-0.792736705577173
1580423532.1558,-1.38942549782559,0.0554207675288012,-0.618905928130006
1580423532.1881,-1.46901655603876,0.330327306019683,-0.308354314488442
1580423532.22046,-1.50759136339361,0.90748455024033,0.302006561379415
1580423532.25276,-1.13160906385901,0.878675516899367,0.680918593118182
1580423532.28506,-0.784924086366065,0.919203479056993,1.08863965819791
1580423532.31736,-0.460212100404364,0.948989089799344,0.990005340657664
1580423532.34966,-0.389410238803693,0.808850232700085,0.538826581216146
1580423532.38196,-0.478278782330053,0.0954604409857325,0.077393759060044
1580423532.41426,-1.81179522392615,-0.0837415121690697,-0.443610284580759
1580423532.44655,-1.65017166399634,0.62476539253834,-0.0769054703593497
1580423532.47885,-1.9695124742504,-0.0715342946517126,-0.250247959105822
1580423532.51115,-2.02468909742885,0.178469520103761,-0.388921950102999
1580423532.54345,-1.82693217364767,0.0490730144197755,-0.131105516136415
1580423532.57575,-1.51589227130541,0.412359807736323,-0.450934615091173
1580423532.60805,-0.844983596551462,-0.263431754024568,-0.438239108873121
1580423532.64035,-0.406012054627299,-0.650644693675135,-0.34009308003357
1580423532.67265,-0.10083161669337,-0.702403295948729,-0.299076829175251
1580423532.70495,-0.0930189974822611,0.160891126878766,-0.192141603723201
1580423532.73725,-0.50074006256199,1.97048905165179,0.272220950637063
1580423532.76955,-0.717051956969557,0.411383230334934,0.997329671168078
1580423532.80185,0.613046463721677,-2.60428778515297,-0.579354543373769
1580423532.83415,-0.471931029221027,4.9007095445182,-0.263920042725262
1580423532.86645,-1.36159304188602,-0.981704432745861,-0.775646601052873
1580423532.89875,0.6110933089189,-1.41481651026169,-1.00953688868544
1580423532.93105,-3.46611734187839,2.52567330434119,-1.21266498817426
1580423532.96335,-1.31471732661936,-0.197512779430838,-0.972915236133364
1580423532.99565,-1.27809567406729,0.297611963073166,-0.76392767223621
1580423533.02795,-1.39333180743114,-0.131593804837109,-0.683360036621652
1580423533.06025,-1.60720225833524,0.31519035629816,-0.327885862516213
1580423533.09255,-1.58034637979705,0.395757991912717,0.317631799801632
1580423533.12485,-1.31276417181659,0.602792401007097,0.605722133211263
1580423533.15715,-0.756115053025102,0.79810788128481,0.981216144045167
1580423533.18944,-0.48706797894255,1.82546730754559,1.10817120622568
1580423533.22174,-0.301029983978028,0.823987182421607,0.4314030670634
1580423533.25404,-0.586190585183489,-0.610116731517509,0.136964980544747
1580423533.28634,-1.86257724879835,0.229739833676661,-0.307866025787748
1580423533.31864,-1.62429236285954,0.543221179522394,-0.181399252307926
1580423533.35094,-2.21463340199893,-0.678965438315403,-0.287357900358588
1580423533.38324,-1.95584039063096,-0.0500495918211641,-0.362554360265507
1580423533.41554,-1.80935378042268,0.211673151750972,-0.283939879453728
1580423533.44784,-1.63552300297551,0.387945372701608,-0.275150682841231
1580423533.48014,-0.889906157015336,-0.0471198596169984,-0.640390630960555
1580423533.51254,-0.291264209964142,-0.397222858014802,-0.590585183489738
1580423533.54484,-0.0305180437933927,-0.805432211795225,-0.385503929198139
1580423533.57714,-0.0251468680857556,-0.0251468680857556,-0.206790264744029
1580423533.60944,-0.55884641794461,1.82156099794003,0.766369115739682
1580423533.64174,-0.779552910658428,0.817151140611887,1.01881437399863
1580423533.67404,0.0358892195010299,-1.06764324406805,-0.6877546349279
1580423533.70634,0.143312733653772,0.282475013351643,0.179446097505149
1580423533.73864,-1.87283131151293,0.0251468680857556,-0.753673609521631
1580423533.77094,-0.0075684748607614,-1.21852445258259,-0.788342107270925
1580423533.80324,-1.79275196459907,0.651132982375831,-0.738536659800106
1580423533.83554,-1.35280384527352,-0.0925307087815668,-0.475349050125887
1580423533.86784,-1.19459830624857,-0.160891126878766,-0.741954680704966
1580423533.90014,-1.56227969787137,0.11450370031281,-0.664805065995269
1580423533.93244,-1.41042191195544,0.191165026321812,-0.51783016708629
1580423533.96474,-1.52809948882277,0.642343785763334,-0.0822766460669868
1580423533.99704,-1.37233539330129,0.979751277943084,0.460212100404362
1580423534.02934,-0.924086366063936,1.13893339436942,0.954360265506981
1580423534.06164,-0.656992446784161,0.692149233234151,1.36012817578393
1580423534.09394,-0.498298619058518,1.11549553673609,0.771252002746625
1580423534.12624,-0.55884641794461,0.409430075532157,0.177004654001678
1580423534.15854,-1.04615854123751,-0.141847867551689,-0.298100251773862
1580423534.19084,-2.29959563591974,0.592538338292517,-0.244388494697489
1580423534.22314,-2.0549629968719,0.236087586785686,-0.133058670939192
1580423534.25544,-2.4734264133669,-0.534431982909895,-0.0524910353246355
1580423534.28774,-1.81716639963378,-0.0104982070649271,-0.214602883955138
1580423534.32004,-1.52126344701305,0.0300297550926985,-0.275638971541925
1580423534.35234,-0.851819638361182,-0.198977645532921,-0.438727397573816
1580423534.38464,-0.197512779430838,-0.515388723582818,-0.336186770428016
1580423534.41694,0.380621042191194,-0.616464484626535,-0.536385137712672
1580423534.44924,-0.0256351567864499,1.02467383840696,-0.739513237201495
1580423534.48154,-0.956801709010453,1.52468146791791,0.625253681239034
1580423534.51384,-0.643808651865415,-0.960219729915313,0.34253452353704
1580423534.54614,0.667246509498742,-1.3547570000763,-0.127687495231555
1580423534.57844,-4.85529869535363,1.93191424429694,-0.973891813534753
1580423534.61074,0.00659189745937283,-0.883070115205616,-0.247318226901655
1580423534.64304,-0.646250095368886,0.171145189593346,-1.04762340733959
1580423534.67534,-1.96365300984207,0.197024490730143,-0.67750057221332
1580423534.70764,-1.12770275425345,-0.0183108262760356,-0.632089723048752
1580423534.73994,-1.62526894026093,0.0993667505912867,-0.695078965438315
1580423534.77224,-1.31520561532006,-0.0959487296864268,-0.548104066529335
1580423534.8046,-1.67116807812619,0.416266117341877,-0.157473105973907
1580423534.8369,-1.43776607919432,0.76734569314107,0.378667887388417
1580423534.8692,-1.10035858701457,0.875257495994507,0.91432059205005
1580423534.9015,-0.74927901121538,0.640878919661251,1.15895323109789
1580423534.9338,-0.467536430914778,1.23903257801175,0.970962081330587
1580423534.9661,-0.467048142214084,0.547127489127949,0.257572289616235
1580423534.9984,-0.785412375066759,-0.0505378805218584,-0.147707331960021
1580423535.0307,-2.51493095292592,0.519783321889069,-0.74244296940566
1580423535.063,-1.90310521095598,0.184817273212786,-0.153078507667658
1580423535.0953,-2.22537575341421,-0.597421225299458,-0.0681162737468526
1580423535.1276,-1.90847638666362,0.11792172121767,-0.349370565346762
1580423535.1599,-1.55300221255817,0.268802929732203,-0.248294804303043
1580423535.1922,-1.12867933165484,0.130128938735027,-0.461188677805753
1580423535.2245,-0.478767071030747,-0.365484092469673,-0.481696803234913
1580423535.2568,-0.0729991607537954,-0.763439383535516,-0.420660715648127
1580423535.2891,0.0749523155565726,-0.487556267643244,-0.85621423666743
1580423535.3214,-0.211184863050278,0.755138475623713,0.303959716182192
1580423535.3537,-0.777111467154956,1.48513008316167,0.550545510032808
1580423535.386,-0.771740291447319,-0.939223315785458,0.622323949034868
1580423535.4183,-0.320073243305105,-0.260502021820402,0.182375829709315
1580423535.4506,-1.18825055313954,0.498298619058517,-0.790783550774396
1580423535.4829,0.157961394674601,-1.66384374761578,-0.827405203326467
1580423535.51521,-2.14969100480659,0.889417868314641,-1.01539635309377
1580423535.54751,-1.21510643167773,0.0295414663920042,-0.583260852979324
1580423535.57981,-1.31715877012284,0.152590218966964,-0.831311512932022
1580423535.61211,-1.57985809109636,0.0358892195010299,-0.760997940032045
1580423535.64441,-1.73220416571298,0.0217288471808956,-0.320561532005799
1580423535.67671,-1.66677347981994,0.712657358663311,0.215579461356526
1580423535.70901,-1.14381628137636,0.860120546272984,0.717051956969559
1580423535.74131,-0.638925764858472,1.45046158541237,1.22243076218814
1580423535.77361,-0.571053635461967,1.36403448538949,0.967544060425727
1580423535.80591,-0.504646372167544,0.250736247806515,0.418219272144654
1580423535.83821,-0.615487907225146,-0.382574196993973,0.0129396505683985
1580423535.87051,-2.07058823529412,0.232669565880826,-0.703868162050812
1580423535.90281,-1.82156099794003,0.245853360799572,0.11792172121767
1580423535.93511,-2.33377584496834,-0.203860532539863,-0.23999389639124
1580423535.96741,-2.10183871213855,0.196536202029449,-0.440680552376593
1580423535.99971,-1.80593575951782,0.0368657969024184,-0.240482185091935
1580423536.03201,-1.19655146105135,-0.0754406042572668,-0.461188677805753
1580423536.06431,-0.614999618524452,-0.332280460822462,-0.527595941100175
1580423536.09671,-0.126710917830167,-0.929457541771573,-0.369878690775922
1580423536.12901,0.36646066987106,-0.267826352330816,-0.802502479591059
1580423536.16131,-0.611581597619592,1.61355001144427,0.551033798733503
1580423536.19361,-0.702403295948729,0.738048371099413,0.667246509498742
1580423536.22591,-0.614023041123064,-0.847425040054933,0.0173342488746471
1580423536.25821,0.359136339360646,-0.564217593652247,0.114015411612115
1580423536.29052,-2.88798352025635,0.807873655298696,-0.556893263141832
1580423536.32282,0.441168841077285,-2.15310902571145,-0.668711375600823
1580423536.35512,-0.928969253070878,0.279545281147477,-0.950453955901427
1580423536.38742,-1.2605172808423,0.538338292515451,-0.378179598687725
1580423536.41972,-1.07838559548333,-0.121828030823224,-0.67750057221332
1580423536.45202,-1.63698786907759,-0.375249866483559,-0.716075379568169
1580423536.48432,-1.44557869840543,0.266849774929426,-0.532967116807813
1580423536.51662,-1.75661860074769,0.95191882200351,0.166262302586404
1580423536.54892,-1.41579308766308,0.577889677271688,0.636972610055697
1580423536.58122,-0.769787136644542,0.836682688639659,1.01051346608682
1580423536.61352,-0.55542839703975,1.08619821469444,1.10572976272221
1580423536.64583,-0.424078736552987,0.730724040588999,0.711680781261922
1580423536.67813,-0.598886091401541,0.150637064164187,-0.0549324788281069
1580423536.71043,-1.82351415274281,0.351812008850231,-0.497810330357824
1580423536.74273,-1.85964751659419,-0.0139162279697871,0.0534676127260241
1580423536.77503,-2.1916838330663,-0.585214007782101,-0.0256351567864499
1580423536.80733,-2.07742427710384,-0.192629892423895,-0.376714732585642
1580423536.83963,-1.66482032501717,0.0725108720531011,-0.378667887388419
1580423536.87193,-1.26247043564508,0.155519951171129,-0.295658808270391
1580423536.90423,-0.711192492561226,-0.0432135500114441,-0.484626535439078
1580423536.93653,-0.143801022354467,-0.500251773861295,-0.510505836575875
1580423536.96883,0.0153810940718699,-0.731212329289692,-0.912367437247273
1580423537.00114,-0.256595712214848,0.908949416342413,-0.292240787365531
1580423537.03344,-0.505622949568933,1.243427176318,0.883070115205616
1580423537.06574,-0.7048447394522,-0.587655451285572,1.44216067750057
1580423537.09804,0.131105516136415,-1.50319676508736,-0.751720454718853
1580423537.13034,-3.13505760280766,13.3300373846036,0.870862897688259
1580423537.16264,-1.57692835889219,-1.36501106279088,-0.865003433279927
1580423537.19494,0.294193942168306,-1.3205767910277,-1.08473334859235
1580423537.22724,-3.50664530403601,2.60477607385367,-0.941176470588236
1580423537.25954,-1.45241474021515,-0.099855039291981,-1.03395132372015
1580423537.29184,-1.31032272831312,-0.00854505226214997,-0.650644693675135
1580423537.32415,-1.5593499656672,0.449958037689782,-0.477302204928664
1580423537.35645,-1.74343480582895,0.774670023651485,0.118898298619058
1580423537.38889,-1.5334706645304,0.500251773861297,0.696055542839705
1580423537.42119,-0.928969253070878,0.475349050125885,1.16871900511177
1580423537.45349,-0.623788815136949,1.21950102998398,1.13942168307011
1580423537.48579,-0.390386816205082,0.783947508964676,0.606698710612651
1580423537.51809,-0.334233615625239,-0.0827649347676811,0.0236820019836728
1580423537.55039,-1.31911192492561,-0.0598153658350498,-0.312260624093996
1580423537.58269,-1.65407797360189,0.42114900434882,-0.192141603723201
1580423537.61499,-2.11111619745174,0.160891126878766,-0.400640878919662
1580423537.64729,-2.23025864042115,-0.178469520103761,-0.306889448386359
1580423537.67959,-1.88064393072404,0.0510261692225527,-0.284428168154422
1580423537.71189,-1.42946517128252,0.25708400091554,-0.339604791332876
1580423537.7442,-0.86646829938201,-0.162355992980849,-0.634042877851529
1580423537.7765,-0.268802929732205,-0.717051956969557,-0.471931029221027
1580423537.8088,0.287357900358586,-1.45094987411307,-0.441168841077287
1580423537.8411,0.0852063782711525,0.38355077439536,-0.433356221866179
1580423537.8734,-0.73560692759594,2.38602273594262,2.18142977035172
1580423537.9057,-0.730724040588997,-0.53150225070573,0.788830395971619
1580423537.938,0.330815594720377,-1.10768291752499,-1.225848783093
1580423537.9703,-1.75906004425116,2.88261234454871,1.13600366216525
1580423538.0026,-2.50907148851759,-1.49782558937972,-1.18141451132982
1580423538.0349,0.349858854047454,-1.68239871824216,-0.828381780727856
1580423538.0672,-3.47637140459297,2.62577248798352,-1.47243457694362
1580423538.09951,-1.21315327687495,-0.127687495231555,-0.836194399938964
1580423538.13181,-1.37819485770962,0.0979018844892039,-0.83570611123827
1580423538.16411,-1.41139848935683,0.0222171358815899,-0.705333028152895
1580423538.19641,-1.62966353856718,0.170656900892652,-0.369878690775922
1580423538.22871,-1.74196993972686,0.506111238269629,0.227298390173189
1580423538.26101,-1.16041809719997,0.91773861295491,0.603280689707791
1580423538.29331,-0.82887006942855,0.919203479056993,1.11012436102846
1580423538.32561,-0.467048142214084,0.994888227664607,1.25709925993744
1580423538.35791,-0.360112916762036,0.636484321355002,0.23999389639124
1580423538.39021,-0.416754406042573,0.177492942702372,0.0627450980392155
1580423538.42251,-1.5334706645304,0.367925535973143,-0.289799343862059
1580423538.45482,-1.94265659571222,0.578866254673077,-0.178957808804455
1580423538.48712,-2.37479209582666,-0.441657129777981,-0.136964980544747
1580423538.51942,-2.32156862745098,-0.0539559014267184,-0.166262302586404
1580423538.55172,-2.12429999237049,-0.0710460059510183,-0.249759670405126
1580423538.58402,-1.3713588158999,-0.0549324788281069,-0.337651636530099
1580423538.61632,-0.828381780727856,-0.143801022354467,-0.485603112840467
1580423538.64862,-0.294193942168308,-0.477790493629358,-0.43579766536965
1580423538.681,0.413824673838405,-0.531013962005035,-0.657969024185549
1580423538.7133,0.0822766460669868,0.422125581750208,-0.182375829709315
1580423538.7456,-0.481208514534218,1.17164873731594,1.02711528191043
1580423538.7779,-1.11549553673609,0.38355077439536,0.952407110704204
1580423538.8102,0.281498435950255,-2.66581216144045,-0.261478599221791
1580423538.84251,-1.3884489204242,13.9086594949264,-4.549629968719
1580423538.87481,-1.10475318532082,-1.71413748378729,-0.786877241168842
1580423538.90711,0.53247882810712,-1.25075150682841,-1.00514229037919
1580423538.93941,-3.17607385366598,1.99685664148928,-1.77761501487755
1580423538.97171,-1.31520561532006,-0.0886243991760125,-0.847425040054933
1580423539.00401,-1.25661097123674,0.0559090562294955,-0.591561760891127
1580423539.03631,-1.41188677805753,-0.464606698710613,-0.639414053559166
1580423539.06862,-1.6023193713283,0.364019226367589,-0.248783093003738
1580423539.10092,-1.65017166399634,0.780529488059816,0.2605020218204
1580423539.13322,-1.25563439383536,0.831311512932022,0.892835889219501
1580423539.16552,-0.754650186923019,0.967544060425727,1.15114061188678
1580423539.19782,-0.49732204165713,1.18287937743191,0.985610742351415
1580423539.23012,-0.420172426947433,0.41089494163424,0.444098573281451
1580423539.26242,-0.531013962005035,-0.218997482261386,-0.0710460059510183
1580423539.29473,-1.66921492332341,0.550545510032808,-0.673105973907072
1580423539.32703,-1.94314488441291,0.758556496528573,-0.314213778896773
1580423539.35933,-2.53641565575647,-0.574471656366827,-0.386968795300222
1580423539.39163,-2.12185854886702,-0.286381322957199,-0.245365072098878
1580423539.42393,-1.47096971084154,-0.034424353398947,-0.0715342946517126
1580423539.45623,-1.19703974975204,0.192141603723201,-0.252201113908599
1580423539.48853,-0.753673609521631,-0.131105516136415,-0.44605172808423
1580423539.52084,-0.238529030289158,-0.497810330357824,-0.327885862516213
1580423539.55314,0.248294804303043,-0.875257495994507,-0.699473563744563
1580423539.58544,-0.206301976043335,0.620859082932785,-0.306889448386359
1580423539.61774,-0.667246509498741,1.87917906462196,0.920180056458381
1580423539.65004,-0.79810788128481,-0.662363622491798,1.04127565423056
1580423539.68234,0.320073243305103,-2.07937743190661,0.261966887922483
1580423539.71464,-5.19026474402991,1.70534828717479,0.783947508964676
1580423539.74695,-0.219485770962081,-1.62868696116579,-0.632089723048752
1580423539.77925,-0.295170519569696,-0.495368886854353,-0.974868390936141
1580423539.81155,-2.03933775844968,0.700450141145954,-1.07447928587777
1580423539.84385,-1.1150072480354,-0.0354009308003356,-1.03688105592432
1580423539.87615,-1.64870679789425,0.0354009308003356,-0.744884412909132
1580423539.90845,-1.42067597467002,-0.358648050659953,-0.669199664301518
1580423539.94075,-1.85720607309072,0.114015411612115,-0.341069657434959
1580423539.97314,-1.70632486457618,0.964126039520867,0.392339971007857
1580423540.00545,-1.11598382543679,1.01197833218891,1.02613870450904
1580423540.03775,-0.837659266041047,1.13405050736248,1.4651102464332
1580423540.07005,-0.53492027161059,1.24147402151522,0.82203402761883
1580423540.10235,-0.472419317921721,0.558358129243917,0.198977645532921
1580423540.13465,-0.737071793698023,-0.041260395208667,-0.293705653467613
1580423540.16695,-2.25711451895934,0.0749523155565726,-0.910414282444496
1580423540.19925,-2.06228732738231,0.10424963759823,-0.0451667048142212
1580423540.23156,-2.34061188677806,-0.299565117875945,-0.23657587548638
1580423540.26386,-2.14285496299687,0.106202792401007,-0.470954451819638
1580423540.29616,-1.62526894026093,-0.0319829098954756,-0.184328984512092
1580423540.32846,-1.08619821469444,0.00317387655451284,-0.382085908293279
1580423540.36076,-0.47681391622797,-0.456794079499504,-0.456794079499504
1580423540.39306,-0.0432135500114441,-1.13014419775692,-0.384039063096056
1580423540.42536,0.222415503166246,0.00415045395590141,-0.729259174486915
1580423540.45767,-0.69800869764248,1.69509422446021,0.887953002212559
1580423540.48997,-0.473884184023804,0.78785381857023,0.364995803768977
1580423540.52227,0.00122072175173571,-0.85279621576257,-0.0173342488746471
1580423540.55457,-0.215091172655832,-0.335210193026628,0.397711146715494
1580423540.58687,-1.6364995803769,0.495368886854351,-0.448493171587701
1580423540.61917,0.39038681620508,-1.39528496223392,-0.930434119172961
1580423540.65147,-1.8928511482414,0.221927214465552,-0.803967345693142
1580423540.68378,-1.24489204242008,0.217044327458609,-0.495857175555047
1580423540.71608,-1.35036240177005,0.129152361333638,-0.748790722514686
1580423540.74838,-1.51589227130541,0.0896009765774011,-0.761974517433433
1580423540.78068,-1.63747615777829,-0.00317387655451284,-0.426031891355764
1580423540.81298,-1.74978255893797,0.5769130998703,0.131593804837109
1580423540.84528,-1.39967956054017,0.677012283512628,0.650156404974442
1580423540.87758,-0.833264667734799,0.953871976806287,0.868421454184787
1580423540.90989,-0.400640878919662,1.40309758144503,1.1750667582208
1580423540.94219,-0.521736476691844,1.09205767910277,0.428473334859234
1580423540.97449,-0.520759899290455,-0.197024490730143,0.371343556878003
1580423541.00679,-0.720958266575112,-0.317631799801633,-0.0354009308003356
1580423541.03909,-2.64335088120851,0.579354543373771,-0.770275425345236
1580423541.07139,-2.05203326466773,0.180422674906538,-0.228274967574578
1580423541.10369,-2.35086594949264,-0.267826352330816,-0.143312733653772
1580423541.13599,-1.94070344090944,0.126222629129472,-0.312260624093996
1580423541.1683,-1.37477683680476,0.155031662470435,-0.161379415579461
1580423541.2006,-1.19996948195621,0.0866712443732354,-0.459235523002976
1580423541.2329,-0.46314183260853,-0.334233615625239,-0.440192263675899
1580423541.26526,-0.132570382238498,-0.602304112306401,-0.330327306019685
1580423541.29756,0.01196307316701,-0.47681391622797,-0.511970702677958
1580423541.32986,-0.602792401007095,1.19996948195621,0.368902113374531
1580423541.36216,-0.786877241168842,1.44167238879988,0.862073701075762
1580423541.39446,-0.222903791866941,-0.566659037155718,-0.151613641565575
1580423541.42677,0.258548867017623,-1.7473411154345,0.364995803768977
1580423541.45907,-4.28107118333715,2.36893263141832,0.664316777294577
1580423541.49137,0.150148775463492,-1.61696803234913,-0.613046463721675
1580423541.52367,-0.497810330357824,-0.336186770428016,-0.846448462653544
1580423541.55597,-1.80642404821851,0.834241245136187,-0.89723048752575
1580423541.58827,-1.12086671244373,-0.0261234454871442,-0.896253910124361
1580423541.62057,-1.53835355153735,0.101808194094758,-0.647714961470969
1580423541.65288,-1.34157320515755,-0.192141603723201,-0.582772564278629
1580423541.68518,-1.6789806973373,0.206790264744029,-0.2434119172961
1580423541.71748,-1.56520943007553,0.656992446784162,0.290287632562752
1580423541.74978,-1.11110093842985,0.995376516365301,0.696543831540399
1580423541.78208,-0.784924086366065,1.03443961242084,1.1921568627451
1580423541.81438,-0.589608606088349,1.29616235599298,0.998306248569467
1580423541.84668,-0.453864347295339,0.691172655832762,0.443121995880063
1580423541.87899,-0.730235751888303,0.126222629129472,-0.0686045624475469
1580423541.91129,-2.07351796749828,0.449469748989088,-0.860120546272984
1580423541.94359,-2.11404592965591,0.350835431448843,-0.151125352864881
1580423541.97589,-2.45438315403983,-0.545662623025864,-0.168703746089875
1580423542.00819,-2.22684061951629,0.0686045624475469,-0.410406652933547
1580423542.04049,-1.79470511940185,0.031006332494087,-0.196047913328755
1580423542.07279,-1.27321278706035,-0.0524910353246355,-0.419684138246739
1580423542.10509,-0.654551003280689,-0.306889448386359,-0.519295033188373
1580423542.1374,-0.0417486839093613,-0.826916914625773,-0.437750820172427
1580423542.1697,0.271732661936369,-0.494880598153658,-1.09547570000763
1580423542.202,-0.505622949568933,0.116456855115587,-0.574959945067521
1580423542.2343,-0.804455634393836,2.26248569466697,1.01149004348821
1580423542.2666,-0.611581597619592,-0.129152361333638,0.813244831006333
1580423542.2989,0.619882505531397,-1.83474479285878,0.188235294117646
1580423542.3312,-8.34802777141985,-16,1.14625772487983
1580423542.36351,-1.10035858701457,-1.83962767986572,-0.946547646295873
1580423542.39581,0.226321812771801,-0.961684596017395,-0.67750057221332
1580423542.42811,-3.66387426565957,1.48122377355611,-0.771252002746625
1580423542.46041,-1.20485236896315,-0.141847867551689,-1.03053330281529
1580423542.49271,-1.25856412603952,0.280521858548866,-0.776134889753568
1580423542.52501,-1.41579308766308,0.232669565880826,-0.710704203860532
1580423542.55737,-1.66921492332341,0.312260624093994,-0.188235294117646
1580423542.58967,-1.68679331654841,0.574959945067523,0.502693217364769
1580423542.62198,-1.10914778362707,0.677500572213322,0.989028763256275
1580423542.65428,-0.729747463187609,0.993423361562524,1.31764705882353
1580423542.68658,-0.540291447318227,1.5427481498436,0.851331349660487
1580423542.71888,-0.415777828641184,0.394293125810634,0.248294804303043
1580423542.75118,-0.572518501564049,-0.383062485694667,-0.0075684748607614
1580423542.78348,-2.31522087434196,0.245365072098878,-0.600350957503624
1580423542.81578,-1.82986190585184,0.662363622491799,-0.23315785458152
1580423542.84809,-2.28738841840238,-0.247806515602349,-0.174074921797512
1580423542.88039,-1.92263675898375,0.344487678339817,-0.427985046158541
1580423542.91269,-1.55886167696651,0.115480277714198,-0.106691081101701
1580423542.94499,-1.21071183337148,0.0222171358815899,-0.541268024719615
1580423542.97729,-0.436285954070344,-0.446540016784924,-0.421149004348822
1580423543.00959,-0.000244144350347142,-1.06715495536736,-0.327397573815519
1580423543.04189,0.0192874036774242,0.0251468680857556,-0.469489585717556
1580423543.07419,-0.68091859311818,1.74685282673381,0.810315098802167
1580423543.1065,-0.746349279011215,0.813244831006333,0.529549095902954
1580423543.1388,-0.0168459601739528,-1.3718471046006,-0.547127489127947
1580423543.1711,0.279545281147477,-0.356694895857176,0.679942015716794
1580423543.2034,-2.80057984283208,0.236087586785686,-0.733165484092469
1580423543.2357,0.863538567177844,-1.79079880979629,-0.861097123674373
1580423543.268,-1.44753185320821,0.528084229800871,-0.831799801632716
1580423543.3003,-1.08570992599374,0.326420996414129,-0.403082322423133
1580423543.33261,-1.23170824750133,0.0715342946517126,-0.82203402761883
1580423543.36491,-1.59206530861372,-0.117433432516975,-0.689219501029983
1580423543.39721,-1.71462577248798,0.209231708247501,-0.404058899824522
1580423543.42951,-1.68581673914702,0.334721904325932,0.196047913328755
1580423543.46181,-1.35378042267491,0.729747463187611,0.622812237735562
1580423543.49411,-0.81177996490425,0.79810788128481,0.968032349126421
1580423543.52641,-0.365972381170367,1.24098573281453,1.13160906385901
1580423543.55872,-0.386968795300222,1.02809185931182,0.349858854047454
1580423543.59102,-0.342046234836348,0.000244144350347142,0.186282139314869
1580423543.62332,-1.07399099717708,-0.148195620660715,-0.287846189059282
1580423543.65562,-2.05789272907607,0.35620660715648,-0.154543373769741
1580423543.68792,-2.03201342793927,-0.119874876020447,-0.219485770962081
1580423543.72022,-2.15457389181353,0.145265888456549,-0.344975967040513
1580423543.75252,-1.70290684367132,0.10424963759823,-0.213626306553749
1580423543.78483,-1.45827420462348,0.159914549477378,-0.381597619592585
1580423543.81713,-0.693614099336232,-0.36060120546273,-0.535408560311284
