Timestamp_seconds,Accel_X_g,Accel_Y_g,Accel_Z_g
1580423613.20478,-0.962661173418784,-0.210208285648889,-0.255619134813459
1580423613.23735,-0.96559090562295,-0.221438925764858,-0.248783093003738
1580423613.26993,-0.963149462119478,-0.195071335927366,-0.232669565880826
1580423613.3025,-0.959243152513924,-0.201419089036392,-0.231692988479438
1580423613.33507,-0.961684596017395,-0.198489356832226,-0.254154268711376
1580423613.36765,-0.961196307316701,-0.191653315022506,-0.243900205996795
1580423613.40022,-0.964614328221561,-0.204837109941252,-0.240970473792629
1580423613.4328,-0.958266575112535,-0.217044327458609,-0.23315785458152
1580423613.46537,-0.96559090562295,-0.191653315022506,-0.246341649500266
1580423613.49794,-0.946547646295873,-0.197024490730143,-0.231204699778743
1580423613.53052,-0.959243152513924,-0.200442511635003,-0.2434119172961
1580423613.56309,-0.961196307316701,-0.178469520103761,-0.224856946669718
1580423613.59567,-0.962661173418784,-0.191165026321812,-0.251712825207905
1580423613.62824,-0.948012512397955,-0.218997482261386,-0.243900205996795
1580423613.66083,-0.960708018616007,-0.207278553444723,-0.242923628595406
1580423613.6934,-0.961684596017395,-0.207766842145418,-0.237064164187075
1580423613.72598,-0.966079194323644,-0.200442511635003,-0.232669565880826
1580423613.75855,-0.948989089799344,-0.215091172655832,-0.2434119172961
1580423613.79112,-0.960708018616007,-0.209231708247501,-0.255130846112765
1580423613.8237,-0.960708018616007,-0.183840695811398,-0.237552452887769
1580423613.85627,-0.969497215228504,-0.199465934233615,-0.227298390173189
1580423613.88885,-0.956801709010453,-0.220950637064163,-0.248783093003738
1580423613.92142,-0.96559090562295,-0.220950637064163,-0.254642557412071
1580423613.95399,-0.970962081330587,-0.204837109941252,-0.23315785458152
1580423613.98657,-0.957289997711147,-0.211184863050278,-0.260502021820402
1580423614.01914,-0.952895399404898,-0.209231708247501,-0.246341649500266
1580423614.05172,-0.952407110704204,-0.183840695811398,-0.266361486228734
1580423614.08429,-0.957289997711147,-0.175051499198901,-0.24682993820096
1580423614.11687,-0.952407110704204,-0.193118181124589,-0.222903791866941
1580423614.14944,-0.962661173418784,-0.220950637064163,-0.253177691309988
1580423614.18201,-0.957778286411841,-0.217532616159303,-0.23315785458152
1580423614.21459,-0.952407110704204,-0.233646143282215,-0.227786678873883
1580423614.24716,-0.965102616922255,-0.236087586785686,-0.213626306553749
1580423614.27974,-0.973403524834058,-0.217044327458609,-0.231204699778743
1580423614.31231,-0.955825131609064,-0.214602883955138,-0.235599298084992
1580423614.34488,-0.959243152513924,-0.222903791866941,-0.199465934233615
1580423614.37746,-0.957778286411841,-0.225345235370412,-0.218020904859998
1580423614.41003,-0.964614328221561,-0.219485770962081,-0.228274967574578
1580423614.44261,-0.94166475928893,-0.250736247806516,-0.236087586785686
1580423614.47518,-0.955825131609064,-0.236087586785686,-0.242435339894712
1580423614.50776,-0.951430533302815,-0.228274967574578,-0.236087586785686
1580423614.54033,-0.96559090562295,-0.236087586785686,-0.219974059662775
1580423614.5729,-0.967544060425727,-0.235599298084992,-0.209719996948195
1580423614.60548,-0.94850080109865,-0.223392080567635,-0.202395666437781
1580423614.63805,-0.962661173418784,-0.206790264744029,-0.218509193560692
1580423614.67063,-0.960708018616007,-0.201419089036392,-0.233646143282215
1580423614.7032,-0.962661173418784,-0.195071335927366,-0.224856946669718
1580423614.73577,-0.981216144045167,-0.230228122377355,-0.198977645532921
1580423614.76835,-0.993911650263218,-0.271244373235676,-0.195071335927366
1580423614.80092,-0.975356679636835,-0.290287632562753,-0.176028076600289
1580423614.8335,-0.966567483024338,-0.253177691309988,-0.206301976043335
1580423614.86607,-0.96559090562295,-0.189700160219729,-0.237552452887769
1580423614.89865,-0.945571068894484,-0.171633478294041,-0.260013733119708
1580423614.93122,-0.932387273975738,-0.151613641565575,-0.299076829175251
1580423614.96381,-0.953871976806287,-0.142336156252384,-0.307866025787748
1580423614.99638,-0.932387273975738,-0.152590218966964,-0.288822766460671
1580423615.02895,-0.949965667200733,-0.191165026321812,-0.265384908827345
1580423615.06153,-0.94850080109865,-0.204837109941252,-0.260013733119708
1580423615.0941,-0.965102616922255,-0.186282139314869,-0.258060578316931
1580423615.12668,-0.948989089799344,-0.169192034790569,-0.276127260242619
1580423615.15925,-0.975356679636835,-0.173098344396124,-0.244876783398183
1580423615.19182,-0.96559090562295,-0.165285725185015,-0.284916456855116
1580423615.2244,-0.95191882200351,-0.203372243839169,-0.264896620126651
1580423615.25697,-0.957778286411841,-0.214114595254443,-0.258548867017625
1580423615.28955,-0.977798123140307,-0.198001068131532,-0.236087586785686
1580423615.32212,-0.967055771725033,-0.178957808804455,-0.253665980010682
1580423615.3547,-0.954848554207675,-0.184817273212786,-0.256595712214848
1580423615.38727,-0.961684596017395,-0.194094758525978,-0.23315785458152
1580423615.41984,-0.969985503929198,-0.190188448920424,-0.241947051194018
1580423615.45242,-0.960708018616007,-0.205813687342641,-0.219974059662775
1580423615.48499,-0.967055771725033,-0.229251544975966,-0.191165026321812
1580423615.51757,-0.988052185854887,-0.277103837644008,-0.211673151750972
1580423615.55014,-1.01637293049516,-0.310795757991913,-0.192141603723201
1580423615.58272,-0.98268101014725,-0.34351110093843,-0.190188448920424
1580423615.61529,-0.944106202792401,-0.525642786297398,-0.031006332494087
1580423615.64786,-0.953383688105593,-0.764904249637599,-0.0163576714732585
1580423615.68044,-0.927504386968796,-0.933363851377127,-0.0725108720531011
1580423615.71301,-0.990493629358358,-0.593026626993209,-0.478767071030747
1580423615.74559,-0.781506065461205,0.502204928664074,-0.91090257114519
1580423615.77816,-0.583260852979324,0.0539559014267184,-0.373296711680782
1580423615.81073,-1.25026321812772,-0.522224765392538,0.204837109941252
1580423615.84331,-0.97584496833753,-0.147707331960021,0.161379415579461
1580423615.87588,-0.930922407873656,0.186770428015564,-0.0847180895704582
1580423615.90846,-1.09742885481041,-0.044678416113527,-0.0559090562294955
1580423615.94103,-0.928480964370184,-0.559334706645304,0.112062256809338
1580423615.9736,-0.934340428778516,-0.374761577782865,0.0363775082017241
1580423616.00618,-0.973891813534753,-0.197024490730143,-0.0144045166704814
1580423616.03875,-0.917250324254216,-0.217532616159303,-0.0544441901274126
1580423616.07133,-0.982192721446555,-0.438239108873121,-0.067139696345464
1580423616.1039,-0.990981918059052,-0.496833752956436,-0.10424963759823
1580423616.13648,-0.909437705043107,-0.452399481193256,-0.102784771496147
1580423616.16905,-0.908461127641718,-0.489509422446021,-0.0515144579232469
1580423616.20162,-0.928969253070878,-0.39136339360647,-0.0407721065079727
1580423616.2342,-0.912367437247273,-0.385015640497445,-0.0305180437933927
1580423616.26681,-0.899183642328527,-0.409430075532159,-0.0178225375753414
1580423616.29939,-0.916762035553521,-0.51441214618143,-0.0554207675288012
1580423616.33196,-0.868909742885482,-0.520759899290455,0.0153810940718699
1580423616.36454,-0.95191882200351,-0.32642099641413,0.0266117341878385
1580423616.39711,-0.934340428778516,-0.365972381170367,0.027588311589227
1580423616.42969,-1.06861982146944,-0.382085908293279,0.0104982070649271
1580423616.46226,-1.20192263675898,-0.259037155718319,0.080811779964904
1580423616.49483,-1.29958037689784,-0.000244144350347142,0.181399252307926
1580423616.52741,-1.48561837186236,-0.117433432516975,0.239017318989852
1580423616.55998,-1.26637674525063,-0.499763485160601,0.453864347295337
1580423616.59256,-0.776134889753568,-0.751720454718853,-0.00317387655451284
1580423616.62513,-0.857190814068819,-0.724376287479972,0.0144045166704814
1580423616.6577,-0.974380102235447,-0.171145189593346,0.0954604409857325
1580423616.69028,-0.984634164950027,-0.209719996948195,0.171145189593346
1580423616.72285,-0.809826810101473,-0.584725719081407,0.306889448386357
1580423616.75543,-0.567147325856412,-0.513923857480735,0.160402838178072
1580423616.788,-0.727306019684137,-0.291752498664836,-0.0866712443732354
1580423616.82058,-0.677988860914015,-0.328374151216908,0.140383001449607
1580423616.85315,-0.535896849011978,-0.477790493629358,0.0578622110322726
1580423616.88572,-0.501716639963378,-0.583749141680018,0.0554207675288012
1580423616.9183,-0.439703974975204,-0.820080872816053,0.141847867551689
1580423616.95087,-0.423102159151599,-0.71168078126192,0.301029983978026
1580423616.98345,-0.540291447318227,-0.516365300984207,0.480231937132828
1580423617.01602,-1.3547570000763,-0.284428168154422,0.465094987411305
1580423617.04859,-1.51491569390402,0.0148928053711757,0.245853360799572
1580423617.08117,-1.03981078812848,-0.279545281147479,0.401129167620354
1580423617.11374,-1.04567025253681,-0.248783093003738,0.59742122529946
1580423617.14632,-0.966567483024338,-0.300541695277333,0.565682459754331
1580423617.17889,-0.941176470588236,-0.421149004348822,0.388921950102997
1580423617.21147,-0.786388952468148,-0.69800869764248,0.368413824673837
1580423617.24404,-0.715587090867475,-0.416266117341879,0.0871595330739297
1580423617.27661,-0.544686045624475,0.196047913328755,-0.387457084000916
1580423617.30919,-0.546639200427252,1.00123598077363,-0.0515144579232469
1580423617.34176,-0.519295033188373,0.619882505531397,-0.819104295414665
1580423617.37434,-0.86305027847715,0.230228122377355,-0.284428168154422
1580423617.40691,-5.32112611581598,-2.48270389868009,2.16873426413367
1580423617.43948,-0.764415960936905,-0.877210650797284,-0.600839246204318
1580423617.47206,0.448981460288394,0.32202639810788,-0.460212100404364
1580423617.50463,-5.592614633402,3.46367589837491,-0.539803158617532
1580423617.53721,-1.05348287174792,-0.214114595254443,0.268802929732203
1580423617.56982,-1.9529106584268,0.681406881818877,0.0153810940718699
1580423617.6024,-1.95486381322957,-0.792736705577173,0.41773098344396
1580423617.63497,-1.44655527580682,-1.5935301747158,1.01197833218891
1580423617.66755,-0.207766842145418,-2.19412527656977,0.86988632028687
1580423617.70012,-0.661875333791103,-1.34743266956588,1.21168841077287
1580423617.73269,-0.846936751354239,-0.204348821240558,0.594491493095294
1580423617.76527,-0.762951094834822,-0.00659189745937283,0.227786678873883
1580423617.79784,-1.68288700694285,0.0417486839093613,-0.0690928511482412
1580423617.83042,-1.72243839169909,0.177004654001678,0.141847867551689
1580423617.86299,-2.33035782406348,0.219485770962081,0.0612802319371326
1580423617.89557,-2.50663004501411,-0.104737926298924,0.222415503166246
1580423617.92814,-1.83718623636225,0.0393072404058898,-0.0329594872968642
1580423617.96071,-1.6872816052491,0.464606698710611,-0.321538109407188
1580423617.99329,-1.08326848249027,0.557869840543223,-0.451911192492561
1580423618.02586,-0.603768978408484,0.413336385137711,-0.370366979476616
1580423618.05844,-0.0822766460669868,0.58033112077516,-0.0300297550926985
1580423618.09101,0.316166933699549,1.29958037689784,0.807385366598002
1580423618.12358,-0.309330891889831,-0.169680323491264,0.461188677805751
1580423618.15616,-0.280521858548868,-0.915297169451438,-0.569588769359884
1580423618.18873,0.65210955977722,-1.29079118028534,1.29225604638743
1580423618.22131,-7.86657511253529,-0.788342107270925,1.08668650339513
1580423618.25388,0.0695811398489354,-1.02467383840696,-0.606698710612649
1580423618.28646,-0.465583276112001,3.91290150301366,-1.41530479896239
1580423618.31903,-2.1321126115816,-0.563241016250858,0.118410009918364
1580423618.3516,-1.18190280003052,-0.170168612191958,0.117433432516975
1580423618.38418,-2.47977416647593,0.928480964370184,-0.136476691844052
1580423618.41675,-1.59157701991302,0.254642557412069,0.138918135347524
1580423618.44933,-2.0549629968719,-0.203860532539863,0.680430304417488
1580423618.4819,-1.58669413290608,-1.46706340123598,1.44509040970474
1580423618.51447,-1.05641260395209,-1.49880216678111,1.08717479209583
1580423618.54705,0.457282368200197,-2.31815060654612,1.62575722896162
1580423618.57962,-0.672129396505683,-0.604257267109178,1.09547570000763
1580423618.6122,-0.638437476157778,-0.0334477759975584,-0.153078507667658
1580423618.64477,-1.96804760814832,-0.306889448386359,0.312748912794689
1580423618.67735,-1.8498817425803,0.0100099183642328,0.2775921263447
1580423618.70992,-2.62333104448005,0.0651865415426869,0.199954222934309
1580423618.74249,-2.31033798733501,0.186770428015564,-0.0207522697795071
1580423618.77507,-1.59987792782483,0.215579461356526,-0.385992217898833
1580423618.80764,-1.15211718928817,0.750743877317465,-0.7048447394522
1580423618.84022,-0.661875333791103,1.28249027237354,-1.26588845654994
1580423618.87286,0.334233615625237,1.23366140230411,0.45874723430228
1580423618.90544,0.0578622110322726,-0.588143739986267,0.719981689173725
1580423618.93801,-1.4138399328603,-1.40358587014572,0.310795757991912
1580423618.97059,0.0861829556725411,-2.06765850308995,-0.0583504997329669
1580423619.00316,1.04127565423056,-0.00268558785381856,0.520759899290457
1580423619.03573,-4.76887159533074,-0.528572518501564,1.46608682383459
1580423619.06831,-0.323491264209965,-1.10475318532082,-0.320561532005799
1580423619.10088,-0.572030212863355,2.75370412756542,-1.05738918135348
1580423619.13346,-1.97000076295109,0.110109102006561,0.00122072175173571
1580423619.16603,-1.29762722209506,0.135988403143358,0.107179369802395
1580423619.1986,-2.2341649500267,1.33962005035477,-0.330815594720379
1580423619.23118,-1.88113221942474,0.184817273212786,0.219485770962081
1580423619.26375,-1.87771419851988,-0.33667505912871,0.5769130998703
1580423619.29633,-1.43434805828946,-1.3796597238117,0.91432059205005
1580423619.3289,-1.13063248645762,-1.48805981536584,0.975356679636835
1580423619.36148,0.241947051194018,-2.13601892118715,1.44216067750057
1580423619.39405,-0.433356221866179,-1.41530479896239,1.06813153276875
1580423619.42662,-0.589120317387655,-0.379644464789807,0.426031891355763
1580423619.4592,-3.0120088502327,0.826916914625773,-0.149172198062104
1580423619.49177,-1.47341115434501,0.206790264744029,-0.0451667048142212
1580423619.52435,-2.3025253681239,-0.40845349813077,0.310795757991912
1580423619.55692,-2.36600289921416,0.0710460059510183,0.202395666437781
1580423619.58949,-1.84353398947128,0.469489585717554,-0.333745326924545
1580423619.62207,-1.30397497520409,0.682383459220265,-0.599374380102235
1580423619.65464,-0.763439383535516,0.677988860914017,-0.640390630960555
1580423619.68722,-0.39819943541619,0.92115663385977,-0.511482413977264
1580423619.71979,0.440192263675897,0.559822995346,0.3972228580148
1580423619.75237,-0.390386816205082,-0.994888227664607,1.46462195773251
1580423619.78494,-0.862073701075762,-0.710704203860532,-0.417730983443962
1580423619.81751,0.569100480659191,-0.0710460059510183,0.0949721522850382
1580423619.85009,-1.31764705882353,-0.798596169985505,0.559334706645306
1580423619.88266,-1.26149385824369,-0.616464484626535,-0.125246051728084
1580423619.91524,-0.232181277180132,1.585229266804,-0.721446555275806
1580423619.94781,-2.1575036240177,0.851819638361182,-0.316166933699551
1580423619.98038,-1.49391927977417,-0.163332570382238,0.34253452353704
1580423620.01296,-1.76736095216297,1.17897306782635,-0.310307469291219
1580423620.04553,-1.85525291828794,0.473395895323108,-0.0075684748607614
1580423620.07811,-1.75173571374075,-0.371831845578699,0.176028076600289
1580423620.11068,-1.80398260471504,-0.937758449683376,0.624277103837645
1580423620.14326,-1.53493553063249,-1.14283970397497,1.05445944914931
1580423620.1759,-0.623788815136949,-1.48464179446098,1.18385595483329
1580423620.20848,0.189211871519035,-1.19850461585412,1.4738994430457
1580423620.24105,-0.590096894789044,-0.51441214618143,0.91773861295491
1580423620.27362,-0.540291447318227,-0.430426489662013,0.410406652933546
1580423620.3062,-3.27031357289998,0.764415960936905,-0.041260395208667
1580423620.33877,-1.93093766689555,0.027588311589227,0.0725108720531011
1580423620.37135,-2.46268406195163,-0.0813000686655982,0.249759670405126
1580423620.40392,-2.21170366979477,0.157961394674601,0.165285725185015
1580423620.4365,-1.71755550469215,0.511482413977266,-0.50415808346685
1580423620.46907,-1.07301441977569,0.892835889219501,-0.673594262607766
1580423620.50164,-0.535896849011978,0.864026855878539,-0.882093537804227
1580423620.53422,0.0866712443732354,0.785900663767453,-0.134523537041275
1580423620.56679,0.202883955138475,0.103761348897535,0.395757991912717
1580423620.59937,-0.814221408407722,-2.2087739375906,-0.0134279392690928
1580423620.63194,0.196536202029449,-1.23561455710689,0.840100709544519
1580423620.66452,0.485114824139771,0.0139162279697871,-0.216067750057221
1580423620.69709,-2.75272755016404,0.166750591287098,1.81081864652476
1580423620.72966,-0.0847180895704582,-0.284428168154422,-0.887464713511864
1580423620.76224,-1.81765468833448,2.93632410162509,-1.2605172808423
1580423620.79481,-1.76784924086366,-0.0915541313801782,-0.00512703135728998
1580423620.82739,-1.3630579079881,0.27075608453498,0.0397955291065841
1580423620.85996,-2.09158464942397,0.836682688639659,-0.346440833142596
1580423620.89253,-1.89773403524834,-0.0222171358815899,-0.0729991607537954
1580423620.92511,-1.85378805218586,-0.55542839703975,0.58716716258488
1580423620.95768,-1.40309758144503,-0.943617914091707,1.72976272220951
1580423620.99026,-1.02858014801251,-0.957778286411841,1.0471351186389
1580423621.02283,0.146242465857938,-2.51297779812314,1.37087052719921
1580423621.05541,-0.534431982909895,-0.952895399404898,1.00953688868544
1580423621.08798,-0.238040741588463,-0.37085526817731,0.217044327458609
1580423621.12055,-2.01834134431983,0.836194399938964,-0.621347371633478
1580423621.15313,-1.58767071030747,0.202883955138475,0.135500114442664
1580423621.1857,-2.34158846417945,0.130128938735027,0.205325398641946
1580423621.21828,-2.37625696192874,0.201907377737086,0.0695811398489354
1580423621.25085,-2.06912336919203,0.158937972075989,-0.188235294117646
1580423621.28342,-1.51833371480888,0.134035248340581,-0.512458991378653
1580423621.316,-0.88355840390631,0.125246051728084,-0.399176012817579
1580423621.34857,-0.542732890821698,0.329839017318989,-0.42554360265507
1580423621.38115,0.0583504997329669,1.03199816891737,-0.10424963759823
1580423621.41372,-0.232669565880826,-0.0466315709163041,0.930434119172961
1580423621.4463,-0.668711375600823,-0.291752498664836,0.105226214999618
1580423621.47891,0.299565117875943,-0.780041199359122,-0.295658808270391
1580423621.51149,-0.824475471122302,-2.20242618448157,1.29323262378881
1580423621.54406,-1.27565423056382,-0.507087815671015,-0.36060120546273
1580423621.57664,-0.191165026321812,1.9778133821622,-1.04078736552987
1580423621.60921,-2.20975051499199,0.807873655298696,-0.188235294117646
1580423621.64178,-1.56472114137484,0.118410009918364,0.187747005416952
1580423621.67436,-1.98025482566567,0.827893492027162,-0.149660486762798
1580423621.70693,-1.86794842450599,0.191653315022506,-0.0334477759975584
1580423621.73951,-1.585229266804,-0.467048142214084,0.365972381170366
1580423621.77208,-1.58669413290608,-1.04859998474098,1.12574959945067
1580423621.80466,-0.927016098268101,-1.24440375371939,1.23219653620203
1580423621.83723,-0.0788586251621268,-1.64089417868315,1.11305409323262
1580423621.86981,-0.346440833142596,-1.40700389105058,1.24635690852216
1580423621.90238,-0.298588540474556,-0.671641107804989,0.467048142214082
1580423621.93496,-0.740978103303577,0.0168459601739528,0.0876478217746239
1580423621.96753,-2.28494697489891,0.703379873350119,0.118410009918364
1580423622.00011,-1.97195391775387,-0.153078507667658,0.193118181124589
1580423622.03268,-2.24588387884337,-0.048096437018387,0.258548867017623
1580423622.06526,-1.90212863355459,-0.01196307316701,0.0827649347676811
1580423622.09783,-1.50563820859083,0.571541924162663,-0.397711146715496
1580423622.1304,-0.97926298924239,0.776623178454262,-0.553475242236972
1580423622.16298,-0.588143739986267,0.851331349660487,-0.521736476691844
1580423622.19555,-0.178957808804455,0.861585412375067,0.234622720683603
1580423622.22813,-0.338628213931488,-0.493415732051576,0.713145647364005
1580423622.2607,-0.570077058060578,-1.43532463569085,-0.290287632562753
1580423622.29328,0.388433661402303,-1.24196231021591,1.02516212710765
1580423622.32585,-0.785900663767453,-1.14430457007706,0.104737926298924
1580423622.35843,-1.01637293049516,0.440192263675897,-0.0744640268558783
1580423622.391,-0.409918364232853,2.18435950255589,-0.88355840390631
1580423622.42358,-2.17117570763714,0.620859082932785,-0.400152590218967
1580423622.45615,-1.21705958648051,-0.252689402609294,0.0744640268558783
1580423622.48873,-2.16238651102464,1.28297856107423,-0.347905699244679
1580423622.5213,-1.93093766689555,0.520759899290457,0.0715342946517126
1580423622.55388,-1.98757915617609,-0.597909514000152,0.574959945067523
1580423622.58645,-1.51393911650263,-1.7390402075227,1.41725795376516
1580423622.61902,-0.663340199893186,-1.73366903181506,0.845471885252156
1580423622.6516,-0.147707331960021,-1.63356984817273,1.80837720302129
1580423622.68417,-0.686778057526512,-0.360112916762036,0.802990768291753
1580423622.71675,-0.358648050659953,-0.246341649500266,0.239505607690546
1580423622.74932,-2.47782101167315,0.227786678873883,0.182864118410009
1580423622.78195,-1.83669794766156,-0.143312733653772,0.0510261692225527
1580423622.81453,-2.6960860608835,-0.279545281147479,0.156496528572518
1580423622.8471,-2.43582818341344,0.0271000228885327,0.0153810940718699
1580423622.87967,-1.87429617761502,0.321049820706492,-0.499763485160601
1580423622.91225,-1.02858014801251,0.780529488059816,-0.932387273975738
1580423622.94482,-0.518806744487678,0.840100709544519,-0.959243152513924
1580423622.9774,0.0256351567864499,1.16969558251316,0.306889448386357
1580423623.00997,0.0300297550926985,-0.276615548943314,0.57007705806058
1580423623.04255,-0.881116960402839,-1.01393148699168,1.18922713054093
1580423623.07512,-0.143801022354467,-1.30104524299992,-0.836682688639659
1580423623.1077,0.591073472190434,-0.864026855878539,0.740001525902191
1580423623.14027,-3.44365606164645,-0.748790722514686,0.595956359197377
1580423623.17285,-0.77076371404593,-0.12475776302739,-0.0969253070878153
1580423623.20542,-1.04859998474098,2.60038147554742,-0.609140154116121
1580423623.238,-1.76589608606088,0.0656748302433812,-0.159914549477378
1580423623.27057,-1.54128328374151,0.225833524071106,0.00903334096284425
1580423623.30315,-1.94656290531777,0.992446784161135,-0.412848096437019
1580423623.33572,-1.90701152056153,0.262943465323872,0.0832532234683754
1580423623.36829,-1.84890516517891,-0.558358129243915,0.574959945067523
1580423623.40087,-1.64968337529564,-1.1320973525597,1.31422903791867
1580423623.43344,-0.527595941100175,-1.63747615777829,1.03639276722362
1580423623.46602,-0.0520027466239412,-2.26346227206836,1.66042572671092
1580423623.49859,-0.670664530403601,-0.887953002212559,1.09498741130693
1580423623.53117,-0.799084458686199,0.626718547341117,-0.0729991607537954
1580423623.56374,-2.17654688334478,0.737071793698025,-0.0915541313801782
1580423623.59632,-1.82351415274281,0.0046387426565957,0.149172198062104
1580423623.62889,-2.47440299076829,0.0437018387121384,0.2605020218204
1580423623.66147,-2.27859922178988,0.227298390173189,-0.00122072175173571
1580423623.69404,-1.72439154650187,0.260013733119706,-0.349858854047456
1580423623.72662,-1.20485236896315,0.214602883955138,-0.626230258640421
1580423623.75919,-0.643808651865415,0.349858854047454,-0.781994354161899
1580423623.79177,-0.263920042725262,0.538338292515451,-0.791760128175785
1580423623.82434,0.438727397573814,1.39821469443809,0.752208743419548
1580423623.85691,-0.366460669871062,-1.10426489662013,1.66530861371786
1580423623.88949,-0.576424811169604,-0.741954680704966,0.164797436484321
1580423623.92206,0.551522087434197,-0.0158693827725642,0.0397955291065841
1580423623.95464,-2.14773785000381,-1.07496757457847,0.85621423666743
1580423623.98721,-1.11793698023957,-1.50954451819638,-0.124269474326695
1580423624.01979,0.51880674448768,1.78786907759213,-1.20192263675898
1580423624.05236,-3.20537117570764,1.56667429617762,-0.722423132677195
1580423624.08496,-1.14186312657359,-0.725841153582055,0.317631799801632
1580423624.11753,-1.5593499656672,0.631113145647365,-0.310307469291219
1580423624.15011,-1.96609445334554,0.671641107804991,-0.194583047226672
1580423624.18268,-1.91238269626917,0.210696574349583,0.307377737087052
1580423624.21526,-1.94607461661708,-1.04469367513542,1.02613870450904
1580423624.24783,-1.1067063401236,-1.34206149385824,1.09254596780346
1580423624.28041,-0.0417486839093613,-1.85427634088655,0.874280918593119
1580423624.31298,-0.424078736552987,-1.71462577248798,1.28932631418326
1580423624.34556,-0.523201342793927,-0.614999618524452,0.663340199893188
1580423624.37813,-0.980239566643778,0.372808422980086,-0.0715342946517126
1580423624.41071,-2.13943694209201,0.758068207827879,-0.231692988479438
1580423624.44328,-2.23758297093156,-0.0495613031204698,0.0798352025635154
1580423624.47586,-2.26932173647669,-0.0876478217746239,0.231692988479438
1580423624.50843,-2.01052872510872,-0.0280766002899213,0.0822766460669868
1580423624.54101,-1.72878614480812,0.281986724650949,-0.294682230869002
1580423624.57358,-1.12819104295415,0.39380483710994,-0.54859235523003
1580423624.60615,-0.647714961470969,0.57349507896544,-0.635996032654306
1580423624.63873,-0.358648050659953,0.914808880750744,-0.48706797894255
1580423624.6713,0.0593270771343555,0.81177996490425,0.173098344396124
1580423624.70388,0.041260395208667,-1.33229571984436,1.02369726100557
1580423624.73645,-0.424078736552987,-1.14381628137636,0.45191119249256
1580423624.76903,0.288334477759975,-0.0466315709163041,0.0046387426565957
1580423624.8016,-5.1653620202945,-0.908461127641718,1.34645609216449
1580423624.83418,-0.710704203860532,-0.898695353627833,-0.439703974975204
1580423624.86675,-0.312748912794691,1.61257343404288,-0.860608834973679
1580423624.89933,-2.35135423819333,0.961684596017395,-0.270267795834288
1580423624.9319,-1.41969939726864,-0.112062256809338,0.139406424048218
1580423624.96448,-1.91531242847334,0.872816052491036,-0.348882276646068
1580423624.99705,-1.75368886854353,0.240970473792629,0.0627450980392155
1580423625.02963,-1.8074006256199,-0.107179369802395,0.407965209430074
1580423625.0622,-1.74929427023728,-0.870862897688259,0.983169298847944
1580423625.09477,-1.05934233615625,-1.32643625543603,1.32936598764019
1580423625.12735,0.0476081483176927,-1.65065995269703,0.95191882200351
1580423625.15992,-0.49048599984741,-1.30202182040131,1.01881437399863
1580423625.1925,-0.436774242771039,-0.741954680704966,0.494392309452962
1580423625.22507,-0.830823224231327,-0.267826352330816,0.196047913328755
1580423625.25765,-3.24492256046387,0.773693446250096,-0.198977645532921
1580423625.29022,-2.47635614557107,0.101319905394064,0.0891126878767068
1580423625.3228,-2.59403372243839,0.132082093537804,0.117433432516975
1580423625.35537,-2.03982604715038,-0.0529793240253298,-0.00122072175173571
1580423625.388,-1.46169222552834,0.527595941100177,-0.602792401007095
1580423625.42057,-0.813733119707027,0.732188906691082,-0.87330434119173
1580423625.45315,-0.32983901731899,0.91090257114519,-0.92457465476463
1580423625.48572,-0.0549324788281069,0.678477149614711,0.0358892195010299
1580423625.5183,0.195071335927366,-0.293217364766919,0.622323949034868
1580423625.55087,-0.564705882352941,-1.3713588158999,0.152101930266269
1580423625.58344,0.0847180895704582,-0.681406881818875,0.46216525520714
1580423625.61602,0.0729991607537954,-0.171633478294041,-0.475349050125887
1580423625.64859,-2.82206454566262,0.25708400091554,1.25514610513466
1580423625.68117,0.0622568093385212,0.432379644464788,-0.992446784161135
1580423625.71374,-1.09010452429999,1.69997711146716,-1.07301441977569
1580423625.74632,-1.89187457084001,-0.42212558175021,0.342046234836346
1580423625.77889,-1.32448310063325,0.719005111772336,-0.0383306630045013
1580423625.81146,-1.96462958724346,1.05445944914931,-0.215091172655832
1580423625.84404,-1.80642404821851,0.306401159685663,0.149660486762798
1580423625.87661,-1.95730525673304,-0.315190356298162,0.560311284046694
1580423625.90919,-1.92898451209278,-1.71120775158312,1.2092469672694
1580423625.94176,-0.47339589532311,-2.36063172350652,1.21120012207217
1580423625.97433,-0.0573739223315783,-1.65944914930953,1.56520943007553
1580423626.00691,-0.570565346761272,-0.360112916762036,0.903578240634776
1580423626.03948,-0.598397802700847,0.470954451819637,0.0114747844663157
1580423626.07206,-2.42508583199817,0.246341649500266,0.0207522697795071
1580423626.10463,-1.61403830014496,-0.0915541313801782,0.166750591287098
1580423626.13721,-2.36649118791486,-0.048096437018387,0.169192034790569
1580423626.16978,-2.31863889524682,0.0974135957885096,0.172610055695429
1580423626.20235,-1.72927443350881,0.159914549477378,-0.305424582284276
1580423626.23493,-1.23024338139925,0.463630121309222,-0.421637293049516
1580423626.2675,-0.791760128175785,0.543709468223089,-0.424078736552987
1580423626.30008,-0.649179827573052,0.729747463187611,-0.306401159685665
1580423626.33265,-0.184817273212786,0.485114824139771,0.271732661936369
1580423626.36522,0.0373540856031127,-0.601327534905012,1.12037842374304
1580423626.3978,-0.305424582284276,-1.26540016784924,-0.692637521934843
1580423626.43037,0.389898527504386,0.400152590218966,0.749767299916076
1580423626.46295,-0.851331349660487,0.500740062561992,-0.568612191958495
1580423626.49552,-1.63747615777829,-0.314702067597468,0.241947051194018
1580423626.5281,-0.191165026321812,0.90064850843061,-0.911390859845884
1580423626.56067,-1.67849240863661,1.36452277409018,-1.05836575875486
1580423626.59325,-1.67263294422827,-0.114991989013504,0.497810330357822
1580423626.62582,-1.63112840466926,1.2004577706569,-0.115480277714198
1580423626.65839,-1.89480430304418,0.392339971007857,0.0305180437933927
1580423626.69101,-1.77419699397269,-0.474860761425193,0.238529030289158
1580423626.72358,-1.832791638056,-0.80152590218967,0.674570840009157
1580423626.75616,-1.23268482490272,-1.4309300373846,1.22829022659647
1580423626.78873,0.0148928053711757,-1.75124742504006,0.952895399404898
1580423626.82131,-0.209719996948195,-1.08180361638819,1.25807583733883
1580423626.85388,-0.567147325856412,-0.267338063630122,0.51880674448768
1580423626.88646,-0.569588769359884,-0.188235294117646,0.242435339894712
1580423626.91903,-3.97882047760739,0.53931486991684,0.0451667048142212
1580423626.95161,-1.75857175555047,-0.126222629129472,0.164309147783626
1580423626.98418,-2.33914702067598,-0.159914549477378,0.200930800335698
1580423627.01676,-2.23709468223087,-0.168703746089875,0.140383001449607
1580423627.04933,-1.63161669336995,0.517341878385597,-0.426031891355764
1580423627.0819,-1.11110093842985,0.700450141145954,-0.501228351262684
1580423627.11448,-0.74244296940566,0.750255588616771,-0.503669794766155
1580423627.14705,-0.376226443884947,0.760021362630656,-0.169680323491264
1580423627.17963,0.289799343862057,0.673105973907074,0.141359578850995
1580423627.2122,-0.456794079499504,-1.04127565423056,1.44264896620126
1580423627.24478,-0.564217593652247,-0.741954680704966,-0.601327534905012
1580423627.27735,0.330327306019683,-0.81519798580911,0.822522316319525
1580423627.30993,-1.28688487067979,0.723399710078585,-0.134523537041275
1580423627.3425,-0.916273746852827,-0.72535286488136,0.395269703212023
1580423627.37508,0.124269474326695,2.04324406805524,-1.15651178759441
1580423627.40765,-2.57401388570993,1.04078736552987,-0.497810330357824
1580423627.44023,-1.44948500801099,-0.0358892195010299,0.305424582284274
1580423627.4728,-1.70290684367132,0.984145876249332,-0.348393987945373
1580423627.50537,-1.98709086747539,0.519295033188374,-0.137941557946135
1580423627.53795,-1.89333943694209,-0.252689402609294,0.253177691309986
1580423627.57052,-1.95730525673304,-0.759533073929962,0.703379873350119
1580423627.6031,-1.31911192492561,-1.43678950179294,1.29665064469367
1580423627.63567,0.104737926298924,-1.87331960021363,0.871351186388953
1580423627.66825,-0.525642786297398,-1.07496757457847,1.40993362325475
1580423627.70082,-0.47681391622797,-0.620859082932784,0.553475242236974
1580423627.7334,-0.599374380102235,-0.375249866483559,0.51880674448768
1580423627.76597,-3.41142900740063,0.643320363164722,0.173586633096818
1580423627.79855,-1.89724574654765,0.000244144350347142,0.145265888456549
1580423627.83112,-2.42703898680095,-0.0612802319371326,0.0139162279697871
1580423627.8637,-2.10769817654688,-0.305912870984971,0.0197756923781185
1580423627.89627,-1.62917524986648,0.336675059128709,-0.511970702677958
1580423627.92885,-1.03150988021668,0.644785229266805,-0.793224994277868
1580423627.96142,-0.689707789730678,1.14869916838331,-0.88355840390631
1580423627.99405,-0.00219729915312428,1.11549553673609,0.511482413977266
1580423628.02662,0.0778820477607383,-0.278568703746091,0.540779736018923
1580423628.0592,-0.785900663767453,-0.609140154116121,0.589608606088351
1580423628.09177,-0.263920042725262,-0.844983596551462,-0.216067750057221
1580423628.12435,0.683360036621654,-0.46655985351339,-0.161379415579461
1580423628.15692,-4.01739528496223,-2.30203707942321,2.86161593041886
1580423628.1895,-0.566659037155718,-0.297611963073168,-0.690684367132066
1580423628.22207,-0.635507743953612,2.36844434271763,-1.06324864576181
1580423628.25465,-2.22635233081559,0.126222629129472,0.256107423514152
1580423628.28723,-1.21022354467079,0.26733806363012,0.0866712443732354
1580423628.3198,-2.003692683299,1.14625772487983,-0.292240787365531
1580423628.35238,-1.89089799343862,0.220950637064163,0.0324711985961699
1580423628.38495,-1.850370031281,-0.255619134813459,0.171145189593346
1580423628.41752,-1.95925841153582,-1.11842526894026,0.705821316853591
1580423628.4501,-1.21852445258259,-1.62575722896162,1.38600747692073
1580423628.48268,0.0725108720531011,-1.89089799343862,1.07838559548333
1580423628.51525,-0.544197756923781,-0.927016098268101,1.32545967803464
1580423628.54783,-0.549080643930724,-0.410894941634242,0.50513466086824
1580423628.5804,-0.754650186923019,-0.344487678339819,0.345464255741206
1580423628.61298,-2.93046463721675,1.03736934462501,-0.195071335927366
1580423628.64555,-2.33817044327459,-0.144777599755855,0.102296482795452
1580423628.67813,-2.45487144274052,0.000244144350347142,0.150637064164187
1580423628.7107,-2.10037384603647,0.0646982528419926,-0.0183108262760356
1580423628.74328,-1.76394293125811,0.507576104371712,-0.446540016784924
1580423628.77585,-1.02711528191043,0.656015869382774,-0.764415960936905
1580423628.80843,-0.447516594186313,0.662363622491799,-0.729747463187609
1580423628.841,0.0520027466239412,0.858655680170902,0.369390402075226
1580423628.87358,-0.150637064164187,-0.0695811398489354,0.544197756923783
1580423628.90615,-0.741954680704966,-0.891859311818113,0.41773098344396
1580423628.93873,0.0441901274128327,-0.97926298924239,0.391851682307163
1580423628.9713,0.151125352864881,-0.486091401541161,-0.0588387884336612
1580423629.00388,-2.63260852979324,-1.33620202944991,1.95437552452888
1580423629.03645,-0.195071335927366,0.0236820019836728,-1.02174410620279
1580423629.06903,-1.1150072480354,2.4734264133669,-1.05397116044862
1580423629.1016,-1.80935378042268,-0.119386587319752,0.219974059662775
1580423629.13418,-1.22877851529717,0.361577782864117,-0.00952162966353853
1580423629.16675,-1.92556649118792,0.706797894254979,-0.334721904325933
1580423629.19933,-1.78347447928588,0.216556038757915,-0.156984817273212
1580423629.2319,-1.88699168383307,-0.315190356298162,0.195071335927366
1580423629.26448,-1.92068360418097,-1.18287937743191,0.892347600518807
1580423629.29709,-1.35280384527352,-1.31422903791867,1.55446707866026
1580423629.32966,0.287357900358586,-1.68337529564355,1.08180361638819
1580423629.36224,-0.649179827573052,-0.591073472190432,1.21364156557565
1580423629.39481,-0.408941786831464,-0.568123903257801,0.762462806134128
1580423629.42739,-0.842053864347296,-0.382085908293279,0.248294804303043
1580423629.45996,-2.44657053482872,1.23512626840619,-0.237064164187075
1580423629.49254,-2.38651102464332,-0.0178225375753414,0.00219729915312428
1580423629.52511,-2.50174715800717,-0.108155947203784,0.156496528572518
1580423629.55769,-2.05740444037537,0.0690928511482412,0.00561532005798426
1580423629.59026,-1.59841306172274,0.380621042191194,-0.527595941100175
1580423629.62284,-0.979751277943084,0.36646066987106,-0.573006790264744
1580423629.65541,-0.49732204165713,0.24682993820096,-0.563729304951552
1580423629.68799,-0.297611963073168,0.402105745021743,-0.136964980544747
1580423629.72056,0.500740062561992,0.955825131609064,0.0261234454871442
1580423629.75314,-0.027588311589227,-0.691660944533455,0.541268024719617
1580423629.78571,-0.611581597619592,-0.650644693675135,0.27417410543984
1580423629.81829,0.321049820706492,-0.00512703135728998,-0.777111467154956
1580423629.85086,-2.09011978332189,-0.101319905394064,1.93337911039902
1580423629.88344,-0.0124513618677042,0.189700160219729,-1.3283894102388
1580423629.91602,-0.642832074464026,1.98904402227817,-1.06617837796597
1580423629.94859,-1.91433585107195,-0.175539787899595,0.377691309987028
1580423629.98117,-1.19801632715343,0.282475013351643,-0.0373540856031127
1580423630.01374,-2.05300984206912,1.27321278706035,-0.179446097505149
1580423630.04632,-1.89871061264973,0.430426489662011,0.139406424048218
1580423630.07889,-1.7815213244831,-0.539803158617532,0.5256427862974
1580423630.11147,-1.70241855497063,-1.37282368200198,0.978774700541695
1580423630.14404,-1.10475318532082,-1.40798046845197,1.21559472037842
1580423630.17662,-0.0153810940718699,-1.53933012893873,1.15651178759441
1580423630.20919,-0.496345464255741,-1.07789730678263,1.34499122606241
1580423630.24177,-0.403082322423133,-0.395757991912719,0.488044556343937
1580423630.27434,-1.43044174868391,0.0505378805218584,0.197512779430838
1580423630.30692,-1.9016403448539,0.88697642481117,-0.125734340428778
1580423630.33949,-2.36600289921416,-0.182864118410009,-0.0925307087815668
1580423630.37207,-2.40750743877317,-0.00268558785381856,0.140383001449607
1580423630.40464,-1.84939345387961,-0.00903334096284425,-0.214114595254443
1580423630.43722,-1.43434805828946,0.53589684901198,-0.716563668268863
1580423630.46979,-0.787365529869536,0.620859082932785,-1.03395132372015
1580423630.50237,-0.379156176089113,0.735606927595942,-0.786388952468148
1580423630.53494,-0.0856946669718468,0.932875562676433,0.791760128175785
1580423630.56752,-0.386480506599527,-0.406988632028687,1.38161287861448
1580423630.60016,-0.627206836041809,-0.525642786297398,0.103761348897535
1580423630.63273,0.198977645532921,-1.1067063401236,0.343511100938429
1580423630.66531,0.252201113908598,-0.491950865949493,-0.554940108339055
1580423630.69788,-3.13456931410697,-0.607675288014038,1.34010833905547
1580423630.73046,-0.0495613031204698,1.0212558175021,-1.34303807125963
1580423630.76303,-2.10281528953994,1.25270466163119,-1.01637293049516
1580423630.79561,-1.46022735942626,-0.302983138780805,0.370366979476614
1580423630.82818,-1.37282368200198,0.742442969405662,-0.212649729152361
1580423630.86076,-1.94900434882124,0.923109788662547,-0.243900205996795
1580423630.89333,-1.90505836575876,-0.0349126420996413,0.160402838178072
1580423630.92591,-1.57985809109636,-0.558358129243915,0.33569848172732
1580423630.95848,-1.55690852216373,-0.956313420309758,0.878187228198673
1580423630.99106,-1.33620202944991,-0.875257495994507,1.1921568627451
1580423631.02363,-0.147219043259327,-1.58327611200122,0.990493629358358
1580423631.05621,-0.0798352025635154,-1.48610666056306,1.20387579156176
1580423631.08878,-0.430426489662013,-0.759533073929962,0.679942015716794
1580423631.12136,-1.42409399557488,0.190676737621118,0.225345235370412
1580423631.15394,-1.66286717021439,0.607186999313345,-0.308842603189136
1580423631.18651,-2.53055619134813,-0.410406652933547,0.198489356832226
1580423631.21909,-2.64530403601129,-0.258060578316931,0.27417410543984
1580423631.25166,-2.22684061951629,0.192629892423895,-0.137453269245441
1580423631.28424,-1.54323643854429,0.40064087891966,-0.474860761425193
1580423631.31681,-0.971938658731975,0.528084229800871,-0.614511329823758
1580423631.34939,-0.51099412527657,0.701915007248036,-0.739513237201495
1580423631.38196,-0.198977645532921,1.00318913557641,-0.274174105439842
1580423631.41454,0.482185091935605,0.184817273212786,0.469977874418248
1580423631.44711,-0.310307469291219,-1.1833676661326,0.528572518501566
1580423631.47969,-0.390386816205082,-0.936781872281987,0.474372472724497
1580423631.51226,0.00317387655451284,-0.577401388570992,-0.260013733119708
1580423631.54484,-2.20926222629129,0.213138017853055,0.917250324254216
1580423631.57741,-0.024170290684367,0.201419089036392,-1.24684519722286
1580423631.60999,-1.43874265659571,2.66776531624323,-1.01832608529793
1580423631.64256,-1.96267643244068,-0.350835431448845,0.263431754024566
1580423631.67514,-1.32643625543603,0.47583733882658,-0.121828030823224
1580423631.70771,-2.07449454489967,0.975356679636835,-0.268802929732205
1580423631.74029,-1.96462958724346,0.0515144579232469,0.158449683375295
1580423631.77286,-1.83962767986572,-0.550545510032807,0.50171663996338
1580423631.80544,-1.53298237582971,-1.4138399328603,1.15895323109789
1580423631.83801,-0.530525673304341,-1.70876630807965,1.0383459220264
1580423631.87059,-0.048096437018387,-1.51442740520333,1.56618600747692
1580423631.90329,-0.561776150148775,-0.782482642862593,1.08473334859235
1580423631.93586,-0.44263370717937,-0.140383001449607,0.195071335927366
1580423631.96844,-2.1828946364538,0.362554360265506,0.25024795910582
1580423632.00102,-1.74196993972686,0.351812008850231,0.0915541313801782
1580423632.03359,-2.45828946364538,-0.103761348897535,0.118898298619058
1580423632.06617,-2.33524071107042,-0.203860532539863,0.122804608224612
1580423632.09874,-1.96414129854276,0.105226214999618,-0.260990310521096
1580423632.13132,-1.49684901197833,0.391363393606468,-0.591561760891127
1580423632.16389,-0.839612420843824,0.682871747920959,-0.862561989776456
1580423632.19647,-0.315190356298162,1.03590447852293,-1.04322880903334
1580423632.22904,0.364995803768977,1.37770656900893,0.070557717250324
1580423632.26162,-0.288822766460671,-0.877698939497979,0.844495307850767
1580423632.2942,-0.948989089799344,-1.28297856107424,0.164309147783626
1580423632.32677,-0.060303654535744,-1.37917143511101,1.46462195773251
1580423632.35935,0.632089723048754,0.960219729915313,-1.26393530174716
1580423632.39192,-1.6360112916762,-0.884534981307699,1.17116044861524
1580423632.4245,-0.220462348363469,0.157473105973907,-1.02320897230488
1580423632.45707,-0.968520637827115,1.67653925383383,-0.911879148546578
1580423632.48965,-1.71755550469215,0.231204699778743,0.171633478294041
1580423632.52223,-1.54763103685054,0.544686045624477,-0.00317387655451284
1580423632.5548,-2.02468909742885,0.634042877851531,-0.0744640268558783
1580423632.58738,-1.85964751659419,-0.0881361104753182,0.125734340428778
1580423632.61995,-1.86550698100252,-0.621347371633478,0.604745555809874
1580423632.65253,-1.48122377355612,-1.12135500114443,1.28346684977493
1580423632.6851,-0.380132753490502,-1.69411764705882,0.936781872281987
1580423632.71768,-0.197024490730143,-1.79665827420462,1.60769054703594
1580423632.75025,-0.672617685206378,-0.870374608987564,0.844007019150073
1580423632.78283,-0.478767071030747,0.00952162966353853,0.254642557412069
1580423632.81541,-2.82206454566262,0.0642099641412983,-0.0549324788281069
1580423632.84798,-1.76296635385672,0.285893034256503,0.121828030823224
1580423632.88056,-2.51981383993286,-0.0168459601739528,0.162355992980849
1580423632.91313,-2.14139009689479,-0.048096437018387,0.26392004272526
1580423632.94571,-1.66433203631647,0.340581368734263,-0.373296711680782
1580423632.97828,-1.16871900511177,0.724864576180668,-0.681895170519569
1580423633.01086,-0.613046463721675,0.882093537804227,-0.957289997711147
1580423633.04344,-0.0852063782711525,0.95533684290837,-0.512947280079347
1580423633.07601,0.283939879453726,0.537850003814757,0.294193942168306
1580423633.10859,-0.851819638361182,-1.03102159151598,1.38991378652628
1580423633.14116,-0.322514686808576,-1.44362554360266,-0.343022812237736
1580423633.17374,0.640390630960557,-0.471442740520333,0.30151827267872
1580423633.20633,-4.57795071335927,-1.71902037079423,1.04371709773404
1580423633.2389,-0.621347371633478,-0.879652094300756,-0.138429846646829
1580423633.27148,-0.688242923628595,3.03935301747158,-0.933852140077821
1580423633.30406,-1.80349431601434,0.232669565880826,0.027588311589227
1580423633.33663,-1.37282368200198,0.151125352864881,0.157473105973907
1580423633.36921,-2.03103685053788,1.07936217288472,-0.534431982909895
1580423633.40178,-1.84646372167544,0.101319905394064,-0.285893034256505
1580423633.43436,-1.95535210193027,-0.23999389639124,0.260990310521095
1580423633.46693,-2.21902800030518,-0.781506065461205,1.16188296330205
1580423633.49951,-1.36940566109712,-1.12184328984512,1.58962386511025
1580423633.53208,0.300541695277332,-2.3196154726482,1.2517280842298
1580423633.56466,-0.781994354161899,-1.51540398260471,1.17409018081941
1580423633.59724,-0.381597619592585,-0.753673609521631,0.50513466086824
1580423633.62981,-0.594003204394598,-0.270756084534982,-0.107179369802395
1580423633.66239,-3.78204013122759,1.26637674525063,-0.139406424048218
1580423633.69496,-1.98611429007401,0.166262302586404,0.179934386205844
1580423633.72754,-2.22244602121004,0.0666514076447697,0.119386587319752
1580423633.76011,-1.91140611886778,-0.322514686808576,0.192141603723201
1580423633.79269,-1.83816281376364,0.186770428015564,-0.388921950102999
1580423633.82527,-1.05787747005417,0.235599298084992,-0.505134660868238
1580423633.85784,-0.621347371633478,0.230716411078049,-0.409430075532159
1580423633.89042,-0.305912870984971,0.703868162050814,-0.041260395208667
1580423633.92299,-0.0329594872968642,0.911390859845884,0.203860532539863
1580423633.95557,-0.540779736018921,0.0207522697795071,0.156984817273212
1580423633.98814,-0.318608377203022,-0.812268253604945,-0.219485770962081
1580423634.02072,0.654551003280691,-0.670664530403601,0.0817883573662925
1580423634.05329,-6.50180819409476,-4.8489509422446,3.25761806668192
1580423634.08587,-0.598886091401541,-0.756115053025102,-0.529549095902953
1580423634.11845,0.101808194094758,2.54764629587244,-1.22487220569161
1580423634.15102,-2.7297779812314,0.815686274509805,-0.275150682841231
1580423634.1836,-1.17213702601663,-0.120851453421835,0.181887541008621
1580423634.21617,-1.9016403448539,0.781994354161899,-0.342046234836348
1580423634.24875,-1.83816281376364,0.147219043259327,-0.149172198062104
1580423634.28132,-1.75222400244144,-0.048096437018387,0.0661631189440754
1580423634.3139,-1.74685282673381,-0.609628442816815,0.478767071030745
1580423634.34647,-1.81814297703517,-0.890882734416724,0.979751277943084
1580423634.37905,-0.598397802700847,-1.20338750286107,1.23317311360342
1580423634.41163,-0.36401922636759,-1.64577706569009,1.51931029221027
1580423634.4442,-0.599862668802929,-1.22340733958953,1.22096589608606
1580423634.47678,-0.657969024185549,-0.471442740520333,0.438727397573814
1580423634.50937,-2.25613794155795,0.332768749523154,-0.279545281147479
1580423634.54194,-1.99783321889067,-0.0329594872968642,-0.10424963759823
1580423634.57452,-2.5417868314641,-0.0485847257190812,0.149172198062104
1580423634.6071,-2.39969481956207,0.366948958571754,0.0100099183642328
1580423634.63967,-1.97146562905318,0.435309376668954,-0.390386816205082
1580423634.67225,-1.30153353170062,0.566170748455026,-0.768322270542459
1580423634.70482,-0.597421225299458,0.875745784695201,-1.31618219272145
1580423634.7374,0.154055085069047,0.912367437247273,-1.29030289158465
1580423634.76997,0.37329671168078,1.49001297016861,0.868421454184787
1580423634.80255,-1.06569008926528,-0.845471885252156,1.30641641870756
1580423634.83512,-0.33667505912871,-1.53981841763943,0.0900892652780954
1580423634.8677,0.677012283512628,-0.801037613488976,0.248783093003738
1580423634.90028,-1.11891355764095,1.63112840466926,0.723399710078585
1580423634.93285,-1.19850461585412,-0.794201571679256,0.50171663996338
1580423634.96543,-0.147707331960021,1.33229571984436,-0.729259174486915
1580423634.998,-2.59891660944533,1.4651102464332,-0.518318455786984
1580423635.03058,-1.50466163118944,-0.213138017853055,0.177981231403066
1580423635.06315,-1.78298619058518,0.950942244602121,-0.347417410543985
1580423635.09573,-1.96853589684901,0.429938200961317,-0.0764171816586554
1580423635.1283,-2.00564583810178,-0.328862439917602,0.204837109941252
1580423635.16088,-1.77175555046922,-1.38405432211795,1.05885404745556
1580423635.19346,-1.21705958648051,-1.53884184023804,1.52614633401999
1580423635.22603,0.0236820019836728,-1.58327611200122,1.16139467460136
1580423635.25861,-0.513435568780041,-0.95875486381323,1.33766689555199
1580423635.29118,-0.339604791332876,-0.220950637064163,0.157961394674601
1580423635.32376,-0.598397802700847,-0.0334477759975584,0.0798352025635154
1580423635.35633,-3.73614099336232,0.411871519035628,0.196047913328755
1580423635.38891,-2.02615396353094,0.167727168688486,0.155519951171129
1580423635.42149,-2.34793621728847,-0.143801022354467,-0.0148928053711757
1580423635.45406,-1.97976653696498,-0.316655222400245,0.0490730144197755
1580423635.48664,-1.68386358434424,0.408941786831463,-0.394293125810636
1580423635.51921,-1.15846494239719,0.65210955977722,-0.690196078431372
1580423635.55179,-0.722423132677195,0.601327534905014,-0.647226672770275
1580423635.58436,-0.0500495918211641,0.692637521934845,0.314702067597466
1580423635.61694,0.0939955748836496,-0.307866025787748,0.595468070496683
1580423635.64951,-0.592538338292515,-0.743907835507743,0.468024719615471
1580423635.68209,-0.559334706645304,-1.26637674525063,-0.232669565880826
1580423635.71467,0.810315098802167,-0.449958037689784,0.268802929732203
1580423635.74724,-4.63947508964675,-1.86111238269627,0.536873426413369
1580423635.77982,-0.630624856946669,-0.877698939497979,-0.37085526817731
1580423635.81253,-0.664316777294575,2.0549629968719,-0.676523994811932
1580423635.84511,-1.92361333638514,0.531502250705731,-0.0666514076447697
1580423635.87768,-1.53249408712901,-0.0227054245822842,0.167727168688486
1580423635.91026,-1.80251773861296,0.643808651865417,-0.280521858548868
1580423635.94283,-1.82204928664073,0.421637293049514,0.143312733653772
1580423635.97541,-1.88259708552682,-0.279545281147479,0.534431982909897
1580423636.00798,-1.60378423743038,-1.29909208819715,1.11110093842985
1580423636.04056,-1.02858014801251,-1.42848859388113,0.967544060425727
1580423636.07313,0.00415045395590141,-1.60280766002899,1.10572976272221
1580423636.10571,-0.443610284580759,-1.04567025253681,1.07643244068055
1580423636.13829,-0.316655222400245,-0.368902113374533,0.288334477759975
1580423636.17086,-0.870862897688259,-0.0764171816586554,0.219974059662775
1580423636.20344,-2.55643549248493,0.573006790264746,0.00659189745937283
1580423636.23601,-2.27518120088502,-0.177492942702372,0.101319905394064
1580423636.26859,-2.45096513313497,-0.145265888456549,0.0661631189440754
1580423636.30116,-1.84548714427405,-0.131593804837109,-0.10424963759823
1580423636.33374,-1.47585259784848,0.531990539406426,-0.577889677271687
1580423636.36631,-0.943129625391013,0.840588998245213,-0.828381780727856
1580423636.39889,-0.527595941100175,0.812268253604945,-0.546150911726558
1580423636.43147,-0.103761348897535,0.720469977874419,0.420172426947431
1580423636.46404,-0.334721904325933,-0.403570611123827,1.19508659494926
1580423636.49662,-0.655527580682078,-0.42554360265507,0.502204928664074
1580423636.52919,0.0271000228885327,-1.73611047531853,-0.629159990844586
1580423636.56177,0.981216144045167,-0.23657587548638,0.320561532005797
1580423636.59434,-3.86114290074006,-0.199465934233615,1.81081864652476
1580423636.62692,-0.179446097505149,-0.31958495460441,-0.893324177920196
1580423636.6595,-1.24440375371939,2.45438315403982,-0.974868390936141
1580423636.69207,-1.9099412527657,-0.286381322957199,0.0485847257190812
1580423636.72465,-1.5593499656672,0.3801327534905,-0.0500495918211641
1580423636.75722,-2.09842069123369,1.03346303501946,-0.408941786831464
1580423636.7898,-1.95339894712749,0.0842298008697639,0.027588311589227
1580423636.82237,-1.95681696803235,-0.409430075532159,0.503669794766157
1580423636.85495,-1.77859159227894,-1.23317311360342,1.3117875944152
1580423636.88752,-0.579354543373769,-1.6023193713283,1.17994964522774
1580423636.9201,0.0432135500114441,-1.59548332951858,1.43532463569085
1580423636.95268,-0.799084458686199,-0.730235751888303,0.944594491493095
1580423636.98525,-0.365972381170367,-0.477790493629358,0.259525444419012
1580423637.01783,-0.980727855344472,-0.219485770962081,0.070557717250324
1580423637.0504,-2.60917067215991,0.728770885786222,-0.117433432516975
1580423637.08298,-2.57694361791409,0.0710460059510183,0.159914549477378
1580423637.11563,-2.24686045624475,0.0568856336308841,0.264408331425955
1580423637.14821,-2.04568551155871,0.0915541313801782,-0.0485847257190812
1580423637.18078,-1.61794460975051,0.391851682307163,-0.475349050125887
1580423637.21336,-0.948989089799344,0.436285954070343,-0.6877546349279
1580423637.24593,-0.395757991912719,0.623300526436257,-0.695567254139009
1580423637.27851,0.489509422446019,1.7136491950866,0.33569848172732
1580423637.31108,-0.364995803768979,-0.304448004882888,0.876234073395896
1580423637.34366,-1.15260547798886,-0.695078965438315,0.393316548409246
1580423637.37624,0.382085908293277,-1.37087052719921,0.392828259708551
1580423637.40881,-0.631113145647364,-0.0539559014267184,-0.0114747844663157
1580423637.44139,-1.00221255817502,-0.446540016784924,0.188723582818341
1580423637.47396,0.285893034256503,0.738048371099413,-1.10377660791943
1580423637.50654,-2.80155642023346,1.90603494316014,-1.0642252231632
1580423637.53911,-1.59401846341649,-0.208743419546806,0.28101014724956
1580423637.57169,-1.65261310749981,0.60425726710918,-0.331792172121768
1580423637.60426,-1.97537193865873,0.655039291981385,-0.274174105439842
1580423637.63684,-2.11209277485313,-0.120851453421835,0.324956130312046
1580423637.66942,-2.05642786297398,-0.552986953536278,1.06520180056458
1580423637.70199,-0.785900663767453,-1.58034637979705,1.45192645151446
1580423637.73457,-0.314702067597468,-1.71950865949493,1.31276417181659
1580423637.76714,-0.625253681239032,-1.28102540627146,1.20827038986801
1580423637.79972,-0.367925535973145,-0.513923857480735,0.718516823071642
1580423637.83229,-0.635996032654306,0.129152361333638,0.173586633096818
1580423637.86487,-3.11943236438544,0.977798123140307,-0.0954604409857325
1580423637.89744,-2.09256122682536,0.00659189745937283,-0.0300297550926985
1580423637.93002,-2.28104066529336,-0.0920424200808725,0.048096437018387
1580423637.9626,-2.25369649805448,-0.226321812771801,0.162355992980849
1580423637.99517,-1.91189440756848,0.231204699778743,-0.332280460822462
1580423638.02775,-1.25807583733883,0.479743648432134,-0.626718547341115
1580423638.06032,-0.673105973907072,0.61792935072862,-0.597909514000152
1580423638.0929,-0.304936293583582,0.742442969405662,-0.321049820706493
1580423638.12547,0.284916456855115,1.06031891355764,0.120851453421835
1580423638.15805,-0.216067750057221,-0.94166475928893,1.31911192492561
1580423638.19063,-0.344487678339819,-0.662363622491798,0.156008239871824
1580423638.2232,0.334233615625237,0.192629892423895,-0.523689631494621
1580423638.25578,-2.54764629587243,-2.63700312809949,1.64431219958801
1580423638.28835,-1.14283970397497,-1.02662699320974,-0.245365072098878
1580423638.32093,-0.0314946211947813,1.50710307469291,-1.243427176318
1580423638.3535,-2.86894026092927,1.18580910963607,-0.508064393072404
1580423638.38608,-1.2522163729305,-0.281010147249562,0.316655222400243
1580423638.41879,-1.75857175555047,1.02858014801251,-0.312260624093996
1580423638.45137,-1.81667811093309,0.402594033722437,-0.284916456855116
1580423638.48394,-1.90261692225528,-0.153078507667658,0.186282139314869
1580423638.51652,-1.95779354543374,-0.573495078965438,0.820080872816053
1580423638.54909,-1.37526512550546,-1.00856031128405,1.5080796520943
1580423638.58167,0.0725108720531011,-1.91580071717403,1.11012436102846
1580423638.61425,-0.607675288014038,-1.46071564812696,1.39528496223392
1580423638.64682,-0.427008468757153,-0.789806973373008,0.853772793163959
1580423638.6794,-0.45972381170367,0.0681162737468526,0.136476691844052
1580423638.71197,-3.01347371633478,0.870374608987564,-0.127199206530861
1580423638.74455,-1.9953917753872,0.278568703746089,0.0271000228885327
1580423638.77712,-2.34891279468986,0.0109864957656214,0.158449683375295
1580423638.8097,-2.09060807202258,-0.288334477759976,0.177492942702372
1580423638.84227,-1.74636453803311,0.180422674906538,-0.342046234836348
1580423638.87485,-1.22096589608606,0.286869611657892,-0.543221179522392
1580423638.90743,-0.687266346227206,0.40747692072938,-0.627695124742504
1580423638.94,-0.429449912260624,0.695078965438316,-0.567635614557107
1580423638.97258,0.176028076600289,1.81472495613031,0.122316319523918
1580423639.00515,-0.164309147783626,-0.867933165484093,1.16383611810483
1580423639.03773,-0.600350957503624,-0.624277103837644,0.0861829556725411
1580423639.0703,0.352300297550926,-0.399176012817579,-0.148195620660715
1580423639.10288,-1.06910811017014,-2.09597924773022,0.892347600518807
1580423639.13546,-1.17067215991455,-0.235111009384298,-0.211184863050278
1580423639.16803,-0.659433890287632,2.09109636072328,-0.918715190356298
1580423639.20061,-1.96316472114137,0.834729533836882,-0.351323720149539
1580423639.23318,-1.58571755550469,0.125246051728084,0.189700160219729
1580423639.26576,-1.83572137026017,0.796643015182728,-0.326909285114825
1580423639.29833,-1.90359349965667,0.515877012283514,-0.241458762493323
1580423639.33091,-1.9182421606775,-0.297611963073168,0.222903791866941
1580423639.36348,-1.8757610437171,-0.915785458152133,0.752208743419548
1580423639.39606,-1.52907606622415,-1.28053711757076,1.44899671931029
1580423639.42864,0.0563973449301898,-1.89578088044556,1.06666666666667
1580423639.46121,-0.49048599984741,-1.35817502098116,1.40163271534295
1580423639.49379,-0.335698481727322,-0.796154726482033,0.562752727550166
1580423639.52636,-0.605722133211261,-0.257572289616236,0.335210193026626
1580423639.55894,-3.97637903410391,1.49196612497139,-0.135988403143358
1580423639.59151,-1.84548714427405,-0.156496528572518,-0.0305180437933927
1580423639.62409,-2.28836499580377,-0.176516365300984,-0.0842298008697639
1580423639.65666,-1.95681696803235,-0.325444419012742,0.070557717250324
1580423639.68924,-1.49098954757,0.677500572213322,-0.669687953002212
1580423639.72192,-0.929457541771573,0.723887998779279,-0.864026855878539
1580423639.7545,-0.545662623025864,0.983169298847944,-0.731212329289692
1580423639.78708,-0.163820859082932,0.970962081330587,0.550057221332114
1580423639.81965,-0.362066071564813,-0.559822995345998,1.11256580453193
1580423639.85223,-0.841565575646602,-0.730235751888303,0.0725108720531011
1580423639.8848,0.149172198062104,-1.25709925993744,0.43482108796826
1580423639.91738,0.672617685206379,0.00366216525520713,-0.953383688105593
1580423639.94995,-3.58721293965057,-1.09498741130693,2.02517738612955
1580423639.98253,-0.399664301518273,0.682871747920959,-1.31862363622492
1580423640.0151,-0.840100709544519,1.19606317235065,-0.859143968871596
1580423640.04768,-2.17752346074617,0.10083161669337,0.394781414511328
1580423640.08026,-1.47682917524987,0.676035706111239,-0.034424353398947
1580423640.11283,-2.1662928206302,0.935317006179904,-0.243900205996795
1580423640.14541,-1.91482413977264,0.0407721065079727,0.0505378805218584
1580423640.17798,-1.92166018158236,-0.385992217898833,0.305912870984969
1580423640.21056,-1.85671778439002,-1.18092622262913,1.20778210116731
1580423640.24313,-0.619882505531395,-1.67458609903105,1.43385976958877
1580423640.27571,0.0407721065079727,-1.56862745098039,1.36452277409018
1580423640.30828,-0.695078965438315,-0.565194171053635,1.0124666208896
1580423640.34086,-0.273685816739148,-0.427008468757153,0.383062485694666
1580423640.37344,-0.811291676203556,-0.212161440451666,0.266361486228732
1580423640.40601,-2.96659800106813,0.761486228732739,-0.126710917830167
1580423640.43859,-2.39822995345998,0.0886243991760125,0.264408331425955
1580423640.47116,-2.40408941786831,0.048096437018387,0.146730754558632
1580423640.50374,-2.05935759517815,-0.0520027466239412,-0.0183108262760356
1580423640.53631,-1.58327611200122,0.442145418478674,-0.522713054093233
1580423640.56889,-0.935805294880598,0.509529259174489,-0.721446555275806
1580423640.60146,-0.530037384603647,0.569100480659191,-0.621347371633478
1580423640.63404,-0.282475013351645,0.56665903715572,0.0402838178072784
1580423640.66662,0.00122072175173571,-0.184328984512092,0.745860990310522
1580423640.69919,-0.240482185091935,-1.15992980849927,0.190188448920424
1580423640.73177,0.0759288929579611,-0.0764171816586554,0.533455405508509
1580423640.76434,-0.269779507133594,0.182864118410009,-0.768810559243153
1580423640.79692,-2.96757457846952,-0.480720225833524,0.919691767757687
1580423640.82949,-0.403082322423133,0.245365072098878,-0.995376516365301
1580423640.86207,-1.44313725490196,1.82009613183795,-1.3547570000763
1580423640.89464,-1.86404211490044,0.122316319523918,0.0695811398489354
1580423640.92722,-1.53933012893873,0.600350957503625,-0.0349126420996413
1580423640.9598,-2.06570534828717,0.84254215304799,-0.106202792401007
1580423640.99237,-1.91482413977264,0.0354009308003356,0.127199206530861
1580423641.02512,-1.98171969176776,-0.667734798199435,0.544686045624477
1580423641.05769,-1.37672999160754,-1.60036621652552,1.34254978255894
1580423641.09027,-0.284916456855116,-1.56325627527275,0.775158312352179
1580423641.12284,-0.461188677805753,-1.10524147402151,1.23170824750133
1580423641.15542,-0.489997711146716,-1.05738918135348,0.964126039520867
1580423641.18799,-0.292729076066225,-0.766857404440376,0.251712825207903
1580423641.22057,-1.87331960021363,-0.343999389639125,-0.0437018387121384
1580423641.25314,-1.59548332951858,0.246341649500266,0.0969253070878153
1580423641.28572,-2.62333104448005,0.331792172121766,0.255619134813458
1580423641.3183,-2.44705882352941,0.041260395208667,0.394781414511328
1580423641.35087,-1.88552681773098,0.28101014724956,-0.314213778896773
1580423641.38345,-1.3283894102388,0.569588769359886,-0.56568245975433
1580423641.41602,-0.786388952468148,0.692149233234151,-0.85963225757229
1580423641.4486,-0.245365072098878,0.798596169985505,-0.705821316853589
1580423641.48117,0.269779507133592,0.671152819104297,0.589120317387657
1580423641.51375,-0.426520180056459,-0.872816052491036,1.22682536049439
1580423641.54632,-0.176516365300984,-0.715587090867475,-0.532967116807813
1580423641.5789,0.496345464255739,0.0847180895704582,0.0617685206378269
1580423641.61148,-3.22050812542916,-3.56523994811933,1.78298619058518
1580423641.64405,-0.82545204852369,-0.375738155184253,-0.703379873350118
1580423641.67663,-0.49732204165713,2.17312886243992,-0.757091630426491
1580423641.7092,-2.38944075684749,0.541756313420311,0.0915541313801782
1580423641.74178,-1.27907225146868,0.0720225833524069,0.178469520103761
1580423641.77435,-2.23074692912184,1.3117875944152,-0.245365072098878
1580423641.80693,-1.99050888838025,0.176516365300984,0.0793469138628211
1580423641.83951,-1.83132677195392,-0.445563439383536,0.302006561379415
1580423641.87208,-1.62673380636301,-1.28688487067979,0.876234073395896
1580423641.90466,-1.02467383840696,-1.50124361028458,0.830334935530633
1580423641.93723,0.155031662470435,-1.74050507362478,1.18043793392843
1580423641.96981,-0.481208514534218,-0.839612420843824,1.15553521019303
1580423642.00238,-0.301029983978028,-0.341557946135653,0.26733806363012
1580423642.03496,-0.848889906157016,0.0207522697795071,0.436285954070343
1580423642.06753,-3.25322346837568,0.477790493629357,0.183840695811398
1580423642.10011,-1.79372854200046,-0.111573968108644,0.184328984512092
1580423642.13269,-2.45145342183566,0.0891126878767068,0.0871595330739297
1580423642.16526,-2.06521705958648,-0.323979552910659,0.110109102006561
1580423642.19784,-1.70730144197757,0.257572289616235,-0.327397573815519
1580423642.23041,-1.19703974975204,0.574959945067523,-0.600350957503624
1580423642.26299,-0.697032120241092,0.728282597085528,-0.655527580682078
1580423642.29556,-0.304936293583582,0.619394216830703,-0.321049820706493
1580423642.32825,0.110109102006561,0.697032120241094,0.528572518501566
1580423642.36082,-0.334721904325933,-0.763439383535516,1.01588464179446
1580423642.3934,-0.567147325856412,-0.587655451285572,-0.438727397573816
1580423642.42597,0.51197070267796,-0.230228122377355,0.262455176623178
1580423642.45855,-1.3713588158999,-2.37528038452735,1.04322880903334
1580423642.49113,-1.03639276722362,-0.503669794766155,-0.380132753490502
1580423642.5237,-0.650156404974441,2.19412527656977,-0.794201571679256
1580423642.55628,-2.02371252002747,0.738536659800108,-0.152590218966964
1580423642.58886,-1.6364995803769,0.128175783932249,0.25024795910582
1580423642.62143,-1.86062409399558,0.866956588082704,-0.240482185091935
1580423642.65401,-1.92556649118792,0.392339971007857,-0.0803234912642097
1580423642.68658,-1.78542763408866,-0.328374151216908,0.348882276646066
1580423642.71916,-1.76101319905394,-0.963149462119478,0.758556496528573
1580423642.75174,-1.26979476615549,-1.25612268253605,1.13063248645762
1580423642.78431,-0.0959487296864268,-1.5339589532311,0.934340428778516
1580423642.81689,-0.357671473258565,-1.36159304188602,1.38258945601587
1580423642.84946,-0.429938200961319,-0.649179827573052,0.599862668802931
1580423642.88204,-0.456794079499504,-0.369390402075227,0.254642557412069
1580423642.91462,-3.30302891584649,-0.0544441901274126,-0.0510261692225527
1580423642.94719,-1.76736095216297,0.31860837720302,0.0559090562294955
1580423642.97977,-2.27273975738155,0.193118181124589,0.0197756923781185
1580423643.01234,-2.17801174944686,-0.118898298619058,0.167727168688486
1580423643.04492,-1.75515373464561,0.402105745021743,-0.36401922636759
1580423643.0775,-1.14772259098192,0.750255588616771,-0.741954680704966
1580423643.11007,-0.675059128709849,0.814709697108416,-0.844007019150073
1580423643.14265,-0.153078507667658,0.902113374532693,-0.217044327458609
1580423643.17523,0.102296482795452,0.385015640497443,0.254642557412069
1580423643.2078,-0.750255588616771,-1.0300450141146,1.20778210116731
1580423643.24038,-0.0715342946517126,-1.28249027237354,-0.476325627527276
1580423643.27295,0.578377965972383,-0.270756084534982,0.546639200427254
1580423643.30553,-3.92999160753796,-1.76638437476158,0.497810330357822
1580423643.3381,-0.562752727550164,-1.07838559548333,-0.0871595330739297
1580423643.37068,-0.584237430380712,2.81913481345846,-0.695567254139009
1580423643.40326,-1.71804379339284,0.0539559014267184,0.163820859082932
1580423643.43583,-1.4060273136492,0.0793469138628211,0.144777599755855
1580423643.46841,-2.01980621042191,1.28834973678187,-0.362554360265507
1580423643.50099,-1.77712672617685,0.31519035629816,-0.0451667048142212
1580423643.53356,-1.7727321278706,-0.359624628061342,0.300541695277332
1580423643.56614,-1.76247806515602,-1.3283894102388,0.958266575112535
1580423643.59871,-1.0891279468986,-1.72292668039979,1.30836957351034
1580423643.63141,0.106691081101701,-1.7990997177081,1.20729381246662
1580423643.66398,-0.517341878385595,-0.90748455024033,1.18532082093538
1580423643.69656,-0.542244602121004,-0.191165026321812,0.34937056534676
1580423643.72914,-1.0124666208896,0.0988784618905925,0.105714503700312
1580423643.76171,-2.19900816357671,0.306889448386357,0.108155947203784
1580423643.79429,-2.36551461051347,-0.0910658426794839,0.212649729152361
1580423643.82686,-2.34402990768292,-0.0075684748607614,0.129640650034332
1580423643.85944,-1.94021515220874,-0.128664072632944,-0.031006332494087
1580423643.89202,-1.5251697566186,0.402594033722437,-0.529549095902953
1580423643.92459,-0.881605249103533,0.589608606088351,-0.70142671854734
1580423643.95717,-0.52124818799115,0.597909514000154,-0.658457312886243
1580423643.98974,-0.170656900892652,0.601327534905014,0.710704203860534
1580423644.02232,-0.070557717250324,-0.320561532005799,0.563729304951554
1580423644.0549,-0.369390402075227,-0.791760128175785,-0.435309376668956
1580423644.08747,-0.0837415121690697,-1.00904859998474,0.772228580148013
1580423644.12005,0.161867704280155,0.177492942702372,-0.613534752422369
1580423644.15263,-1.70339513237201,-0.611093308918898,1.82742046234836
1580423644.1852,0.167727168688486,0.111573968108644,-0.983169298847944
1580423644.21778,-0.878675516899367,1.93826199740597,-1.23561455710689
1580423644.25035,-1.98757915617609,-0.0383306630045013,0.208255130846112
1580423644.28293,-1.30153353170062,0.495857175555045,0.0627450980392155
1580423644.31551,-2.12918287937743,0.683848325322348,-0.113038834210727
1580423644.34808,-1.67849240863661,0.165774013885709,0.107179369802395
1580423644.38066,-1.76931410696574,-0.23315785458152,0.478278782330051
1580423644.41323,-1.62136263065537,-1.32204165712978,1.15211718928817
1580423644.44581,-0.746349279011215,-1.39577325093462,0.952407110704204
1580423644.47839,-0.0588387884336612,-1.8161898222324,1.17360189211871
1580423644.51096,-0.54859235523003,-1.13795681696803,1.20387579156176
1580423644.54354,-0.314213778896773,-0.361577782864119,0.337163347829403
1580423644.57611,-1.19118028534371,0.121828030823224,0.268802929732203
1580423644.60869,-1.77663843747616,0.611581597619594,0.00805676356145568
1580423644.64127,-2.34793621728847,-0.180422674906538,0.116456855115587
1580423644.67384,-2.30740825513085,-0.170168612191958,0.348882276646066
1580423644.70642,-1.97048905165179,-0.130128938735027,-0.060303654535744
1580423644.73899,-1.56276798657206,0.578377965972383,-0.519295033188373
1580423644.77157,-0.786877241168842,0.516365300984209,-0.790295262073702
1580423644.80415,-0.48364995803769,0.332768749523154,-0.371831845578699
1580423644.83672,-0.258060578316931,0.362554360265506,-0.00268558785381856
1580423644.8693,-0.180422674906538,0.0813000686655982,0.641367208361945
1580423644.90188,-0.265873197528039,-0.544686045624475,0.127687495231555
1580423644.93448,0.112062256809338,-0.813244831006333,0.294193942168306
1580423644.96705,0.0393072404058898,-0.285404745555811,-0.636972610055695
1580423644.99963,-3.12724498359655,0.0495613031204698,1.30397497520409
1580423645.03221,-0.158937972075989,0.577889677271688,-1.01002517738613
1580423645.06479,-1.56081483176928,2.07644769970245,-1.19655146105135
1580423645.09736,-1.93777370870527,-0.127199206530861,0.392339971007857
1580423645.12994,-1.45925078202487,0.795178149080645,-0.120851453421835
1580423645.16251,-2.06179903868162,0.490974288548102,-0.171633478294041
1580423645.19509,-1.8581826504921,-0.0925307087815668,0.132570382238498
1580423645.22767,-1.87673762111849,-0.407476920729382,0.401129167620354
1580423645.26024,-1.36110475318532,-1.3117875944152,0.78785381857023
1580423645.29282,-0.664316777294575,-1.2092469672694,1.03443961242084
1580423645.3254,-0.281498435950256,-1.40651560234989,1.47243457694362
1580423645.35797,-0.468513008316167,-1.18287937743191,1.26100556954299
1580423645.39055,-0.351323720149539,-0.469489585717556,0.551522087434197
1580423645.42313,-1.80202944991226,-0.172121766994735,0.226321812771801
1580423645.4557,-1.66042572671092,0.325932707713434,-0.031006332494087
1580423645.48828,-2.6018463416495,-0.693125810635538,0.204348821240558
1580423645.52086,-2.51200122072175,-0.01196307316701,0.258060578316929
1580423645.55343,-2.11111619745174,0.463630121309222,-0.471442740520333
1580423645.58601,-1.23219653620203,0.627695124742505,-0.671641107804989
1580423645.61859,-0.659922178988326,0.789806973373008,-0.799084458686199
1580423645.65116,-0.0866712443732354,1.0554360265507,-0.702403295948729
1580423645.68374,0.30493629358358,1.23805600061036,0.489997711146714
1580423645.71632,-0.509040970473793,-0.892347600518807,1.41286335545891
1580423645.74889,-0.500251773861295,-0.868909742885482,-0.553963530937667
1580423645.78147,0.347905699244677,-0.527107652399481,0.306889448386357
1580423645.81405,-2.79374380102236,-3.33916227969787,2.06570534828717
1580423645.84662,-0.819592584115359,0.00415045395590141,-0.935805294880598
1580423645.8792,-0.214602883955138,2.68339055466545,-0.746349279011215
1580423645.91177,-2.16824597543297,0.377203021286334,0.25366598001068
1580423645.94435,-1.25270466163119,-0.0222171358815899,-0.0339360646982527
1580423645.97693,-2.15213244831006,1.49831387808041,-0.371831845578699
1580423646.00951,-1.90896467536431,0.40747692072938,0.0207522697795071
1580423646.04208,-1.77761501487755,-0.253177691309988,0.355718318455786
1580423646.07466,-1.98855573357748,-0.941176470588236,0.879163805600061
1580423646.10723,-1.23561455710689,-1.58718242160677,0.958266575112535
1580423646.13981,0.136476691844052,-2.2429541466392,1.27370107576104
1580423646.17239,-0.416266117341879,-1.23268482490272,1.36354619668879
1580423646.20496,-0.462653543907836,-0.0520027466239412,0.405523765926603
1580423646.23764,-0.750743877317465,0.0236820019836728,0.288334477759975
1580423646.27022,-3.22978561074235,0.646250095368888,0.024170290684367
1580423646.30279,-2.04177920195315,-0.254642557412071,0.0900892652780954
1580423646.33537,-2.46366063935302,0.0847180895704582,0.173098344396124
1580423646.36795,-2.09060807202258,-0.0925307087815668,-0.0139162279697871
1580423646.40052,-1.62966353856718,0.535408560311286,-0.352300297550928
1580423646.4331,-1.04908827344167,0.790295262073702,-0.588143739986267
1580423646.46568,-0.628183413443198,0.775646601052873,-0.661875333791103
1580423646.49825,-0.195559624628061,0.873792629892424,-0.289799343862059
1580423646.53083,0.391363393606468,0.000732433051041426,0.334721904325932
1580423646.56341,-0.314213778896773,-1.02858014801251,0.938735027084764
1580423646.59598,-0.351323720149539,-1.02760357061112,-0.44263370717937
1580423646.62856,-0.0500495918211641,-1.20338750286107,0.0529793240253298
1580423646.66113,-1.9524223697261,0.0764171816586554,0.937270160982681
1580423646.69371,0.116456855115587,1.16774242771038,-1.55837338826581
1580423646.72629,-2.41434348058289,1.63210498207065,-0.970962081330587
1580423646.75886,-1.58083466849775,-0.417730983443962,0.406500343327991
1580423646.79144,-1.47096971084154,0.622812237735562,-0.193118181124589
1580423646.82402,-1.98074311436637,0.892347600518807,-0.235111009384298
1580423646.8566,-1.84206912336919,0.121828030823224,0.177981231403066
1580423646.88917,-1.70632486457618,-0.497810330357824,0.408453498130768
1580423646.92175,-1.37038223849851,-1.36598764019226,0.878675516899367
1580423646.95432,-1.11549553673609,-1.01149004348821,0.790295262073702
1580423646.9869,0.00219729915312428,-1.6194094758526,1.31862363622492
1580423647.01948,-0.400640878919662,-1.16188296330205,1.02320897230488
1580423647.05205,-0.283451590753033,-0.498786907759213,0.476813916227968
1580423647.08463,-1.41969939726864,0.302006561379415,0.251712825207903
1580423647.11721,-1.7214618142977,0.262943465323872,-0.0358892195010299
1580423647.14978,-2.64042114900435,-0.120851453421835,0.11792172121767
1580423647.18236,-2.58182650492103,-0.125734340428778,0.173098344396124
1580423647.21494,-2.09549095902953,-0.0339360646982527,-0.181887541008621
1580423647.24751,-1.65065995269703,0.42456702525368,-0.466071564812696
1580423647.28009,-0.944106202792401,0.571541924162663,-0.779552910658428
1580423647.31267,-0.556404974441138,0.818127718013276,-0.667734798199435
1580423647.34524,-0.180910963607232,1.08815136949721,0.00268558785381856
1580423647.37782,0.224856946669718,0.0734874494544897,0.137453269245441
1580423647.4104,-0.282963302052339,-1.16237125200275,0.909437705043107
1580423647.44297,-0.495368886854353,-1.41139848935683,0.587655451285574
1580423647.47555,0.450934615091171,-0.130128938735027,-0.648691538872358
1580423647.50813,-3.63799496452277,0.0744640268558783,1.53591210803388
1580423647.54089,-0.147219043259327,-0.542732890821698,-1.04078736552987
1580423647.57347,-0.691660944533455,2.22732890821698,-0.797131303883422
1580423647.60605,-1.66775005722133,-0.0822766460669868,0.152101930266269
1580423647.63862,-1.37477683680476,0.146242465857938,0.142336156252384
1580423647.6712,-1.84206912336919,0.789318684672313,-0.143312733653772
1580423647.70378,-1.77517357137408,0.635996032654308,0.0437018387121384
1580423647.73635,-1.81277180132754,-0.0661631189440754,0.297611963073166
1580423647.76893,-1.65603112840467,-1.16481269550622,0.604745555809874
1580423647.80151,-1.22243076218814,-1.25905241474022,0.874769207293813
1580423647.83408,-0.589608606088349,-1.37917143511101,1.01197833218891
1580423647.86666,0.0725108720531011,-1.85671778439002,1.41628137636377
1580423647.89924,-0.571053635461967,-0.501716639963378,0.684824902723737
1580423647.93181,-0.401129167620356,-0.295170519569696,0.30493629358358
1580423647.96439,-2.81425192645152,0.497810330357822,0.291752498664835
1580423647.99696,-1.47780575265126,0.309819180590523,0.115968566414892
1580423648.02954,-2.61210040436408,-0.23657587548638,-0.10766765850309
1580423648.06212,-2.43533989471275,-0.47339589532311,0.30151827267872
1580423648.09469,-2.06863508049134,0.208255130846112,-0.313237201495385
1580423648.12727,-1.30006866559854,0.567635614557108,-0.738048371099412
1580423648.15985,-0.800549324788282,0.538338292515451,-0.70826276035706
1580423648.19242,-0.420172426947433,0.605722133211263,-0.469001297016861
1580423648.225,0.0549324788281069,0.800549324788282,0.656992446784162
1580423648.25758,-0.421149004348822,-0.122804608224612,0.93141069657435
1580423648.29015,-0.294682230869002,-0.531990539406424,-0.0383306630045013
1580423648.32273,0.205325398641946,-1.52809948882277,0.323002975509269
1580423648.35531,0.00854505226214997,-0.571541924162661,-0.0886243991760125
1580423648.38788,-2.34110017547875,0.412848096437017,0.857679102769513
1580423648.42046,-0.488044556343938,1.74148165102617,-0.985610742351415
1580423648.45304,-1.63503471427481,1.03297474631876,-0.796154726482033
1580423648.48561,-1.8845502403296,-0.00366216525520713,0.0505378805218584
1580423648.51819,-1.7048599984741,0.645761806668194,-0.23315785458152
1580423648.55077,-1.88064393072404,0.5256427862974,-0.127199206530861
1580423648.58334,-1.79812314030671,-0.0324711985961699,0.317143511100937
1580423648.61592,-1.71413748378729,-0.472907606622416,0.656015869382774
1580423648.6485,-1.49050125886931,-1.14772259098192,1.18580910963607
1580423648.68107,-0.986587319752804,-1.02027924010071,0.836682688639659
1580423648.71365,-0.310307469291219,-1.70095368886854,1.01441977569238
1580423648.74623,-0.281986724650951,-1.74294651712825,1.2092469672694
1580423648.7788,-0.338628213931488,-0.618417639429312,0.4314030670634
1580423648.81138,-1.48415350576028,0.166750591287098,0.125246051728084
1580423648.84412,-1.62819867246509,0.43823910887312,-0.125734340428778
1580423648.87669,-2.2346532387274,-0.0231937132829785,0.140383001449607
1580423648.90927,-2.38455786984054,-0.125734340428778,0.570565346761274
1580423648.94185,-2.16678110933089,0.23657587548638,-0.139894712748912
1580423648.97442,-1.42848859388113,0.819592584115359,-0.67750057221332
1580423649.007,-0.88355840390631,0.647226672770277,-0.889906157015336
1580423649.03957,-0.469001297016861,0.636972610055697,-0.560799572747387
1580423649.07215,-0.188235294117646,0.600350957503625,0.245853360799572
1580423649.10473,-0.0319829098954756,-0.457770656900893,0.713145647364005
1580423649.13731,-0.440192263675899,-1.04762340733959,0.209231708247501
1580423649.16988,0.114991989013504,-0.209719996948195,0.149172198062104
1580423649.20246,-0.318120088502328,-0.289311055161365,-0.568612191958495
1580423649.23503,-2.18631265735866,-0.0231937132829785,0.62476539253834
1580423649.26761,-0.0593270771343555,1.54372472724499,-1.30495155260548
1580423649.30019,-1.97000076295109,1.3884489204242,-0.94166475928893
1580423649.33276,-1.57936980239567,-0.458258945601587,0.501228351262686
1580423649.36534,-1.41725795376516,0.827405203326467,-0.215091172655832
1580423649.39792,-1.93972686350805,0.734630350194553,-0.155519951171129
1580423649.43049,-1.79519340810254,0.179934386205844,0.0861829556725411
1580423649.46307,-1.77029068436713,-0.561287861448081,0.522713054093234
1580423649.49565,-1.77077897306783,-1.28542000457771,0.99293507286183
1580423649.52822,-0.936293583581293,-1.33962005035477,1.06910811017014
1580423649.5608,-0.0607919432364383,-1.52956435492485,1.29713893339437
1580423649.59338,-0.437750820172427,-1.20582894636454,1.22243076218814
1580423649.62595,-0.385992217898833,-0.37427328908217,0.41773098344396
1580423649.65853,-1.29616235599298,0.136964980544747,0.0744640268558783
1580423649.69111,-1.97195391775387,0.577889677271688,0.0314946211947813
1580423649.72368,-2.48123903257801,-0.260990310521096,-0.00659189745937283
1580423649.75626,-2.3025253681239,-0.249759670405126,0.100343327992675
1580423649.78884,-2.02468909742885,-0.101319905394064,-0.191653315022506
1580423649.82141,-1.5505607690547,0.425543602655068,-0.569588769359884
1580423649.85399,-0.985122453650721,0.61451132982376,-0.693614099336232
1580423649.88657,-0.56910048065919,0.695567254139011,-0.420172426947433
1580423649.91914,-0.0407721065079727,0.782482642862593,0.145265888456549
1580423649.95172,-0.129640650034332,-0.205813687342641,0.917250324254216
1580423649.98429,-0.670176241702906,-0.674082551308461,0.447028305485617
1580423650.01687,-0.0563973449301898,-1.10182345311665,0.226810101472495
1580423650.04945,1.03590447852293,-0.0246585793850613,-0.943617914091707
1580423650.08202,-3.91192492561227,-0.968032349126421,2.05642786297398
1580423650.1146,-0.168215457389181,-0.361577782864119,-1.06910811017014
1580423650.14734,-0.525154497596704,2.17703517204547,-1.27223620965896
1580423650.17992,-2.12967116807813,0.236087586785686,0.207278553444723
1580423650.21249,-1.2771190966659,0.517341878385597,-0.0183108262760356
1580423650.24507,-2.03933775844968,0.535408560311286,-0.230228122377355
1580423650.27765,-1.6877698939498,-0.0437018387121384,0.0324711985961699
1580423650.31022,-1.76394293125811,-0.495368886854353,0.363530937666894
1580423650.3428,-1.33083085374228,-1.22877851529717,0.94508278019379
1580423650.37538,-1.18141451132982,-0.733165484092469,1.05738918135348
1580423650.40795,0.0358892195010299,-1.44557869840543,1.08766308079652
1580423650.44053,-0.529060807202258,-1.24782177462425,1.0896162355993
1580423650.47311,-0.499275196459907,-1.05006485084306,0.829846646829939
1580423650.50569,-1.04908827344167,-0.375249866483559,0.344487678339817
1580423650.53826,-2.99150072480354,1.50514991989014,-0.436285954070344
1580423650.57084,-2.73514915693904,-0.131593804837109,0.174074921797512
1580423650.60342,-2.68192568856336,-0.0842298008697639,0.419684138246737
1580423650.63599,-2.12674143587396,0.333745326924543,-0.186770428015564
1580423650.66857,-1.45143816281376,0.650156404974442,-0.683848325322346
1580423650.70115,-0.805920500495919,0.663340199893188,-0.890882734416724
1580423650.73372,-0.375738155184253,0.650156404974442,-0.802014190890365
1580423650.7663,0.160402838178072,1.06520180056458,0.621835660334174
1580423650.79888,0.00610360875867855,-0.318608377203022,1.03150988021668
1580423650.83146,-0.734142061493857,-0.705821316853589,0.347905699244677
1580423650.86403,0.365972381170366,-1.2863965819791,-0.0554207675288012
1580423650.89661,-0.298588540474556,-0.455329213397421,-0.0324711985961699
1580423650.92919,-1.45534447241932,-0.250247959105822,-0.0266117341878385
1580423650.96176,0.701426718547342,1.35915159838254,-1.30153353170062
1580423650.99434,-3.81622034027619,1.56130312046998,-1.17555504692149
1580423651.02692,-1.26735332265202,-0.54517433432517,0.361577782864117
1580423651.0595,-1.78005645838102,1.29616235599298,-0.302494850080111
1580423651.09207,-2.0124818799115,0.630624856946671,-0.0183108262760356
1580423651.12465,-1.8928511482414,-0.205813687342641,0.294682230869
1580423651.15723,-1.68191042954147,-1.08668650339513,0.460700389105057
1580423651.1898,-1.25465781643397,-1.43385976958877,1.0041657129778
1580423651.22238,-0.511482413977264,-1.34303807125963,1.13502708476387
1580423651.25496,-0.165774013885709,-1.63112840466926,1.39284351873045
1580423651.28753,-0.574959945067521,-0.613534752422369,0.840588998245213
1580423651.32011,-0.369878690775922,-0.385992217898833,0.337651636530097
1580423651.35269,-2.80057984283208,0.41089494163424,0.0461432822156098
1580423651.38527,-1.54470130464637,0.263431754024566,-0.0217288471808956
1580423651.41784,-2.55838864728771,-0.0896009765774011,-0.0104982070649271
1580423651.45053,-2.44998855573358,-0.301029983978028,0.282963302052337
1580423651.48311,-1.88747997253376,0.375249866483557,-0.434332799267567
1580423651.51568,-1.23659113450828,0.693614099336234,-0.785412375066759
1580423651.54826,-0.671152819104295,0.687266346227208,-0.865003433279927
1580423651.58084,-0.301518272678722,0.759533073929962,-0.620859082932784
1580423651.61342,0.0168459601739528,0.749279011215382,0.714610513466088
1580423651.64599,-0.312748912794691,-0.592538338292515,1.77956816968032
1580423651.67857,-0.399176012817579,-0.705333028152895,-0.767833981841765
1580423651.71115,0.339604791332874,-1.08766308079652,0.47583733882658
1580423651.74372,-0.279056992446785,0.769787136644542,-0.312748912794691
1580423651.7763,-1.21852445258259,-0.764415960936905,0.353765163653009
1580423651.80888,0.363530937666894,1.13795681696803,-1.05738918135348
1580423651.84145,-3.80157167925536,2.59012741283284,-1.07057297627222
1580423651.87403,-1.48903639276722,-0.572518501564049,0.36646066987106
1580423651.90661,-1.77761501487755,1.10084687571527,-0.208255130846112
1580423651.93919,-1.91140611886778,0.412359807736323,0.0300297550926985
1580423651.97176,-1.6877698939498,-0.0437018387121384,0.265873197528038
1580423652.00434,-1.7990997177081,-0.994888227664607,0.61451132982376
1580423652.03692,-1.30690470740826,-1.39870298313878,0.926527809567407
1580423652.06949,-0.282963302052339,-1.6189211871519,1.02027924010071
1580423652.10207,-0.288334477759976,-1.30006866559854,1.16432440680552
1580423652.13465,-0.657969024185549,-0.650644693675135,0.665293354695965
1580423652.16722,-0.344487678339819,-0.424567025253682,0.238529030289158
1580423652.1998,-2.23562981612879,-0.196536202029449,0.0285648889906156
1580423652.23238,-1.51589227130541,0.381597619592583,-0.173586633096818
1580423652.26496,-2.39920653086137,-0.145265888456549,-0.111573968108644
1580423652.29753,-2.28055237659266,-0.0417486839093613,0.363530937666894
1580423652.33011,-1.91189440756848,0.28101014724956,-0.188723582818341
1580423652.36269,-1.29518577859159,0.704356450751508,-0.602792401007095
1580423652.39526,-0.751720454718853,0.468513008316165,-0.556893263141832
1580423652.42784,-0.240970473792629,0.239017318989852,-0.105226214999618
1580423652.46042,0.107179369802395,0.096437018387121,0.586678873884185
1580423652.493,-0.39136339360647,-0.137941557946135,1.01588464179446
1580423652.52557,-0.212649729152361,-0.0871595330739297,-0.601327534905012
1580423652.55815,0.101808194094758,-0.675059128709849,0.54956893263142
1580423652.59073,-0.709727626459143,-0.573495078965438,0.23657587548638
1580423652.6233,-1.05299458304723,-0.855725947966736,-0.207766842145418
1580423652.65588,0.420172426947431,1.34010833905547,-1.26735332265202
1580423652.68846,-3.5164110780499,1.72780956740673,-1.10328831921874
1580423652.72104,-1.34303807125963,-0.400640878919662,0.487067978942548
1580423652.75372,-1.65554283970397,0.871351186388953,-0.137453269245441
1580423652.7863,-1.83816281376364,0.623300526436257,-0.135500114442664
1580423652.81888,-1.87234302281224,0.0651865415426869,0.176516365300984
1580423652.85145,-1.76540779736019,-0.858655680170902,0.604745555809874
1580423652.88403,-1.33669031815061,-1.32252994583047,1.09156939040207
1580423652.91661,-0.799084458686199,-1.43630121309224,0.967544060425727
1580423652.94919,0.0627450980392155,-1.832791638056,1.37380025940337
1580423652.98177,-0.446540016784924,-0.93141069657435,0.629648279545282
1580423653.01434,-0.505134660868238,-0.129640650034332,0.242435339894712
1580423653.04692,-2.93437094682231,0.736095216296636,0.0910658426794839
1580423653.0795,-1.65163653009842,0.236087586785686,-0.196047913328755
1580423653.11207,-2.5764553292134,-0.301518272678722,0.155031662470435
1580423653.14465,-2.47977416647593,-0.259525444419014,0.3459525444419
1580423653.17723,-1.91726558327611,0.4314030670634,-0.283939879453728
1580423653.20981,-1.20387579156176,0.694590676737622,-0.628671702143892
1580423653.24238,-0.74586099031052,0.706309605554285,-0.608651865415426
1580423653.27496,-0.333745326924545,0.648203250171665,-0.481208514534218
1580423653.30754,0.0876478217746239,0.933852140077821,0.370855268177309
1580423653.34012,0.0207522697795071,-0.523201342793927,1.30641641870756
1580423653.3727,-0.204837109941252,-1.25270466163119,-0.824963759822996
1580423653.40527,0.198489356832226,-0.41870756084535,0.969497215228504
1580423653.43785,-2.09256122682536,-1.86892500190738,0.242923628595406
1580423653.47043,-0.774670023651485,-0.80494392309453,-0.211184863050278
1580423653.50301,-0.0393072404058898,2.22879377431907,-1.17897306782635
1580423653.53558,-2.69120317387655,0.888929579613947,-0.171633478294041
1580423653.56816,-1.28297856107424,-0.0407721065079727,0.140871290150301
1580423653.60074,-2.03250171663996,1.18971541924163,-0.176028076600289
1580423653.63332,-1.81863126573587,0.402105745021743,0.143312733653772
1580423653.66589,-1.62331578545815,-0.365972381170367,0.27075608453498
1580423653.69847,-1.33522545204852,-1.1062180514229,0.559334706645306
1580423653.73105,-1.2263370717937,-1.04762340733959,1.06861982146944
1580423653.76363,-0.641855497062638,-1.18287937743191,0.991470206759747
1580423653.7962,-0.077393759060044,-1.75124742504006,1.21120012207217
1580423653.82878,-0.447028305485619,-1.0466468299382,0.76392767223621
1580423653.86136,-0.56910048065919,-0.396734569314107,0.261966887922483
1580423653.89394,-4.07013046463722,1.67556267643244,-0.371343556878005
1580423653.92651,-1.93191424429694,0.227786678873883,-0.124269474326695
1580423653.95909,-2.43778133821622,0.0490730144197755,0.314213778896772
1580423653.99167,-2.18094148165103,-0.168703746089875,0.119874876020447
1580423654.02425,-1.73513389791714,0.420660715648125,-0.373785000381476
1580423654.05694,-1.0554360265507,0.682383459220265,-0.598886091401541
1580423654.08952,-0.571541924162661,0.64185549706264,-0.614999618524452
1580423654.1221,-0.314702067597468,0.946547646295873,-0.0612802319371326
1580423654.15468,0.212649729152361,0.343511100938429,0.318120088502326
1580423654.18726,-0.199465934233615,-1.05690089265278,1.04567025253681
1580423654.21984,-0.342534523537042,-1.03053330281529,-0.398687724116884
1580423654.25241,0.581307698176548,0.29126420996414,0.657480735484857
1580423654.28499,-5.43343251697566,-3.66826886396582,0.897718776226444
1580423654.31757,-0.74927901121538,-1.07496757457847,-0.970962081330587
1580423654.35015,-0.0178225375753414,1.69118791485466,-1.06080720225834
1580423654.38273,-2.64823376821546,1.25026321812772,-0.140383001449607
1580423654.4153,-1.36647592889296,0.118410009918364,0.157961394674601
1580423654.44788,-2.08719005111772,0.867933165484093,-0.263920042725262
1580423654.48046,-1.68484016174563,0.103273060196841,0.0124513618677042
1580423654.51304,-1.84353398947128,0.01196307316701,0.46216525520714
1580423654.54561,-1.69558251316091,-0.89723048752575,0.937758449683376
1580423654.57819,-1.21461814297703,-1.09987029831388,1.22194247348745
1580423654.61077,-0.210696574349583,-1.81277180132754,1.26344701304646
1580423654.64335,-0.51441214618143,-1.65700770580606,1.20582894636454
1580423654.67593,-0.594491493095292,-0.706309605554283,0.821057450217442
1580423654.7085,-0.966567483024338,0.301029983978026,0.113038834210727
1580423654.74108,-2.39188220035096,0.649179827573054,-0.191653315022506
1580423654.77366,-2.62674906538491,0.100343327992675,0.0949721522850382
1580423654.80624,-2.47928587777523,0.104737926298924,0.222903791866941
1580423654.83882,-2.20242618448157,0.00170901045242999,0.0246585793850613
1580423654.87139,-1.81863126573587,0.34253452353704,-0.410406652933547
1580423654.90397,-1.19899290455482,0.397711146715494,-0.754650186923019
1580423654.93655,-0.578377965972381,0.453864347295337,-0.780529488059816
1580423654.96913,-0.265384908827345,0.665781643396659,-0.197024490730143
1580423655.00171,-0.0217288471808956,0.552010376134891,0.292729076066223
1580423655.03428,-0.138429846646829,-0.41187151903563,0.26733806363012
1580423655.06686,-0.139406424048218,-0.81177996490425,-0.294682230869002
1580423655.09944,0.210696574349583,-0.56910048065919,0.23657587548638
1580423655.13202,-3.85333028152895,-1.06471351186389,2.28006408789197
1580423655.1646,-0.324956130312048,0.28784618905928,-1.27809567406729
1580423655.19718,-1.16871900511177,2.27664606698711,-1.14967574578469
1580423655.22975,-1.84011596856642,-0.135011825741969,0.285893034256503
1580423655.26233,-1.30153353170062,0.493415732051574,-0.104737926298924
1580423655.29491,-2.1316243228809,0.731700617990388,-0.303471427481499
1580423655.32749,-1.79714656290532,-0.102296482795452,0.0690928511482412
1580423655.3602,-1.66628519111925,-0.207766842145418,0.289311055161363
1580423655.39278,-1.51052109559777,-0.961684596017395,0.949477378500038
1580423655.42535,-1.24586861982147,-0.576424811169604,1.12867933165484
1580423655.45793,-0.39136339360647,-1.19459830624857,0.911390859845884
1580423655.49051,-0.421637293049516,-1.73513389791714,1.13160906385901
1580423655.52309,-0.286869611657893,-1.53200579842832,0.752208743419548
1580423655.55567,-0.923109788662547,-0.484138246738384,0.372808422980086
1580423655.58824,-2.72440680552377,1.29176775768673,-0.262455176623179
1580423655.62082,-2.12820630197604,0.254642557412069,-0.0163576714732585
1580423655.6534,-2.45291828793774,-0.133546959639887,0.0578622110322726
1580423655.68598,-2.53446250095369,-0.0827649347676811,0.0959487296864268
1580423655.71856,-1.97586022735943,0.574471656366828,-0.460212100404364
1580423655.75113,-1.16383611810483,0.577401388570994,-0.87672236209659
1580423655.78371,-0.594003204394598,0.560311284046694,-0.822522316319525
1580423655.81629,-0.0778820477607383,0.809826810101473,-0.291264209964142
1580423655.84887,0.187258716716258,0.56665903715572,0.435797665369648
1580423655.88145,-0.671152819104295,-0.44605172808423,1.01393148699168
1580423655.91402,-0.416754406042573,-0.810803387502862,-0.333745326924545
1580423655.9466,0.688242923628597,-0.549568932631418,0.694590676737622
1580423655.97918,-1.32497138933394,-0.123292896925307,0.225833524071106
1580423656.01176,-0.956801709010453,-1.05152971694514,0.0158693827725642
1580423656.04434,0.0627450980392155,1.62478065156024,-0.878187228198673
1580423656.07691,-2.61405355916686,1.32692454413672,-0.472907606622416
1580423656.10949,-1.45339131761654,-0.259037155718319,0.453864347295337
1580423656.14207,-1.78445105668727,0.99293507286183,-0.335210193026628
1580423656.17465,-1.84304570077058,0.334233615625237,-0.00854505226214997
1580423656.20723,-1.83181506065461,-0.198489356832226,0.255130846112763
1580423656.2398,-1.74929427023728,-0.827893492027162,0.64869153887236
1580423656.27238,-1.2522163729305,-1.27614251926452,1.12867933165484
1580423656.30496,-0.385503929198139,-1.56179140917067,1.00904859998474
1580423656.33754,-0.148683909361409,-1.6448004882887,1.55153734645609
1580423656.37012,-0.542732890821698,-0.779064621957733,0.700938429846648
1580423656.40269,-0.476325627527276,-0.2434119172961,0.350835431448843
1580423656.43527,-3.15800717174029,0.633554589150837,0.185305561913481
1580423656.46785,-1.76638437476158,0.268314641031509,0.25024795910582
1580423656.50043,-2.55594720378424,-0.118410009918364,0.120363164721141
1580423656.53301,-2.31277943083848,-0.382574196993973,0.218997482261386
1580423656.56558,-1.85378805218586,0.2775921263447,-0.463630121309224
1580423656.59816,-1.07350270847639,0.648203250171665,-0.831311512932022
1580423656.63074,-0.644785229266803,0.843030441748684,-0.906507972838941
1580423656.66336,-0.189211871519035,1.06080720225834,-0.509040970473793
1580423656.69594,0.28442816815442,0.39380483710994,0.276615548943312
1580423656.72852,-0.614511329823758,-0.851819638361182,1.2087586785687
1580423656.76109,-0.531990539406424,-1.0383459220264,-0.165774013885709
1580423656.79367,0.821545738918136,-0.112550545510032,0.0422369726100555
1580423656.82625,-2.52372014953841,-2.41239032578012,1.20289921416037
1580423656.85883,-1.00025940337224,-0.963149462119478,-0.345464255741208
1580423656.89141,-0.0222171358815899,1.87820248722057,-0.728282597085526
1580423656.92398,-2.73807888914321,0.990493629358358,-0.122316319523918
1580423656.95656,-1.20387579156176,-0.157473105973907,0.206301976043335
1580423656.98914,-1.9358205539025,1.03150988021668,-0.347417410543985
1580423657.02172,-1.87234302281224,0.336186770428014,-0.116945143816281
1580423657.0543,-1.78933394369421,-0.164309147783626,0.118410009918364
1580423657.08687,-1.78542763408866,-0.880628671702144,0.732677195391776
1580423657.11945,-1.39919127183948,-0.957778286411841,1.27125963225757
1580423657.15203,-0.490974288548104,-1.2517280842298,1.21461814297703
1580423657.18461,-0.135500114442664,-1.55446707866026,1.08180361638819
1580423657.21719,-0.520759899290455,-1.13405050736248,0.957289997711147
1580423657.24976,-0.547615777828641,-0.743907835507743,0.451422903791865
1580423657.28234,-3.22392614633402,0.860608834973679,-0.214114595254443
1580423657.31492,-1.93044937819486,0.52222476539254,-0.142824444953078
1580423657.3475,-2.49539940489815,0.0217288471808956,0.100343327992675
1580423657.38008,-2.29520103761349,-0.223880369268329,0.181399252307926
1580423657.41265,-1.76247806515602,0.416754406042571,-0.489021133745327
1580423657.44523,-1.01051346608682,0.666758220798048,-0.858655680170902
1580423657.47781,-0.519783321889067,0.696055542839705,-0.882581826504921
1580423657.51039,-0.129640650034332,1.02565041580835,-0.369878690775922
1580423657.54297,0.377691309987028,0.341557946135651,0.423590447852291
1580423657.57554,-0.532967116807813,-0.692149233234149,1.16334782940413
1580423657.60812,-0.513435568780041,-1.46706340123598,-1.08717479209583
1580423657.6407,0.542244602121006,-0.825940337224385,0.919691767757687
1580423657.67328,-6.34360265506981,-0.215091172655832,1.54323643854429
1580423657.70586,-0.248294804303043,-0.391851682307164,-1.10377660791943
1580423657.73843,-0.739513237201495,2.5505760280766,-0.635019455252918
1580423657.77101,-1.83962767986572,-0.0817883573662925,0.273685816739146
1580423657.80359,-1.28053711757076,0.248294804303043,0.0881361104753182
1580423657.83617,-2.03982604715038,1.31667048142214,-0.347905699244679
1580423657.86875,-1.87673762111849,0.29126420996414,0.0383306630045013
1580423657.90132,-1.93630884260319,-0.10766765850309,0.316166933699549
1580423657.9339,-1.8923628595407,-1.21266498817426,0.835217822537576
1580423657.96661,-1.19069199664301,-1.39284351873045,1.20534065766384
1580423657.99919,-0.034424353398947,-1.89382772564279,1.14479285877775
1580423658.03177,-0.416266117341879,-1.6448004882887,1.32252994583047
1580423658.06435,-0.531990539406424,-0.576913099870298,0.713145647364005
1580423658.09693,-0.633066300450141,-0.101808194094758,-0.0183108262760356
1580423658.12951,-3.01884489204242,0.856702525368124,0.0695811398489354
1580423658.16208,-2.16824597543297,0.30151827267872,0.0622568093385212
1580423658.19466,-2.48709849698634,0.161379415579461,0.137453269245441
1580423658.22724,-2.15408560311284,-0.252201113908599,0.181399252307926
1580423658.25982,-1.84792858777752,0.175539787899595,-0.319096665903716
1580423658.2924,-1.11989013504234,0.359136339360646,-0.731212329289692
1580423658.32498,-0.655527580682078,0.501228351262686,-0.790295262073702
1580423658.35755,-0.292240787365531,0.91090257114519,-0.132082093537804
1580423658.39013,0.133058670939192,0.475349050125885,0.592050049591823
1580423658.42271,-0.539314869916838,-0.888441290913253,0.523689631494623
1580423658.45529,-0.284428168154422,-0.89381246662089,-0.427985046158541
1580423658.48787,0.620370794232091,0.180910963607232,-0.0559090562294955
1580423658.52045,-2.9094682230869,-4.1736476691844,1.8069123369192
1580423658.55303,-0.883070115205616,-0.776623178454262,-0.502204928664073
1580423658.5856,-0.259037155718319,1.99197375448234,-0.796154726482033
1580423658.61818,-2.81083390554666,0.915785458152133,-0.135500114442664
1580423658.65076,-1.21950102998398,-0.328374151216908,0.0837415121690697
1580423658.68334,-1.95828183413443,1.08229190508888,-0.419684138246739
1580423658.71592,-1.8069123369192,0.385992217898831,-0.0358892195010299
1580423658.7485,-1.82888532845045,-0.0588387884336612,0.331792172121766
1580423658.78108,-1.87185473411154,-1.09205767910277,0.961684596017395
1580423658.81365,-1.16530098420691,-1.46315709163043,1.09938200961318
1580423658.84623,0.0744640268558783,-2.04226749065385,1.12916762035553
1580423658.87881,-0.608651865415426,-1.21608300907912,1.07545586327916
1580423658.91139,-0.510017547875181,-0.70826276035706,0.496345464255739
1580423658.94397,-0.87330434119173,-0.132082093537804,0.2775921263447
1580423658.97655,-2.98954757000076,0.885023270008393,-0.151125352864881
1580423659.00912,-2.12283512626841,0.275638971541923,0.0715342946517126
1580423659.0417,-2.35330739299611,-0.0544441901274126,0.0646982528419926
1580423659.07428,-2.0378728923476,-0.273197528038454,0.0495613031204698
1580423659.10686,-1.69411764705882,0.492927443350879,-0.363042648966202
1580423659.13944,-1.03150988021668,0.608651865415428,-0.702891584649423
1580423659.17202,-0.578866254673075,0.571541924162663,-0.604257267109178
1580423659.20459,-0.307866025787748,0.601327534905014,-0.103273060196841
1580423659.23717,-0.00268558785381856,0.560799572747388,0.230716411078049
1580423659.26987,-0.384039063096056,-0.899671931029221,1.35524528877699
1580423659.30244,-0.236087586785686,-0.684824902723735,-0.629159990844586
1580423659.33502,0.851819638361182,0.378179598687723,-0.190188448920424
1580423659.3676,-6.91831845578698,-3.07646295872435,3.45293354695964
1580423659.40018,-0.582772564278629,-0.731700617990386,-1.06324864576181
1580423659.43276,-0.156984817273212,1.59938963912413,-1.09498741130693
1580423659.46534,-2.83085374227512,0.844983596551462,0.0432135500114441
1580423659.49792,-1.22877851529717,0.262943465323872,0.189211871519035
1580423659.53049,-2.10281528953994,0.936293583581293,-0.163820859082932
1580423659.56307,-1.71267261768521,0.108644235904478,-0.0187991149767299
1580423659.59565,-1.7556420233463,-0.0969253070878153,0.175051499198901
1580423659.62823,-1.8586709391928,-0.97584496833753,0.824963759822996
1580423659.66081,-1.2771190966659,-1.08229190508888,1.09303425650416
1580423659.69339,-0.142824444953078,-1.52858777752346,1.1067063401236
1580423659.72597,-0.209719996948195,-1.56569771877623,1.13307392996109
1580423659.75854,-0.310795757991913,-1.04078736552987,0.736583504997331
1580423659.79112,-0.604257267109178,-0.183352407110704,0.437262531471731
1580423659.8237,-2.94901960784314,0.813244831006333,-0.163332570382238
1580423659.85628,-1.8161898222324,0.337651636530097,0.120363164721141
1580423659.88886,-2.49246967269398,-0.108644235904478,0.140871290150301
1580423659.92144,-2.28885328450446,-0.448004882887007,0.203860532539863
1580423659.95401,-1.86013580529488,0.387945372701608,-0.348393987945373
1580423659.98659,-1.2863965819791,0.595468070496683,-0.619882505531395
1580423660.01917,-0.719981689173723,0.519783321889069,-0.620370794232089
1580423660.05175,-0.413336385137713,0.542244602121006,-0.522713054093233
1580423660.08433,0.0822766460669868,0.597909514000154,0.497810330357822
1580423660.11691,-0.296147096971085,-0.249759670405126,1.55251392385748
1580423660.14948,-0.326909285114825,-0.11108567940795,-0.00512703135728998
1580423660.18206,-0.0788586251621268,-1.36110475318532,-0.0437018387121384
1580423660.21464,-0.396734569314107,-1.3542687113756,0.416754406042571
1580423660.24722,-1.35133897917144,-0.354253452353705,0.188723582818341
1580423660.2798,0.158937972075989,1.87722590981918,-1.86404211490044
1580423660.31238,-2.62528419928283,0.865491721980622,-0.802502479591059
1580423660.34496,-1.35378042267491,-0.199465934233615,0.59742122529946
1580423660.37753,-1.70827801937896,0.997817959868772,-0.158449683375295
1580423660.41011,-1.71950865949493,0.506111238269629,-0.0456549935149155
1580423660.44269,-1.68288700694285,-0.0207522697795071,0.281498435950255
1580423660.47527,-1.49098954757,-0.556404974441138,0.430426489662011
1580423660.50785,-1.30251010910201,-1.16920729381247,0.904554818036164
1580423660.54043,-1.16578927290761,-1.08131532768749,0.960708018616007
1580423660.57312,-0.116945143816281,-2.16775768673228,1.47292286564431
1580423660.6057,-0.132570382238498,-1.36012817578393,0.985610742351415
1580423660.63828,-0.283451590753033,-0.291264209964142,0.605233844510568
1580423660.67086,-1.62868696116579,0.301029983978026,0.302006561379415
1580423660.70343,-1.38356603341726,0.538338292515451,0.0212405584802013
1580423660.73601,-2.54959945067521,-0.344975967040513,0.0925307087815668
1580423660.76859,-2.63212024109255,-0.315190356298162,0.394293125810634
1580423660.80117,-1.95877012283513,0.0710460059510183,-0.36401922636759
1580423660.83375,-1.28834973678187,0.506111238269629,-0.666269932097352
1580423660.86633,-0.748302433813992,0.681406881818877,-0.812268253604945
1580423660.8989,-0.215579461356526,0.80152590218967,-0.652109559777218
1580423660.93148,-0.00805676356145568,0.83570611123827,0.94850080109865
1580423660.96406,-0.560311284046692,-0.719981689173723,1.25612268253605
1580423660.99664,-0.0681162737468526,-0.7048447394522,-0.247318226901655
1580423661.02922,0.247318226901655,-1.4826886396582,0.710704203860534
1580423661.0618,-1.07985046158541,-1.11793698023957,0.455817502098114
1580423661.09437,-1.01832608529793,-0.467048142214084,-0.130617227435721
1580423661.12695,0.528084229800871,2.47977416647593,-1.38356603341726
1580423661.15953,-3.11601434348058,1.10280003051804,-0.346440833142596
1580423661.19211,-1.13600366216525,-0.510505836575875,0.337163347829403
1580423661.22469,-1.7644312199588,0.974868390936141,-0.178957808804455
1580423661.25727,-1.82644388494698,0.542244602121006,-0.0563973449301898
1580423661.28985,-1.73806363012131,0.255130846112763,0.150637064164187
1580423661.32242,-1.86843671320668,-0.402594033722439,0.353276874952314
1580423661.355,-1.63747615777829,-1.28200198367285,0.906019684138247
1580423661.38758,-0.927016098268101,-1.7302510109102,1.09596398870832
1580423661.42016,0.0554207675288012,-2.18094148165103,1.51345082780194
1580423661.45274,-0.537850003814755,-1.22047760738537,0.919691767757687
1580423661.48532,-0.458747234302281,-0.231204699778743,0.103273060196841
1580423661.51789,-1.32985427634089,0.155031662470435,0.222415503166246
1580423661.55047,-1.54421301594568,0.4143129625391,0.11108567940795
1580423661.58305,-2.46610208285649,0.0192874036774242,0.060303654535744
1580423661.61563,-2.43192187380789,-0.00854505226214997,0.432379644464788
1580423661.64821,-1.84304570077058,-0.00805676356145568,-0.140871290150301
1580423661.68079,-1.60378423743038,0.529549095902954,-0.441657129777981
1580423661.71337,-1.01686121919585,0.583260852979326,-0.603768978408484
1580423661.74594,-0.583749141680018,0.534920271610591,-0.43921568627451
1580423661.77852,0.128175783932249,0.85279621576257,0.256595712214846
1580423661.8111,-0.113527122911421,-0.178469520103761,0.734630350194553
1580423661.84368,-0.604745555809872,-0.503669794766155,0.470954451819637
1580423661.87552,-0.441657129777981,-1.77956816968032,-0.358648050659953
1580423661.9081,0.670176241702908,-0.43579766536965,0.740001525902191
1580423661.94067,-5.50911726558328,-0.164309147783626,1.69069962615396
1580423661.97325,0.0153810940718699,-0.889417868314641,-0.934340428778516
1580423662.00583,-1.25758754863813,2.62870222018769,-0.76392767223621
1580423662.03841,-1.54470130464637,0.000244144350347142,0.132082093537804
1580423662.07098,-1.33327229724575,0.176028076600289,0.139406424048218
1580423662.10356,-2.00857557030594,0.913832303349356,-0.217044327458609
1580423662.13614,-1.70632486457618,0.337651636530097,-0.0427252613107498
1580423662.16872,-1.85476462958724,-0.192629892423895,0.351812008850231
1580423662.20129,-1.7898222323949,-1.11158922713054,0.902113374532693
1580423662.23387,-1.20485236896315,-1.20729381246662,1.0720378423743
1580423662.26645,0.0725108720531011,-1.96804760814832,1.31325246051728
1580423662.29903,-0.441168841077287,-1.30397497520409,1.22829022659647
1580423662.3316,-0.498298619058518,-0.518318455786984,0.627206836041811
1580423662.36418,-0.907972838941024,-0.149660486762798,0.0783703364614325
1580423662.39676,-2.54764629587243,0.976333257038224,0.110109102006561
1580423662.42934,-2.49832913710231,0.0759288929579611,0.254642557412069
1580423662.46191,-2.72635996032654,-0.358648050659953,0.439703974975203
1580423662.49449,-2.13357747768368,0.208743419546806,-0.000732433051041426
1580423662.52707,-1.64138246738384,0.520271610589763,-0.547127489127947
1580423662.55965,-0.930434119172961,0.556893263141834,-0.759533073929962
1580423662.59222,-0.399664301518273,0.666758220798048,-0.768810559243153
1580423662.6248,0.210696574349583,0.957778286411841,0.512947280079349
1580423662.65738,-0.263431754024568,-0.185793850614175,0.335210193026626
1580423662.68996,-0.240482185091935,-1.36745250629435,-0.0100099183642328
1580423662.72253,0.12475776302739,-1.20534065766384,0.45532921339742
1580423662.75511,-0.549080643930724,0.23657587548638,-0.107179369802395
1580423662.78769,-1.1062180514229,-0.707774471656366,0.134035248340581
1580423662.82027,0.85621423666743,1.7990997177081,-1.37477683680476
1580423662.85284,-4.2937666895552,2.00515754940108,-0.72535286488136
1580423662.88542,-1.32594796673533,-0.656992446784161,0.141359578850995
1580423662.918,-1.85476462958724,0.801037613488976,-0.215091172655832
1580423662.95058,-1.89382772564279,0.55298695353628,-0.0910658426794839
1580423662.98315,-1.86111238269627,-0.267338063630122,0.358159761959257
1580423663.01573,-1.78884565499352,-1.31325246051728,1.01930266269932
1580423663.04831,-1.12135500114443,-1.33620202944991,1.07008468757153
1580423663.08089,-0.0954604409857325,-1.74782940413519,1.24977492942702
1580423663.11346,-0.224368657969023,-1.46071564812696,1.24831006332494
1580423663.14604,-0.491462577248798,-0.55201037613489,0.693614099336234
1580423663.1788,-0.637460898756389,-0.0173342488746471,0.0988784618905925
1580423663.21138,-3.55791561760891,1.01832608529793,-0.0529793240253298
1580423663.24396,-2.08572518501564,0.556893263141834,0.0798352025635154
1580423663.27654,-2.53055619134813,-0.133546959639887,0.0969253070878153
1580423663.30911,-2.07937743190661,-0.343999389639125,0.0969253070878153
1580423663.34169,-1.8332799267567,0.415777828641183,-0.379156176089113
1580423663.37427,-1.16676585030899,0.670176241702908,-0.77076371404593
1580423663.40685,-0.720469977874417,0.654062714579997,-0.755626764324408
1580423663.43943,-0.130617227435721,0.501228351262686,-0.256107423514154
1580423663.472,0.364507515068283,0.688242923628597,0.0642099641412983
1580423663.50458,-0.761486228732739,-0.675059128709849,1.11744869153887
1580423663.53716,-0.464606698710613,-0.55542839703975,-0.489021133745327
1580423663.56974,0.843518730449379,0.239505607690546,0.0949721522850382
1580423663.60232,-2.66776531624323,-3.88604562447547,1.49538414587625
1580423663.63489,-0.937270160982681,-1.56911573968109,-0.316655222400245
1580423663.66747,0.41089494163424,2.15506218051423,-1.11793698023957
1580423663.70005,-3.68828870069428,1.0808270389868,-0.215579461356526
1580423663.73263,-0.951430533302815,-0.365484092469673,0.162844281681544
1580423663.76521,-2.24148928053712,1.56325627527276,-0.462165255207141
1580423663.79778,-1.7815213244831,0.395757991912717,-0.00317387655451284
1580423663.83036,-1.95486381322957,-0.250736247806516,0.307377737087052
1580423663.86294,-1.86794842450599,-1.42946517128252,0.754650186923019
1580423663.89552,-1.23805600061036,-1.51393911650263,1.29958037689784
1580423663.9281,-0.167727168688486,-1.35231555657282,1.58962386511025
1580423663.96067,-0.163332570382238,-1.6194094758526,0.930434119172961
1580423663.99325,-0.635996032654306,-0.469489585717556,0.908461127641718
1580423664.02583,-0.633066300450141,0.120851453421835,0.118410009918364
1580423664.05841,-2.87724116884108,1.22926680399786,-0.494392309452964
1580423664.09099,-2.10379186694133,0.343022812237734,0.0749523155565726
1580423664.12356,-2.39822995345998,-0.239505607690546,0.25366598001068
1580423664.15614,-2.28055237659266,-0.201907377737086,0.113527122911421
1580423664.18872,-1.91482413977264,0.257572289616235,-0.461188677805753
1580423664.2213,-1.15260547798886,0.292240787365529,-0.717540245670252
1580423664.25388,-0.48364995803769,0.437262531471731,-0.649179827573052
1580423664.28645,-0.260990310521096,0.727306019684139,-0.187258716716258
1580423664.31903,-0.0261234454871442,1.54860761425193,0.450934615091171
1580423664.35161,0.164309147783626,-0.686289768825818,1.13453879606317
1580423664.38419,-0.443121995880064,-1.32692454413672,-0.508552681773098
1580423664.41677,0.389898527504386,-0.567147325856412,0.4484931715877
1580423664.44934,-5.22786297398337,-1.39528496223392,1.60769054703594
1580423664.48205,-0.524177920195315,0.241947051194018,-1.42165255207141
1580423664.51463,-0.896742198825056,1.50270847638667,-0.913832303349356
1580423664.54721,-2.02371252002747,0.651132982375831,0.12133974212253
1580423664.57979,-1.63405813687343,0.562264438849471,-0.070557717250324
1580423664.61237,-2.0119935912108,0.529549095902954,-0.172121766994735
1580423664.64494,-1.89675745784695,-0.156984817273212,0.25366598001068
1580423664.67752,-1.85085831998169,-0.516853589684901,0.495857175555045
1580423664.7101,-1.46462195773251,-1.31422903791867,1.08375677119097
1580423664.74268,-0.52808422980087,-1.03297474631876,0.94850080109865
1580423664.77526,-0.468024719615473,-0.73560692759594,1.15504692149233
1580423664.80783,-0.316655222400245,-1.33229571984436,1.23317311360342
1580423664.84041,-0.118410009918364,-1.33620202944991,0.502693217364769
1580423664.87299,-1.22682536049439,-0.420172426947433,0.0749523155565726
1580423664.90557,-3.01884489204242,1.47975890745403,-0.164797436484321
1580423664.93815,-2.29129472800794,0.27075608453498,0.0246585793850613
1580423664.97072,-2.439734493019,0.118410009918364,0.271732661936369
1580423665.0033,-1.92605477988861,-0.167238879987792,-0.119386587319752
1580423665.03588,-1.41091020065614,0.593514915693905,-0.548104066529335
1580423665.06846,-0.872327763790341,0.789318684672313,-0.891371023117419
1580423665.10104,-0.351812008850233,0.903089951934081,-0.832776379034105
1580423665.13362,0.0578622110322726,0.868421454184787,0.930434119172961
1580423665.16619,-0.300053406576639,-0.638437476157778,1.41969939726863
1580423665.19877,-0.673105973907072,-0.978286411841001,-0.550545510032807
1580423665.23135,0.531013962005037,-0.523689631494621,0.60767528801404
1580423665.26393,-0.47681391622797,0.421637293049514,-0.0476081483176927
1580423665.2965,-1.62868696116579,-0.573006790264744,0.293705653467612
1580423665.32908,0.131105516136415,1.65261310749981,-1.36061646448463
1580423665.36166,-3.13554589150835,1.51882200350958,-1.01002517738613
1580423665.39424,-1.46169222552834,-0.464118410009918,0.278080415045395
1580423665.42682,-1.67409781033036,1.08229190508888,-0.245853360799572
1580423665.45939,-1.91970702677958,0.477302204928662,-0.182375829709315
1580423665.49197,-1.91433585107195,-0.0734874494544897,0.111573968108644
1580423665.52455,-1.88015564202335,-0.759533073929962,0.601327534905014
1580423665.55713,-1.49196612497139,-1.24245059891661,1.2600289921416
1580423665.58971,-0.46314183260853,-1.41042191195544,1.24245059891661
1580423665.62228,-0.105226214999618,-1.64382391088731,1.20094605935759
1580423665.65486,-0.678477149614709,-1.09596398870832,0.915297169451438
1580423665.68744,-0.529060807202258,-0.369390402075227,0.319584954604409
1580423665.72002,-2.81132219424735,0.943617914091707,-0.0676279850461583
1580423665.7526,-1.68825818265049,0.230228122377355,-0.0129396505683985
1580423665.78531,-2.52860303654536,-0.147707331960021,0.0324711985961699
1580423665.81789,-2.35233081559472,-0.263431754024568,0.158449683375295
1580423665.85046,-1.80788891432059,0.329350728618294,-0.450934615091173
1580423665.88304,-1.16774242771038,0.548592355230031,-0.72535286488136
1580423665.91562,-0.651132982375829,0.709727626459145,-0.798596169985505
1580423665.9482,-0.234622720683603,0.918715190356298,-0.536873426413367
1580423665.98078,0.0520027466239412,0.373785000381474,0.760997940032045
1580423666.01335,-0.434821087968261,-0.748302433813992,1.39919127183947
1580423666.04593,-0.197024490730143,-0.482673380636301,-0.331792172121768
1580423666.07851,0.117433432516975,-0.509040970473793,-0.228763256275272
1580423666.11109,-2.94706645304036,-2.10769817654688,1.7136491950866
1580423666.14367,-0.729747463187609,0.43823910887312,-1.0891279468986
1580423666.17624,-1.28786144808118,1.94216830701152,-0.819592584115359
1580423666.20882,-1.84011596856642,0.0954604409857325,-0.0163576714732585
1580423666.2414,-1.41725795376516,0.143801022354467,-0.0749523155565726
1580423666.27398,-2.20389105058366,1.10133516441596,-0.188235294117646
1580423666.30656,-1.99978637369345,0.384039063096054,0.177981231403066
1580423666.33913,-1.89822232394904,-0.608651865415426,0.632089723048754
1580423666.37171,-1.35671015487907,-1.53591210803387,1.01197833218891
1580423666.40429,-0.805432211795225,-1.39333180743114,0.703868162050814
1580423666.43687,-0.070557717250324,-1.86355382619974,1.60280766002899
1580423666.46945,-0.508064393072404,-1.11598382543679,0.80836194399939
1580423666.50202,-0.333745326924545,-0.283451590753033,0.235111009384298
1580423666.5346,-1.11696040283818,-0.0393072404058898,-0.209231708247501
1580423666.56718,-2.37430380712596,0.362554360265506,0.195071335927366
1580423666.59976,-2.52860303654536,0.200930800335698,0.171633478294041
1580423666.63234,-2.32303349355306,0.32544441901274,0.0383306630045013
1580423666.66491,-1.84011596856642,0.0227054245822842,-0.0974135957885096
1580423666.69749,-1.36403448538949,0.593026626993211,-0.532967116807813
1580423666.73007,-0.877210650797284,0.868909742885482,-0.779064621957733
1580423666.76265,-0.386968795300222,1.04176394293126,-0.707286182955672
1580423666.79523,-0.0988784618905925,0.760021362630656,0.667734798199437
1580423666.8278,-0.2434119172961,-0.80836194399939,1.23121995880064
1580423666.86038,-0.475349050125887,-1.2942092011902,-0.651132982375829
1580423666.89296,0.491462577248797,-1.07985046158541,0.641367208361945
1580423666.92554,-0.585214007782101,0.612558175020983,-0.11792172121767
1580423666.95812,-1.07838559548333,-0.413336385137713,0.453376058594642
1580423666.99069,-0.160891126878766,1.45485618371862,-1.0642252231632
1580423667.02327,-2.58329137102312,1.39626153963531,-0.651621271076523
1580423667.05585,-1.45241474021515,-0.279545281147479,0.178469520103761
1580423667.08862,-2.04080262455177,1.46364538033112,-0.280033569848174
1580423667.1212,-1.89724574654765,0.449958037689782,0.115480277714198
1580423667.15378,-1.74489967193103,-0.351323720149539,0.3459525444419
1580423667.18636,-1.50026703288319,-1.31227588311589,0.806408789196613
1580423667.21894,-1.13698023956664,-1.40749217975128,0.807873655298696
1580423667.25151,-0.00561532005798426,-2.00320439459831,1.28346684977493
1580423667.28409,-0.328862439917602,-1.31764705882353,1.35182726787213
1580423667.31667,-0.580331120775158,-0.223392080567635,0.415289539940488
1580423667.34925,-0.799084458686199,-0.0495613031204698,-0.0607919432364383
1580423667.38183,-2.87382314793622,0.79810788128481,0.00317387655451284
1580423667.41441,-2.15457389181353,-0.39819943541619,0.127687495231555
1580423667.44699,-2.64725719081407,0.115968566414892,0.120363164721141
1580423667.47956,-2.20242618448157,0.00415045395590141,-0.063721675440604
1580423667.51214,-1.63015182726787,0.554451819638363,-0.495857175555047
1580423667.54472,-0.982192721446555,0.917250324254216,-0.844495307850767
1580423667.5773,-0.516853589684901,0.967544060425727,-0.73218890669108
