Timestamp_seconds,Accel_X_g,Accel_Y_g,Accel_Z_g
1580423613.20142,-0.901625085831999,-0.304936293583582,0.312748912794689
1580423613.2335,-0.899183642328527,-0.289799343862059,0.335210193026626
1580423613.26559,-0.891859311818113,-0.295170519569696,0.318120088502326
1580423613.29767,-0.905043106736859,-0.301029983978028,0.312748912794689
1580423613.32975,-0.910414282444496,-0.299565117875945,0.321049820706492
1580423613.36184,-0.90406652933547,-0.297123674372473,0.31519035629816
1580423613.39392,-0.899183642328527,-0.299076829175251,0.330815594720377
1580423613.426,-0.903578240634776,-0.294193942168308,0.317143511100937
1580423613.45809,-0.896742198825056,-0.298588540474556,0.32544441901274
1580423613.49017,-0.906507972838941,-0.296635385671779,0.3117723353933
1580423613.52225,-0.899183642328527,-0.298100251773862,0.314213778896772
1580423613.55434,-0.906507972838941,-0.296635385671779,0.317143511100937
1580423613.58642,-0.888929579613947,-0.302494850080111,0.306889448386357
1580423613.61851,-0.901625085831999,-0.294682230869002,0.310795757991912
1580423613.65059,-0.909437705043107,-0.301029983978028,0.320073243305103
1580423613.68267,-0.895765621423667,-0.304448004882888,0.311284046692606
1580423613.71476,-0.903089951934081,-0.300053406576639,0.334721904325932
1580423613.74684,-0.916762035553521,-0.301029983978028,0.321049820706492
1580423613.77892,-0.896253910124361,-0.303959716182193,0.344975967040511
1580423613.81101,-0.89723048752575,-0.297611963073168,0.323491264209963
1580423613.84309,-0.889906157015336,-0.288334477759976,0.335210193026626
1580423613.87517,-0.896253910124361,-0.289799343862059,0.343511100938429
1580423613.90726,-0.895277332722973,-0.282963302052339,0.35278858625162
1580423613.93934,-0.902113374532693,-0.301518272678722,0.332768749523154
1580423613.97142,-0.890882734416724,-0.303959716182193,0.333745326924543
1580423614.00351,-0.908461127641718,-0.295658808270391,0.311284046692606
1580423614.03559,-0.906507972838941,-0.290775921263448,0.309819180590523
1580423614.06767,-0.905043106736859,-0.295170519569696,0.336186770428014
1580423614.09976,-0.906019684138247,-0.296147096971085,0.33228046082246
1580423614.13184,-0.915785458152133,-0.280033569848174,0.338139925230792
1580423614.16397,-0.899671931029221,-0.289799343862059,0.337163347829403
1580423614.19605,-0.886488136110476,-0.274174105439842,0.346929121843289
1580423614.22814,-0.905531395437553,-0.281010147249562,0.352300297550926
1580423614.26022,-0.89381246662089,-0.285893034256505,0.353276874952314
1580423614.2923,-0.899183642328527,-0.278568703746091,0.35620660715648
1580423614.32439,-0.888929579613947,-0.298100251773862,0.348393987945371
1580423614.35647,-0.902113374532693,-0.287846189059282,0.346440833142594
1580423614.38855,-0.899183642328527,-0.289799343862059,0.350347142748149
1580423614.42064,-0.904554818036164,-0.297611963073168,0.341069657434957
1580423614.45272,-0.909437705043107,-0.303471427481499,0.348393987945371
1580423614.48481,-0.900160219729916,-0.302983138780805,0.33911650263218
1580423614.51689,-0.894300755321584,-0.298100251773862,0.340093080033569
1580423614.54897,-0.896253910124361,-0.284428168154422,0.340093080033569
1580423614.58106,-0.900160219729916,-0.294193942168308,0.343022812237734
1580423614.61314,-0.89723048752575,-0.277592126344702,0.33911650263218
1580423614.64522,-0.911390859845884,-0.288334477759976,0.3288624399176
1580423614.67731,-0.893324177920196,-0.279545281147479,0.332768749523154
1580423614.70939,-0.914808880750744,-0.279056992446785,0.385503929198137
1580423614.74147,-0.897718776226444,-0.262455176623179,0.411383230334934
1580423614.77356,-0.89039444571603,-0.285404745555811,0.366948958571754
1580423614.80564,-0.902113374532693,-0.269291218432899,0.338628213931486
1580423614.83772,-0.91432059205005,-0.316655222400245,0.31519035629816
1580423614.86981,-0.902601663233387,-0.301518272678722,0.275638971541923
1580423614.90189,-0.920668345159076,-0.311284046692608,0.252201113908598
1580423614.93397,-0.905043106736859,-0.321049820706493,0.240482185091935
1580423614.96606,-0.916273746852827,-0.33667505912871,0.259037155718318
1580423614.99814,-0.907972838941024,-0.314213778896773,0.256107423514152
1580423615.03023,-0.913832303349356,-0.314213778896773,0.266849774929426
1580423615.06231,-0.912367437247273,-0.307377737087053,0.278568703746089
1580423615.09439,-0.90748455024033,-0.302983138780805,0.280033569848172
1580423615.12648,-0.906019684138247,-0.318608377203022,0.307377737087052
1580423615.15856,-0.91432059205005,-0.303959716182193,0.289311055161363
1580423615.19064,-0.896742198825056,-0.308354314488442,0.292240787365529
1580423615.22273,-0.919691767757687,-0.313237201495385,0.277103837644006
1580423615.25481,-0.916762035553521,-0.299565117875945,0.296147096971083
1580423615.28689,-0.913344014648661,-0.321538109407188,0.278080415045395
1580423615.31898,-0.90406652933547,-0.316166933699551,0.268314641031509
1580423615.35106,-0.923598077363241,-0.321049820706493,0.263431754024566
1580423615.38314,-0.913344014648661,-0.306889448386359,0.249271381704432
1580423615.41523,-0.911390859845884,-0.315678644998856,0.25024795910582
1580423615.44745,-0.916273746852827,-0.314702067597468,0.260013733119706
1580423615.47953,-0.916273746852827,-0.324467841611353,0.29126420996414
1580423615.51162,-0.899183642328527,-0.314702067597468,0.282475013351643
1580423615.5437,-0.90064850843061,-0.328862439917602,0.29810025177386
1580423615.57578,-0.879652094300756,-0.278080415045396,0.366948958571754
1580423615.60787,-0.870862897688259,-0.310795757991913,0.46216525520714
1580423615.63995,-0.937270160982681,-0.284916456855116,0.35278858625162
1580423615.67204,-0.896742198825056,-0.359136339360647,0.0495613031204698
1580423615.70412,-0.953871976806287,-0.655039291981383,-0.386480506599527
1580423615.7362,-0.707774471656366,-0.703868162050812,-0.326909285114825
1580423615.76829,-0.969985503929198,-0.191653315022506,-0.135011825741969
1580423615.80037,-1.08766308079652,-0.172610055695429,0.0109864957656214
1580423615.83246,-1.02760357061112,-0.0695811398489354,-0.0656748302433812
1580423615.86454,-0.891859311818113,-0.031006332494087,-0.318120088502328
1580423615.89662,-0.946059357595178,-0.207766842145418,-0.253177691309988
1580423615.92871,-0.986587319752804,-0.236087586785686,-0.107179369802395
1580423615.96079,-1.03346303501946,-0.306401159685665,0.0129396505683985
1580423615.99288,-0.969497215228504,-0.238040741588463,-0.0148928053711757
1580423616.02496,-0.935805294880598,-0.212161440451666,-0.0441901274128327
1580423616.05704,-1.04371709773404,-0.339116502632182,-0.00415045395590141
1580423616.08913,-0.93824673838407,-0.384039063096056,-0.0466315709163041
1580423616.12121,-0.94508278019379,-0.354741741054399,-0.00317387655451284
1580423616.1533,-0.945571068894484,-0.325932707713436,0.0749523155565726
1580423616.18538,-0.940199893186847,-0.290287632562753,0.0559090562294955
1580423616.21746,-0.955825131609064,-0.278080415045396,0.0529793240253298
1580423616.24955,-0.924086366063936,-0.330327306019685,0.0202639810788128
1580423616.28163,-0.953871976806287,-0.349370565346762,0.0163576714732585
1580423616.31372,-0.937758449683376,-0.299565117875945,0.0817883573662925
1580423616.3458,-0.974380102235447,-0.242923628595406,0.0383306630045013
1580423616.37788,-0.969985503929198,-0.261966887922485,0.0607919432364383
1580423616.40997,-1.04176394293126,-0.208743419546806,0.149660486762798
1580423616.44205,-1.23268482490272,-0.0559090562294955,-0.108155947203784
1580423616.47414,-1.29665064469368,-0.11450370031281,-0.171633478294041
1580423616.50622,-1.44460212100404,0.23315785458152,0.172610055695429
1580423616.5383,-1.09987029831388,-0.0393072404058898,0.313237201495383
1580423616.57039,-0.976333257038224,-0.262455176623179,-0.067139696345464
1580423616.60247,-0.957778286411841,0.0192874036774242,-0.170656900892652
1580423616.63456,-0.957778286411841,0.537361715114063,-0.0139162279697871
1580423616.66664,-1.07301441977569,-0.0661631189440754,-0.00512703135728998
1580423616.69872,-0.903578240634776,-0.380621042191196,0.144289311055161
1580423616.73093,-0.939711604486153,-0.380621042191196,0.276127260242617
1580423616.76301,-0.849866483558404,-0.273685816739148,0.328374151216906
1580423616.79509,-0.871351186388953,-0.311284046692608,0.379156176089111
1580423616.82718,-0.91090257114519,-0.368413824673839,0.487556267643242
1580423616.85926,-0.792248416876479,-0.312260624093996,0.4314030670634
1580423616.89135,-0.775158312352179,-0.267826352330816,0.37671473258564
1580423616.92343,-0.72877088578622,-0.195071335927366,0.341557946135651
1580423616.95552,-0.793224994277868,-0.154543373769741,0.199954222934309
1580423616.9876,-1.39333180743114,0.0832532234683754,-0.0437018387121384
1580423617.01969,-1.55202563515679,0.274662394140535,-0.0891126878767068
1580423617.05177,-1.21120012207217,-0.0563973449301898,-0.101808194094758
1580423617.08385,-1.20387579156176,-0.0896009765774011,-0.166750591287098
1580423617.11594,-1.00318913557641,0.0422369726100555,0.037842374303807
1580423617.14802,-1.06276035706111,0.0466315709163041,-0.0974135957885096
1580423617.18011,-0.933363851377127,-0.0813000686655982,-0.301518272678722
1580423617.21219,-0.85279621576257,-0.113038834210727,-0.568612191958495
1580423617.24428,-0.628183413443198,-0.0451667048142212,-0.600839246204318
1580423617.27636,-0.572518501564049,-0.223392080567635,-0.567635614557107
1580423617.30845,-0.512947280079347,-0.222903791866941,-0.530525673304341
1580423617.34053,-0.417730983443962,-0.202883955138475,-0.577401388570992
1580423617.37261,-2.54764629587243,1.5080796520943,1.4997787441825
1580423617.4047,-1.10524147402151,-1.89675745784695,-0.10424963759823
1580423617.43678,0.0573739223315783,0.997817959868772,-1.51784542610819
1580423617.46887,-1.50514991989014,-0.266361486228734,-1.29518577859159
1580423617.50095,-1.23512626840619,0.509040970473794,-0.946547646295873
1580423617.53304,-2.00418097199969,0.261966887922483,-0.604745555809872
1580423617.56512,-1.86550698100252,-0.10083161669337,-0.0588387884336612
1580423617.59721,-1.57009231708247,0.184817273212786,0.455817502098114
1580423617.62929,-1.14625772487983,-0.114991989013504,1.13600366216525
1580423617.66138,-0.903578240634776,0.0187991149767299,1.61403830014496
1580423617.69346,-1.15065232318608,0.205325398641946,0.874769207293813
1580423617.72554,-1.13112077515831,0.00219729915312428,0.0402838178072784
1580423617.75763,-1.35963988708324,0.027588311589227,-0.180422674906538
1580423617.78971,-1.58815899900816,-0.00708018616006711,-0.355230029755093
1580423617.8218,-1.22536049439231,-0.160402838178072,-0.724376287479972
1580423617.85388,-1.16774242771038,-0.131105516136415,-1.03492790112154
1580423617.88597,-0.760997940032045,-0.212649729152361,-1.13990997177081
1580423617.91805,-0.271244373235676,-0.289799343862059,-1.26247043564508
1580423617.95014,-0.529060807202258,-0.42896162355993,-1.05836575875486
1580423617.98222,-0.596932936598764,-0.358159761959259,-0.913832303349356
1580423618.01434,-0.575448233768215,-0.158937972075989,-0.926527809567407
1580423618.04643,-0.755138475623713,0.174563210498206,-1.33034256504158
1580423618.07851,-0.755138475623713,-0.230716411078049,-1.29909208819715
1580423618.1106,0.10424963759823,-0.444586861982147,-1.12233157854581
1580423618.14268,0.134523537041275,-0.607186999313344,-1.34157320515755
1580423618.17476,-1.3454795147631,0.310795757991912,2.20096131837949
1580423618.20685,-1.01100175478752,-0.0197756923781185,-0.74244296940566
1580423618.23893,0.146730754558632,-1.31081101701381,-2.03933775844968
1580423618.27102,-1.08278019378958,0.112062256809338,-1.11354238193332
1580423618.3031,-0.82887006942855,0.399664301518271,-1.22243076218814
1580423618.33519,-1.4826886396582,-0.152590218966964,-1.24977492942702
1580423618.36727,-1.30690470740826,0.0124513618677042,-1.18971541924163
1580423618.39936,-1.75710688944839,0.436285954070343,-0.879652094300756
1580423618.43144,-2.03933775844968,0.171633478294041,-0.146242465857938
1580423618.46352,-1.92898451209278,0.177004654001678,0.878675516899367
1580423618.49561,-1.09645227740902,0.0798352025635154,1.72390325780118
1580423618.52769,-0.924086366063936,0.5769130998703,1.71462577248798
1580423618.55978,-1.06080720225834,0.203860532539863,0.336186770428014
1580423618.59186,-1.09547570000763,0.0354009308003356,-0.00317387655451284
1580423618.62395,-1.87331960021363,0.0554207675288012,-0.356694895857176
1580423618.65603,-1.32497138933394,0.0222171358815899,-0.423590447852293
1580423618.68812,-1.27809567406729,0.00854505226214997,-0.994888227664607
1580423618.7202,-0.807385366598002,-0.340581368734265,-1.1833676661326
1580423618.75229,-0.204348821240558,-0.465583276112001,-1.17946135652705
1580423618.78437,-0.438727397573816,-0.406500343327993,-1.27565423056382
1580423618.81645,-0.672617685206378,-0.479255359731441,-1.09742885481041
1580423618.84854,-0.647226672770275,-0.280033569848174,-1.44753185320821
1580423618.88062,-1.05738918135348,-0.194094758525978,-1.20680552376593
1580423618.91271,-0.113038834210727,-0.365484092469673,-1.07594415197986
1580423618.94479,0.141847867551689,-0.33667505912871,-0.987563897154192
1580423618.97688,-0.555916685740444,0.390875104905774,0.625741969939728
1580423619.00896,-2.46903181506065,0.97242694743267,-0.213138017853055
1580423619.04105,-0.54859235523003,-1.06129549095903,-1.29323262378882
1580423619.07313,-0.285893034256505,0.426031891355763,-1.28297856107424
1580423619.10521,-1.70290684367132,-0.23999389639124,-1.26588845654994
1580423619.1373,-1.32448310063325,0.191653315022506,-1.20631723506523
1580423619.16938,-1.19508659494926,0.254154268711375,-1.30690470740826
1580423619.20147,-1.54421301594568,0.228763256275272,-0.874769207293813
1580423619.23355,-1.94802777141985,0.152590218966964,-0.316166933699551
1580423619.26564,-1.83767452506294,0.154055085069047,0.370366979476614
1580423619.29779,-1.21510643167773,-0.0822766460669868,1.21510643167773
1580423619.32987,-0.585214007782101,0.197024490730143,2.0119935912108
1580423619.36196,-0.840588998245213,0.326909285114823,1.42897688258182
1580423619.39404,-1.08278019378958,0.171145189593346,0.299076829175249
1580423619.42613,-1.67360952162966,0.276615548943312,-0.404547188525216
1580423619.45821,-1.72878614480812,-0.112062256809338,-0.261966887922485
1580423619.4903,-1.31569390402075,0.0505378805218584,-0.855237659266042
1580423619.52238,-0.963637750820173,0.135011825741969,-1.01588464179446
1580423619.55447,-0.615487907225146,-0.268314641031511,-1.23610284580758
1580423619.58655,-0.347417410543985,-0.497810330357824,-1.17994964522774
1580423619.61863,-0.533455405508507,-0.262455176623179,-1.12281986724651
1580423619.65072,-0.703379873350118,-0.0334477759975584,-0.906996261539636
1580423619.6828,-0.635019455252918,-0.150148775463492,-1.48708323796445
1580423619.71489,-0.913344014648661,-0.50415808346685,-1.11403067063401
1580423619.74697,0.0593270771343555,-0.121828030823224,-1.1579766536965
1580423619.77906,0.121828030823224,-0.314702067597468,-1.03443961242084
1580423619.81114,-0.676035706111238,0.0710460059510183,0.900160219729916
1580423619.84323,-2.59696345464256,0.344487678339817,-0.916273746852827
1580423619.87531,-0.267826352330816,-1.10133516441596,-1.81472495613031
1580423619.90739,-1.04225223163195,0.313237201495383,-1.33962005035477
1580423619.93948,-0.966567483024338,0.185793850614175,-1.26784161135271
1580423619.97156,-1.19899290455482,0.155031662470435,-1.2688181887541
1580423620.00365,-1.20143434805829,0.244876783398183,-1.14723430228122
1580423620.03573,-1.53688868543526,0.0925307087815668,-0.935805294880598
1580423620.06782,-1.78493934538796,-0.0271000228885327,-0.635996032654306
1580423620.0999,-1.98855573357748,0.155031662470435,0.215579461356526
1580423620.13199,-1.36745250629435,0.0490730144197755,0.990493629358358
1580423620.16407,-0.731212329289692,0.547127489127949,1.69021133745327
1580423620.19615,-0.6877546349279,0.25366598001068,1.79275196459907
1580423620.22824,-0.901625085831999,-0.000732433051041426,0.0227054245822842
1580423620.26032,-1.45339131761654,0.23999389639124,-0.272220950637065
1580423620.29241,-1.80056458381018,-0.073975738155184,-0.206790264744029
1580423620.32449,-1.42653543907836,0.0847180895704582,-0.677988860914015
1580423620.35658,-1.15504692149233,0.0627450980392155,-0.799572747386893
1580423620.38866,-0.720469977874417,-0.226810101472495,-1.16774242771038
1580423620.42075,-0.207766842145418,-0.354253452353705,-1.16041809719997
1580423620.45283,-0.420172426947433,-0.160891126878766,-0.972915236133364
1580423620.48492,-0.670176241702906,-0.223392080567635,-0.95533684290837
1580423620.517,-0.952895399404898,-0.0148928053711757,-1.50368505378805
1580423620.54908,-0.740489814602883,-0.40503547722591,-1.24147402151522
1580423620.58127,0.176028076600289,-0.407965209430076,-1.30592813000687
1580423620.61335,0.162844281681544,-0.211184863050278,-1.11403067063401
1580423620.64544,-0.758068207827879,0.216067750057221,1.30055695429923
1580423620.67752,-2.47489127946899,0.121828030823224,-0.707774471656366
1580423620.70961,-0.333745326924545,-1.01539635309377,-2.19510185397116
1580423620.74169,-0.95875486381323,0.63501945525292,-1.64724193179217
1580423620.77377,-1.07692072938125,-0.048096437018387,-1.27077134355688
1580423620.80586,-1.40407415884642,0.218020904859998,-1.19801632715343
1580423620.83794,-1.26393530174716,0.136476691844052,-1.27809567406729
1580423620.87003,-1.66286717021439,-0.0920424200808725,-0.943617914091707
1580423620.90211,-1.91628900587472,0.027588311589227,-0.243900205996795
1580423620.9342,-1.87038986800946,0.344487678339817,1.04469367513542
1580423620.96628,-0.951430533302815,0.698008697642482,1.95925841153582
1580423620.99837,-0.389898527504387,0.514900434882126,1.81521324483101
1580423621.03045,-0.766857404440376,0.224856946669718,0.654062714579997
1580423621.06254,-1.06959639887083,0.142336156252384,-0.103761348897535
1580423621.09462,-1.37770656900893,-0.0314946211947813,-0.327397573815519
1580423621.1267,-1.59938963912413,0.0744640268558783,-0.426520180056459
1580423621.15879,-1.36061646448463,0.341557946135651,-0.726817730983443
1580423621.19087,-0.881116960402839,0.0300297550926985,-1.07496757457847
1580423621.22296,-0.716563668268863,-0.220950637064163,-1.21412985427634
1580423621.25504,-0.577401388570992,-0.413824673838407,-1.13746852826734
1580423621.28713,-0.723399710078583,-0.669199664301518,-0.983169298847944
1580423621.31921,-0.780041199359122,-0.515877012283513,-0.981216144045167
1580423621.35129,-0.589120317387655,0.121828030823224,-1.29225604638743
1580423621.38338,-0.612069886320286,-0.330815594720379,-1.35866330968185
1580423621.41546,-0.161867704280155,-0.575936522468909,-1.03492790112154
1580423621.44755,0.0871595330739297,-0.211673151750972,-1.03395132372015
1580423621.47963,-0.659433890287632,0.170656900892652,1.30934615091173
1580423621.51172,-1.70632486457618,-0.080811779964904,-0.133058670939192
1580423621.5438,-0.438239108873121,-0.280033569848174,-1.26979476615549
1580423621.57589,-1.04908827344167,-0.0354009308003356,-1.26686503395132
1580423621.60797,-1.01002517738613,0.0759288929579611,-1.33473716334783
1580423621.64005,-1.35866330968185,0.349858854047454,-1.24782177462425
1580423621.67214,-1.43776607919432,0.137941557946135,-1.01197833218891
1580423621.70422,-1.61306172274357,-0.0632333867399097,-0.626230258640421
1580423621.73631,-1.93728542000458,0.403082322423131,0.109132524605172
1580423621.76839,-1.31471732661936,0.202883955138475,0.755626764324408
1580423621.80048,-0.803967345693142,0.138918135347524,1.55739681086443
1580423621.83256,-0.901136797131304,0.239505607690546,1.58376440070192
1580423621.86471,-0.847913328755627,0.165774013885709,0.681895170519571
1580423621.8968,-1.09742885481041,0.0769054703593497,-0.152101930266269
1580423621.92888,-1.68142214084077,0.0969253070878153,-0.402105745021744
1580423621.96097,-1.41042191195544,-0.0563973449301898,-0.392828259708553
1580423621.99305,-1.17262531471733,0.143801022354467,-0.733653772793163
1580423622.02514,-0.937270160982681,-0.041260395208667,-0.989028763256275
1580423622.05722,-0.562752727550164,-0.396734569314107,-1.05152971694514
1580423622.08931,-0.53833829251545,-0.283451590753033,-0.911390859845884
1580423622.12139,-0.738048371099412,-0.162355992980849,-1.09303425650416
1580423622.15348,-0.91773861295491,0.110109102006561,-0.988540474555581
1580423622.18556,-0.926527809567407,-0.318120088502328,-1.27516594186313
1580423622.21765,-0.430426489662013,-0.592050049591821,-1.09889372091249
1580423622.24973,0.0153810940718699,-0.649668116273746,-1.24879835202563
1580423622.28182,-0.139406424048218,0.215091172655832,-0.180422674906538
1580423622.3139,-2.78934920271611,0.831311512932022,0.179934386205844
1580423622.34599,-0.131105516136415,-0.539314869916838,-1.82888532845045
1580423622.37807,-0.994399938963912,0.10766765850309,-1.15651178759441
1580423622.41016,-1.30202182040131,0.139894712748912,-1.21803616388189
1580423622.44224,-1.06276035706111,0.156984817273212,-1.31325246051728
1580423622.47433,-1.48903639276722,0.143801022354467,-1.25319295033188
1580423622.50641,-1.77907988097963,0.350347142748149,-0.771252002746625
1580423622.5385,-1.95828183413443,0.196047913328755,-0.0852063782711525
1580423622.57058,-1.62526894026093,0.00903334096284425,0.856702525368124
1580423622.60267,-0.952407110704204,0.245853360799572,1.96023498893721
1580423622.63475,-0.85279621576257,0.657969024185551,1.57546349279011
1580423622.66684,-1.02223239490349,0.0778820477607383,0.45532921339742
1580423622.69892,-1.09547570000763,0.0949721522850382,-0.01196307316701
1580423622.73101,-2.27078660257878,0.0891126878767068,-0.262943465323874
1580423622.76309,-1.33913176165408,0.0222171358815899,-0.537361715114061
1580423622.79518,-1.26832990005341,0.0422369726100555,-1.10182345311665
1580423622.82726,-0.744396124208437,-0.34351110093843,-1.31325246051728
1580423622.85935,-0.236087586785686,-0.520759899290455,-1.2346379797055
1580423622.89143,-0.593514915693904,-0.522713054093233,-1.07887388418402
1580423622.92352,-0.54175631342031,-0.328862439917602,-1.16237125200275
1580423622.9556,-0.793224994277868,-0.230228122377355,-1.27516594186313
1580423622.98769,-0.885511558709087,-0.150148775463492,-1.32399481193256
1580423623.01977,-0.322026398107882,-0.365484092469673,-1.0720378423743
1580423623.05186,0.0393072404058898,-0.287846189059282,-0.979751277943084
1580423623.08394,-0.410894941634242,-0.0114747844663157,0.734142061493859
1580423623.11603,-2.17166399633783,0.477790493629357,-0.314702067597468
1580423623.14819,-0.589120317387655,-0.210208285648889,-1.31374074921798
1580423623.18028,-0.827893492027162,0.25708400091554,-1.32350652323186
1580423623.21236,-1.06764324406805,-0.149660486762798,-1.13942168307011
1580423623.24445,-1.19850461585412,0.104737926298924,-1.19264515144579
1580423623.27653,-1.25758754863813,0.216556038757915,-1.28395513847562
1580423623.30862,-1.5080796520943,0.148195620660715,-0.962661173418784
1580423623.3407,-1.99295033188373,0.341557946135651,-0.453864347295339
1580423623.37279,-1.91335927367056,0.136964980544747,0.378179598687723
1580423623.40487,-1.11061264972915,0.103761348897535,1.74587624933242
1580423623.43696,-0.68091859311818,0.3459525444419,1.9011520561532
1580423623.46904,-1.05885404745556,0.348882276646066,0.98609903105211
1580423623.50113,-1.02272068360418,0.123292896925307,-0.252689402609294
1580423623.53321,-1.51931029221027,0.183840695811398,-0.32983901731899
1580423623.5653,-1.40407415884642,0.129152361333638,-0.341069657434959
1580423623.59738,-1.19557488364996,0.0339360646982527,-0.844495307850767
1580423623.62947,-1.00025940337224,-0.212161440451666,-0.94508278019379
1580423623.66155,-0.597421225299458,-0.135988403143358,-1.09010452429999
1580423623.69364,-0.385503929198139,-0.385015640497445,-0.994399938963912
1580423623.72572,-0.601327534905012,-0.696055542839703,-1.05494773785
1580423623.75781,-0.881116960402839,-0.714122224765392,-0.913832303349356
1580423623.78989,-0.743419546807049,0.0695811398489354,-1.47194628824292
1580423623.82198,-1.00172426947433,-0.200442511635003,-1.07350270847639
1580423623.85406,0.185793850614175,-0.475349050125887,-1.21461814297703
1580423623.88615,0.0261234454871442,-0.261966887922485,-1.05445944914931
1580423623.91823,-1.17311360341802,0.387457084000914,1.71804379339284
1580423623.95032,-1.50563820859083,-0.112550545510032,-1.04811169604028
1580423623.9824,-0.551522087434195,-1.11891355764095,-2.06814679179065
1580423624.01449,-0.759533073929962,0.810315098802167,-1.21364156557565
1580423624.04657,-1.06324864576181,0.112062256809338,-0.98609903105211
1580423624.07866,-1.29762722209506,-0.0959487296864268,-1.14137483787289
1580423624.11074,-1.18825055313954,0.173586633096818,-1.23121995880064
1580423624.14283,-1.56374456397345,0.218509193560692,-0.984145876249332
1580423624.17491,-2.1233234149691,0.460700389105057,-0.31958495460441
1580423624.207,-1.77029068436713,0.114991989013504,0.637460898756391
1580423624.23908,-1.06178377965972,-0.0832532234683754,1.47145799954223
1580423624.27117,-0.662363622491798,0.268314641031509,1.6701915007248
1580423624.30325,-0.929945830472267,0.241947051194018,1.19069199664301
1580423624.33534,-0.871839475089647,0.0520027466239412,0.240482185091935
1580423624.36742,-1.50368505378805,0.251224536507209,-0.472907606622416
1580423624.39951,-1.56423285267414,-0.120363164721141,-0.379156176089113
1580423624.43167,-1.1750667582208,0.0539559014267184,-0.812268253604945
1580423624.46376,-1.01002517738613,-0.0700694285496297,-0.879652094300756
1580423624.49584,-0.768810559243153,-0.199954222934309,-1.01100175478752
1580423624.52793,-0.560311284046692,-0.385992217898833,-0.988052185854887
1580423624.56001,-0.689219501029983,-0.427496757457847,-0.884046692607004
1580423624.5921,-0.867444876783399,-0.343999389639125,-1.09205767910277
1580423624.62418,-0.97926298924239,-0.143801022354467,-1.19850461585412
1580423624.65627,-0.429938200961319,-0.252689402609294,-1.27370107576104
1580423624.68835,-0.313237201495385,-0.766857404440376,-1.18629739833677
1580423624.72044,-0.0627450980392155,-0.0983901731898982,-0.922133211261158
1580423624.75252,-0.514900434882124,0.723887998779279,1.15407034409094
1580423624.78461,-2.35819028000305,-0.0256351567864499,-0.793713282978562
1580423624.8167,-0.662363622491798,-1.48952468146792,-1.8415808346685
1580423624.84878,-0.538826581216144,0.823987182421607,-1.33278400854505
1580423624.88087,-1.13990997177081,0.0573739223315783,-1.15504692149233
1580423624.91295,-1.38942549782559,-0.137453269245441,-1.13551537346456
1580423624.94504,-1.19069199664301,0.212161440451666,-1.13698023956664
1580423624.97712,-1.54372472724498,0.135500114442664,-0.826916914625773
1580423625.00921,-1.88210879682612,0.220950637064163,-0.311772335393302
1580423625.04129,-1.75661860074769,0.324956130312046,0.370366979476614
1580423625.07338,-1.17311360341802,0.202395666437781,1.33815518425269
1580423625.10546,-0.46997787441825,0.199954222934309,1.96023498893721
1580423625.13755,-0.905531395437553,-0.0949721522850382,0.984634164950027
1580423625.16963,-0.843518730449379,-0.00708018616006711,0.278080415045395
1580423625.20172,-1.45046158541238,0.0681162737468526,-0.392339971007859
1580423625.23381,-2.17654688334478,-0.110597390707255,-0.260013733119708
1580423625.26589,-1.50368505378805,-0.0554207675288012,-0.789806973373008
1580423625.29798,-1.20241092545968,-0.0168459601739528,-1.07594415197986
1580423625.33006,-0.73560692759594,-0.338139925230793,-1.16823071641108
1580423625.36215,-0.310307469291219,-0.44263370717937,-1.01930266269932
1580423625.39423,-0.462653543907836,-0.51441214618143,-0.896253910124361
1580423625.42632,-0.676035706111238,-0.293705653467613,-0.892835889219501
1580423625.4584,-0.904554818036164,-0.199465934233615,-1.09010452429999
1580423625.49049,-0.427496757457847,-0.260990310521096,-1.31667048142214
1580423625.52257,-0.326909285114825,-0.455329213397421,-1.20973525597009
1580423625.55466,0.128664072632944,-0.151613641565575,-0.979751277943084
1580423625.58675,-0.399664301518273,0.376226443884946,0.412359807736323
1580423625.61883,-3.09452964065003,0.548104066529337,-0.821545738918136
1580423625.65092,-0.448493171587701,-1.12916762035553,-1.83913939116503
1580423625.683,-0.7390249485008,0.0500495918211641,-0.91090257114519
1580423625.71506,-1.06276035706111,0.161379415579461,-0.95533684290837
1580423625.74714,-1.30446326390478,-0.0891126878767068,-1.14869916838331
1580423625.77923,-1.11696040283818,0.275638971541923,-1.22926680399786
1580423625.81131,-1.414328221561,0.314702067597466,-1.07887388418402
1580423625.8434,-1.88992141603723,0.180422674906538,-0.550545510032807
1580423625.87548,-2.03689631494621,0.372320134279391,0.469977874418248
1580423625.90757,-1.32936598764019,-0.160402838178072,1.53054093232624
1580423625.93965,-0.506599526970321,0.242923628595406,2.09060807202258
1580423625.97174,-0.862561989776456,0.429449912260623,1.08863965819791
1580423626.00383,-1.00807202258335,0.109132524605172,0.203372243839169
1580423626.03591,-1.30251010910201,0.183840695811398,-0.2434119172961
1580423626.068,-1.79226367589838,0.134523537041275,-0.203372243839169
1580423626.10008,-1.22487220569161,0.0764171816586554,-0.752208743419548
1580423626.13217,-1.15065232318608,-0.0246585793850613,-0.988052185854887
1580423626.16425,-0.747814145113297,-0.383062485694667,-1.20289921416037
1580423626.19634,-0.506599526970321,-0.379156176089113,-1.07154955367361
1580423626.22842,-0.647714961470969,-0.221927214465552,-0.853284504463264
1580423626.26051,-0.830823224231327,-0.0910658426794839,-1.01197833218891
1580423626.29259,-1.0383459220264,-0.235111009384298,-1.06227206836042
1580423626.32468,-0.386968795300222,-0.362066071564813,-1.3884489204242
1580423626.35677,-0.441168841077287,-0.768810559243153,-1.20582894636454
1580423626.38885,0.182864118410009,-0.166262302586404,-1.13405050736248
1580423626.42094,-0.144289311055161,0.618905928130008,-0.486579690241856
1580423626.45302,-3.42705424582284,0.0354009308003356,-0.328374151216908
1580423626.48511,-0.71509880216678,-1.93142595559625,-1.5510490577554
1580423626.51719,-0.318120088502328,0.90406652933547,-1.11940184634165
1580423626.54928,-1.19118028534371,0.173586633096818,-1.28346684977493
1580423626.58136,-1.26491187914855,-0.0422369726100555,-1.20289921416037
1580423626.61345,-1.20680552376593,0.63843747615778,-1.13844510566873
1580423626.64553,-1.41921110856794,0.148195620660715,-0.923598077363241
1580423626.67762,-1.97927824826429,-0.237552452887769,-0.559822995345998
1580423626.7097,-1.7898222323949,0.147219043259327,0.339604791332874
1580423626.74179,-1.19703974975204,0.144777599755855,1.24782177462425
1580423626.77388,-0.656504158083466,0.235599298084992,1.89040970473793
1580423626.80596,-0.790783550774396,0.334233615625237,1.26344701304646
1580423626.83805,-0.817639429312582,0.0266117341878385,0.240482185091935
1580423626.87013,-1.25612268253605,-0.0187991149767299,-0.0925307087815668
1580423626.90222,-2.07400625619898,0.181399252307926,-0.239017318989852
1580423626.9343,-1.36549935149157,-0.0192874036774242,-0.740978103303577
1580423626.96639,-1.24879835202563,-0.070557717250324,-0.939711604486153
1580423626.9985,-0.831799801632716,-0.240970473792629,-1.21217669947356
1580423627.03059,-0.516365300984207,-0.352788586251622,-1.08619821469444
1580423627.06267,-0.665781643396658,-0.233646143282215,-0.993911650263218
1580423627.09476,-0.76392767223621,-0.133546959639887,-1.09108110170138
1580423627.12685,-1.0808270389868,-0.251224536507211,-1.04762340733959
1580423627.15893,-0.497810330357824,-0.275150682841231,-1.39333180743114
1580423627.19102,-0.543709468223087,-0.321049820706493,-0.988052185854887
1580423627.2231,0.115968566414892,-0.523689631494621,-1.06178377965972
1580423627.25519,-0.135500114442664,0.0954604409857325,-0.302494850080111
1580423627.28727,-2.31424429694057,0.966079194323644,1.0642252231632
1580423627.31936,-1.00221255817502,-0.543221179522392,-0.731212329289692
1580423627.35144,-0.199954222934309,0.0798352025635154,-1.04078736552987
1580423627.38353,-1.17946135652705,-0.0148928053711757,-1.20582894636454
1580423627.41561,-1.05983062485695,0.0993667505912867,-1.17701991302357
1580423627.4477,-1.06959639887083,0.301029983978026,-1.2771190966659
1580423627.47979,-1.31715877012284,0.136476691844052,-1.19655146105135
1580423627.51187,-1.83474479285878,-0.0954604409857325,-0.847425040054933
1580423627.54396,-2.01687647821775,0.309330891889829,-0.0861829556725411
1580423627.57604,-1.59011215381094,0.261478599221789,0.809338521400779
1580423627.60813,-0.918715190356298,0.0925307087815668,1.57253376058595
1580423627.64021,-0.735118638895246,0.271244373235675,1.52224002441444
1580423627.6723,-0.953383688105593,0.153078507667658,0.949477378500038
1580423627.70438,-1.19264515144579,-0.0197756923781185,-0.317631799801633
1580423627.73647,-2.05398641947051,0.182375829709315,-0.272220950637065
1580423627.76855,-1.51345082780194,-0.0876478217746239,-0.580819409475852
1580423627.80064,-1.33620202944991,0.0227054245822842,-0.974868390936141
1580423627.83272,-0.89039444571603,-0.307866025787748,-1.04518196383612
1580423627.86481,-0.284428168154422,-0.479743648432136,-1.14869916838331
1580423627.8969,-0.352788586251622,-0.37085526817731,-0.880628671702144
1580423627.92898,-0.582772564278629,-0.32642099641413,-1.17164873731594
1580423627.96107,-0.568123903257801,-0.197512779430838,-1.18727397573815
1580423627.99315,-0.515388723582818,-0.220462348363469,-1.52468146791791
1580423628.02524,-0.884046692607004,-0.478767071030747,-1.08570992599374
1580423628.05732,0.0178225375753414,-0.433844510566873,-0.98609903105211
1580423628.08941,-0.0988784618905925,0.0842298008697639,-0.604745555809872
1580423628.12149,-1.85622949568933,0.744396124208439,1.0896162355993
1580423628.15358,-1.00709544518196,-0.572518501564049,-0.89723048752575
1580423628.18566,-0.161867704280155,-0.11450370031281,-1.0720378423743
1580423628.21775,-1.23561455710689,0.162355992980849,-1.16432440680552
1580423628.24984,-1.04762340733959,-0.117433432516975,-1.14381628137636
1580423628.28168,-1.13600366216525,0.168215457389181,-1.24440375371939
1580423628.31376,-1.25758754863813,0.344487678339817,-1.12867933165484
1580423628.34585,-1.62722209506371,-0.0769054703593497,-0.840588998245213
1580423628.37793,-2.11306935225452,0.0822766460669868,-0.216067750057221
1580423628.41002,-1.77077897306783,0.00122072175173571,0.554940108339057
1580423628.4421,-1.04469367513542,0.0876478217746239,1.59255359731441
1580423628.47419,-0.661875333791103,0.595468070496683,1.78396276798657
1580423628.50627,-1.0554360265507,0.33569848172732,0.877698939497979
1580423628.53836,-1.21608300907912,0.137453269245441,-0.190188448920424
1580423628.57045,-1.75759517814908,-0.0563973449301898,-0.235599298084992
1580423628.60253,-1.55007248035401,-0.113038834210727,-0.40503547722591
1580423628.63462,-1.25954070344091,0.00854505226214997,-0.904554818036164
1580423628.6667,-0.808850232700085,-0.335698481727322,-1.10133516441596
1580423628.69879,-0.482185091935607,-0.494880598153658,-1.17164873731594
1580423628.73087,-0.343022812237736,-0.347417410543985,-1.07692072938125
1580423628.76296,-0.552986953536278,-0.511970702677958,-1.1408865491722
1580423628.79504,-0.581795986877241,-0.453864347295339,-1.01832608529793
1580423628.82713,-0.649668116273746,-0.357671473258565,-1.59108873121233
1580423628.85921,-0.847425040054933,0.238529030289158,-1.26784161135271
1580423628.8913,0.121828030823224,-0.464606698710613,-1.27956054016938
1580423628.92338,-0.0422369726100555,-0.399176012817579,-1.11012436102846
1580423628.95547,-1.34840924696727,0.317631799801632,1.90017547875181
1580423628.98756,-1.29860379949645,-0.388921950102999,-1.15260547798886
1580423629.01964,-0.315190356298162,-0.716075379568169,-1.76931410696574
1580423629.05173,-0.962661173418784,0.388921950102997,-1.41725795376516
1580423629.08381,-0.974868390936141,0.120851453421835,-0.990005340657664
1580423629.1159,-1.2346379797055,0.157473105973907,-1.09694056610971
1580423629.14798,-1.08180361638819,0.166262302586404,-1.14186312657359
1580423629.18007,-1.4309300373846,0.000244144350347142,-1.07692072938125
1580423629.21215,-1.92605477988861,-0.0490730144197755,-0.677988860914015
1580423629.24424,-2.05008010986496,0.190188448920424,0.238040741588463
1580423629.27632,-1.3713588158999,0.230228122377355,1.2092469672694
1580423629.30841,-0.635996032654306,0.540779736018923,1.79177538719768
1580423629.3405,-0.85279621576257,0.585214007782103,1.35231555657282
1580423629.37258,-0.946547646295873,0.145265888456549,0.268314641031509
1580423629.40467,-1.2263370717937,0.254642557412069,-0.369878690775922
1580423629.43675,-1.91970702677958,-0.0969253070878153,-0.252689402609294
1580423629.46884,-1.39382009613184,-0.112550545510032,-0.809338521400779
1580423629.50092,-1.12965590905623,0.0139162279697871,-1.1150072480354
1580423629.53301,-0.738048371099412,-0.224856946669718,-1.18434424353399
1580423629.56543,-0.697520408941786,-0.498298619058518,-1.07545586327916
1580423629.59751,-0.743907835507743,-0.555916685740444,-0.769787136644542
1580423629.6296,-0.676035706111238,-0.403082322423133,-1.0207675288014
1580423629.66169,-0.749767299916074,-0.156496528572518,-1.00465400167849
1580423629.69377,-0.36060120546273,0.00268558785381856,-1.59743648432135
1580423629.72586,-0.488532845044633,-1.06959639887083,-1.28542000457771
1580423629.75794,0.165285725185015,-0.413336385137713,-1.1403982604715
1580423629.79003,-0.109132524605172,0.984634164950027,-0.0524910353246355
1580423629.82212,-3.80498970016022,0.888441290913253,-1.24977492942702
1580423629.8542,-0.311772335393302,-1.82595559624628,-1.84841687647822
1580423629.88629,-0.7048447394522,0.372808422980086,-1.14137483787289
1580423629.91837,-1.16725413900969,0.169680323491264,-1.21071183337148
1580423629.95046,-1.42507057297627,-0.031006332494087,-1.10719462882429
1580423629.98255,-1.03297474631876,0.223392080567635,-1.2600289921416
1580423630.01463,-1.42555886167697,0.387457084000914,-1.13405050736248
1580423630.04672,-1.94216830701152,0.0891126878767068,-0.543709468223087
1580423630.0788,-1.92898451209278,0.157961394674601,0.343999389639123
1580423630.11089,-1.51882200350957,-0.0471198596169984,1.05885404745556
1580423630.14297,-0.651132982375829,0.34253452353704,1.74050507362478
1580423630.17506,-0.687266346227206,0.511482413977266,1.42751201647974
1580423630.20715,-0.836194399938964,0.0949721522850382,0.620859082932785
1580423630.23923,-1.33327229724575,0.295658808270389,-0.284428168154422
1580423630.27132,-2.06912336919203,0.30151827267872,-0.271732661936371
1580423630.30341,-1.40407415884642,-0.0178225375753414,-0.85621423666743
1580423630.33549,-1.21705958648051,0.0295414663920042,-1.00709544518196
1580423630.36758,-0.741954680704966,-0.205325398641946,-1.1745784695201
1580423630.39966,-0.288822766460671,-0.440680552376593,-1.08619821469444
1580423630.43175,-0.427008468757153,-0.462653543907836,-0.894300755321584
1580423630.46383,-0.605233844510566,-0.32642099641413,-1.06569008926528
1580423630.49592,-0.965102616922255,-0.0134279392690928,-0.97584496833753
1580423630.52801,-0.740978103303577,-0.159914549477378,-1.46120393682765
1580423630.56009,-0.684824902723735,-0.81177996490425,-1.03883421072709
1580423630.59218,0.0593270771343555,-0.245853360799572,-0.816174563210499
1580423630.62426,-0.01196307316701,0.0124513618677042,-0.491462577248798
1580423630.65635,-2.3967650873579,0.431891355764094,0.562264438849471
1580423630.68844,-0.936781872281987,-1.08522163729305,-1.58767071030747
1580423630.72052,-0.347905699244679,0.348393987945371,-0.935805294880598
1580423630.75261,-1.19996948195621,0.202395666437781,-1.18678568703746
1580423630.78469,-1.08863965819791,0.0520027466239412,-0.99977111467155
1580423630.81678,-0.980239566643778,0.176516365300984,-1.24684519722286
1580423630.8486,-1.30641641870756,0.227786678873883,-1.09010452429999
1580423630.88069,-1.6872816052491,-0.0178225375753414,-0.779552910658428
1580423630.91277,-1.80544747081712,0.0490730144197755,-0.128664072632944
1580423630.94486,-1.74880598153658,0.163820859082932,0.479743648432134
1580423630.97695,-1.11354238193332,0.234134431982909,1.14723430228122
1580423631.00903,-0.561776150148775,0.347905699244677,1.72097352559701
1580423631.04112,-0.745372701609826,0.139894712748912,1.11354238193332
1580423631.0732,-0.930922407873656,-0.0437018387121384,0.354253452353703
1580423631.10529,-1.77077897306783,0.318120088502326,-0.24682993820096
1580423631.13737,-1.65603112840467,-0.112062256809338,-0.414312962539102
1580423631.16946,-1.55349050125887,-0.154543373769741,-0.730235751888303
1580423631.20155,-1.14332799267567,-0.234622720683603,-1.07008468757153
1580423631.23363,-0.70826276035706,-0.365484092469673,-1.11989013504234
1580423631.26572,-0.481208514534218,-0.484626535439078,-1.00563057907988
1580423631.2978,-0.561776150148775,-0.467536430914778,-0.795178149080645
1580423631.32989,-0.629159990844586,-0.388921950102999,-0.905531395437553
1580423631.36198,-0.587167162584878,-0.231692988479438,-1.27174792095827
1580423631.39406,-0.424078736552987,-0.105226214999618,-1.33913176165408
1580423631.42615,-0.205325398641946,-0.527107652399481,-1.26393530174716
1580423631.45823,-0.0935072861829553,-0.359624628061342,-1.09889372091249
1580423631.49032,-0.518806744487678,0.628671702143894,1.55300221255818
1580423631.52241,-2.57010757610437,-0.01196307316701,-1.23659113450828
1580423631.55449,-0.044678416113527,-0.93482871747921,-1.78103303578241
1580423631.58658,-0.88014038300145,0.715587090867476,-1.53933012893873
1580423631.61866,-1.36647592889296,-0.188723582818341,-1.15944151979858
1580423631.65075,-1.15895323109789,0.123292896925307,-1.16285954070344
1580423631.68283,-1.31276417181659,0.28784618905928,-1.19459830624857
1580423631.71492,-1.76052491035325,0.0451667048142212,-0.862561989776456
1580423631.74701,-1.90896467536431,0.231692988479438,-0.271732661936371
1580423631.77909,-1.71609063859007,0.135988403143358,0.463630121309222
1580423631.81118,-1.01832608529793,0.0197756923781185,1.5422598611429
1580423631.84326,-0.394293125810636,0.543709468223089,1.84841687647822
1580423631.87535,-0.771252002746625,0.281986724650949,1.09938200961318
1580423631.90744,-1.09840543221179,0.175051499198901,0.0451667048142212
1580423631.93952,-1.59450675211719,0.259037155718318,-0.250736247806516
1580423631.97161,-1.77761501487755,0.0969253070878153,-0.414801251239796
1580423632.00369,-1.39479667353323,0.166262302586404,-0.884046692607004
1580423632.03578,-1.05250629434653,-0.256107423514154,-1.1062180514229
1580423632.06787,-0.594491493095292,-0.535896849011978,-1.23219653620203
1580423632.09995,-0.351323720149539,-0.472419317921721,-1.06227206836042
1580423632.13229,-0.508064393072404,-0.455817502098116,-0.966079194323644
1580423632.16438,-0.625741969939726,-0.420660715648127,-0.981704432745861
1580423632.19647,-0.647714961470969,-0.23999389639124,-1.51393911650263
1580423632.22855,-0.94508278019379,-0.251224536507211,-1.31569390402075
1580423632.26064,-0.180910963607232,-0.661875333791103,-1.05055313954376
1580423632.29272,-0.0144045166704814,-0.304936293583582,-1.12574959945067
1580423632.32481,-0.292729076066225,0.987075608453498,1.09449912260624
1580423632.35689,-2.65604638742657,-0.000244144350347142,-1.7043717097734
1580423632.38898,-0.824475471122302,-2.04324406805524,-1.67165636682689
1580423632.42107,-0.39478141451133,0.625253681239034,-1.38356603341726
1580423632.45315,-1.1745784695201,0.44165712977798,-1.13942168307011
1580423632.48524,-1.25319295033188,0.110597390707255,-1.19508659494926
1580423632.51732,-1.29323262378882,0.197024490730143,-1.28834973678187
1580423632.54941,-1.54763103685054,0.0769054703593497,-0.946547646295873
1580423632.5815,-2.03396658274205,-0.0256351567864499,-0.453864347295339
1580423632.61358,-1.92458991378653,0.248294804303043,0.365484092469671
1580423632.64567,-1.19508659494926,0.277103837644006,1.4822003509575
1580423632.67775,-0.383550774395362,0.248783093003738,1.99441519798581
1580423632.70984,-1.04957656214237,0.275150682841229,1.38258945601587
1580423632.74193,-0.858655680170902,0.0817883573662925,0.372808422980086
1580423632.77401,-1.50759136339361,0.119874876020447,-0.193606469825284
1580423632.8061,-1.89871061264973,-0.220950637064163,-0.423590447852293
1580423632.83818,-1.36794079499504,-0.0769054703593497,-0.761974517433433
1580423632.87027,-1.11793698023957,0.0939955748836496,-0.98609903105211
1580423632.90235,-0.556893263141832,-0.0876478217746239,-1.1408865491722
1580423632.93444,-0.167727168688486,-0.409918364232853,-1.15651178759441
1580423632.96653,-0.44605172808423,-0.387457084000916,-1.02320897230488
1580423632.99861,-0.619882505531395,-0.34692912184329,-1.11256580453193
1580423633.0307,-0.692149233234149,-0.128175783932249,-1.37282368200198
1580423633.06278,-0.759044785229268,-0.110109102006561,-1.23756771190967
1580423633.09487,-0.247318226901655,-0.273197528038454,-1.16871900511177
1580423633.12696,-0.00610360875867855,-0.741466392004272,-1.11793698023957
1580423633.15904,-0.429449912260624,0.515877012283514,1.35329213397421
1580423633.19113,-2.35330739299611,0.280033569848172,-0.88014038300145
1580423633.22321,-0.34692912184329,-1.15260547798886,-2.34061188677806
1580423633.2553,-0.912855725947967,0.643808651865417,-1.25319295033188
1580423633.28739,-0.959731441214618,0.0983901731898982,-1.14821087968261
1580423633.31947,-1.19948119325551,0.24682993820096,-1.28688487067979
1580423633.35156,-1.20338750286107,-0.0153810940718699,-1.25905241474022
1580423633.38364,-1.44704356450752,-0.157473105973907,-1.16969558251316
1580423633.41553,-2.06472877088579,0.0319829098954756,-0.596444647898069
1580423633.44761,-2.31033798733501,0.713145647364005,0.562752727550166
1580423633.4797,-1.16090638590066,0.40405889982452,1.67605096513314
1580423633.51179,-0.544197756923781,0.118898298619058,2.12137026016632
1580423633.54387,-0.953871976806287,0.208743419546806,1.43337148088807
1580423633.57596,-0.797619592584116,-0.031006332494087,0.456305790798808
1580423633.60804,-1.32643625543603,0.024170290684367,-0.363530937666896
1580423633.64013,-1.85574120698863,-0.157473105973907,-0.390875104905776
1580423633.67221,-1.34401464866102,0.0505378805218584,-0.741466392004272
1580423633.7043,-1.07838559548333,0.125734340428778,-0.936293583581293
1580423633.73639,-0.76734569314107,-0.406500343327993,-1.13112077515831
1580423633.76847,-0.590585183489738,-0.616952773327229,-1.07545586327916
1580423633.80056,-0.757091630426491,-0.405523765926604,-0.839612420843824
1580423633.83264,-0.788830395971619,-0.433844510566873,-1.13893339436942
1580423633.86473,-0.670664530403601,-0.351323720149539,-1.2522163729305
1580423633.89681,-0.247318226901655,-0.232669565880826,-1.58864728770886
1580423633.9289,-0.564217593652247,-0.423590447852293,-1.31911192492561
1580423633.96099,0.0842298008697639,-0.764904249637599,-1.15407034409094
1580423633.99307,-0.193118181124589,0.323002975509269,-0.681895170519569
1580423634.02516,-3.12382696269169,0.560799572747388,1.53688868543527
1580423634.05725,-0.697520408941786,-0.91432059205005,-0.355718318455787
1580423634.08933,0.102784771496147,0.404547188525214,-1.00660715648127
1580423634.12142,-1.15602349889372,0.296635385671777,-1.30202182040131
1580423634.1535,-1.13600366216525,-0.316655222400245,-1.0979171435111
1580423634.18559,-1.24635690852216,0.188723582818341,-1.1662775616083
1580423634.21767,-1.24831006332494,0.376226443884946,-1.06471351186389
1580423634.24976,-1.45632104982071,-0.186770428015564,-0.962661173418784
1580423634.28185,-1.80105287251087,0.0183108262760356,-0.465583276112001
1580423634.31393,-2.00906385900664,0.138429846646829,0.244876783398183
1580423634.34602,-1.38454261081865,0.175539787899595,1.57399862668803
1580423634.3781,-0.418219272144656,0.554940108339057,1.9265430685893
1580423634.41019,-1.01344319829099,0.478767071030745,1.51003280689708
1580423634.44228,-1.17360189211871,0.133058670939192,0.375249866483557
1580423634.47436,-1.8240024414435,0.116945143816281,-0.479255359731441
1580423634.50645,-1.74294651712825,-0.373785000381476,-0.452399481193256
1580423634.53853,-1.2946974898909,-0.0725108720531011,-0.791760128175785
1580423634.57062,-0.878675516899367,-0.0905775539787896,-1.01881437399863
1580423634.60271,-0.334233615625239,-0.296635385671779,-1.21559472037842
1580423634.63479,-0.0314946211947813,-0.242923628595406,-1.0808270389868
1580423634.66688,-0.132082093537804,-0.550545510032807,-1.1320973525597
1580423634.69916,-0.332768749523156,-0.714610513466086,-1.17116044861524
1580423634.73124,-0.888929579613947,-0.356206607156482,-1.56618600747692
1580423634.76333,-1.10719462882429,0.070557717250324,-1.31862363622492
1580423634.79541,0.0539559014267184,-0.0539559014267184,-1.24684519722286
1580423634.8275,-0.048096437018387,-0.751720454718853,-1.06129549095903
1580423634.85959,-0.483161669336996,0.650644693675137,1.26637674525063
1580423634.89167,-2.55545891508354,-0.201419089036392,-1.50026703288319
1580423634.92376,-0.464606698710613,-1.04567025253681,-1.9866025787747
1580423634.95584,-0.723399710078583,0.6281834134432,-1.23414969100481
1580423634.98793,-1.22340733958953,0.154543373769741,-1.06276035706111
1580423635.02002,-1.17897306782635,0.0583504997329669,-1.20680552376593
1580423635.0521,-1.33278400854505,0.271732661936369,-1.25075150682841
1580423635.08419,-1.59890135042344,0.0666514076447697,-0.911879148546578
1580423635.11627,-2.26297398336767,0.166262302586404,-0.375249866483559
1580423635.14836,-1.88210879682612,0.0471198596169984,0.665781643396659
1580423635.18045,-1.12916762035553,0.202883955138475,1.68386358434424
1580423635.21253,-0.74244296940566,0.540291447318229,1.82595559624628
1580423635.24462,-1.05738918135348,0.133058670939192,0.97584496833753
1580423635.2767,-0.772716868848708,-0.0759288929579611,-0.0598153658350498
1580423635.30879,-1.38649576562142,0.118410009918364,-0.199954222934309
1580423635.34087,-1.74245822842756,0.0715342946517126,-0.42212558175021
1580423635.37296,-1.14137483787289,-0.0437018387121384,-1.00953688868544
1580423635.40505,-0.965102616922255,-0.122316319523918,-1.02662699320974
1580423635.43713,-0.668223086900129,-0.37085526817731,-1.19264515144579
1580423635.46922,-0.279545281147479,-0.530525673304341,-1.05738918135348
1580423635.5013,-0.740489814602883,-0.547615777828641,-0.937270160982681
1580423635.53339,-0.712169069962615,-0.595956359197375,-0.990493629358358
1580423635.56548,-0.642832074464026,0.0100099183642328,-1.23317311360342
1580423635.59756,-0.918715190356298,0.0847180895704582,-1.37526512550546
1580423635.62965,-0.304448004882888,-1.17750820172427,-1.22780193789578
1580423635.66173,0.0700694285496297,-0.34009308003357,-1.24489204242008
1580423635.69382,-0.302006561379416,0.666269932097354,0.857190814068819
1580423635.72591,-2.60331120775158,0.548104066529337,-1.6023193713283
1580423635.75799,-0.708751049057755,-1.51345082780194,-1.66482032501717
1580423635.79008,-0.378667887388419,0.426031891355763,-1.23268482490272
1580423635.82216,-1.24000915541314,0.355718318455786,-1.16969558251316
1580423635.85425,-1.31960021362631,-0.0388189517051956,-1.27907225146868
1580423635.88633,-1.2605172808423,0.034424353398947,-1.27565423056382
1580423635.91842,-1.35182726787213,0.38696879530022,-0.926527809567407
1580423635.95051,-1.94705119401846,0.211673151750972,-0.329350728618296
1580423635.98245,-1.91238269626917,0.265873197528038,0.40064087891966
1580423636.01454,-1.23854428931105,0.00610360875867855,1.16090638590066
1580423636.04662,-0.737071793698023,0.185305561913481,1.80837720302129
1580423636.07871,-0.995864805065995,0.284916456855115,1.16725413900969
1580423636.1108,-0.786877241168842,0.0373540856031127,0.190676737621118
1580423636.14288,-1.25123979552911,0.0681162737468526,-0.139894712748912
1580423636.17497,-2.04959182116426,0.10424963759823,-0.225833524071106
1580423636.20705,-1.31667048142214,0.080811779964904,-0.689707789730678
1580423636.23914,-1.19313344014649,-0.0373540856031127,-1.10231174181735
1580423636.27122,-0.667734798199435,-0.405523765926604,-1.18092622262913
1580423636.30331,-0.284916456855116,-0.634042877851529,-1.11158922713054
1580423636.3354,-0.536873426413367,-0.469489585717556,-0.901136797131304
1580423636.36748,-0.675059128709849,-0.156984817273212,-1.04420538643473
1580423636.39957,-0.795178149080645,0.109132524605172,-1.19020370794232
1580423636.43165,-0.955825131609064,-0.260013733119708,-1.20631723506523
1580423636.46374,-0.454840924696727,-0.584237430380712,-1.00660715648127
1580423636.49583,0.193118181124589,-0.50074006256199,-1.05885404745556
1580423636.52791,-0.147707331960021,0.157473105973907,-0.489509422446021
1580423636.56,-2.73075455863279,0.880628671702144,0.248294804303043
1580423636.59208,-0.396734569314107,-0.494392309452964,-1.04176394293126
1580423636.62417,-0.576913099870298,-0.221438925764858,-1.06031891355764
1580423636.65626,-1.1833676661326,0.144289311055161,-1.09156939040207
1580423636.68834,-1.10817120622568,0.0349126420996413,-1.11549553673609
1580423636.72043,-1.20729381246662,0.0710460059510183,-1.32350652323186
1580423636.75251,-1.36940566109712,0.0886243991760125,-1.15455863279164
1580423636.7846,-1.94460975051499,0.126710917830167,-0.784924086366065
1580423636.81668,-2.0720531013962,0.317631799801632,0.145265888456549
1580423636.84877,-1.54079499504082,0.169192034790569,1.2605172808423
1580423636.88086,-0.571541924162661,0.301029983978026,1.90457007705806
1580423636.91294,-0.824475471122302,0.329839017318989,1.30495155260548
1580423636.94503,-0.854261081864653,0.147219043259327,0.427496757457845
1580423636.97711,-1.24245059891661,0.0744640268558783,-0.0861829556725411
1580423637.0092,-1.90359349965667,-0.251224536507211,-0.204837109941252
1580423637.04129,-1.54714274814984,0.137941557946135,-0.733653772793163
1580423637.07337,-1.17213702601663,0.275638971541923,-0.974380102235447
1580423637.10546,-0.916762035553521,-0.125734340428778,-1.21168841077287
1580423637.13754,-0.518806744487678,-0.626230258640421,-1.243427176318
1580423637.16963,-0.455329213397421,-0.45972381170367,-1.13893339436942
1580423637.20172,-0.42212558175021,-0.23315785458152,-1.16090638590066
1580423637.2338,-0.431403067063401,0.141847867551689,-1.2522163729305
1580423637.26608,-0.853772793163959,-0.436774242771039,-1.59255359731441
1580423637.29817,-0.78101777676051,-0.77759975585565,-1.01832608529793
1580423637.33025,0.0769054703593497,-0.352788586251622,-1.12672617685206
1580423637.36234,-0.127199206530861,-0.0593270771343555,-0.537361715114061
1580423637.39443,-2.46707866025788,1.09352254520485,1.38454261081865
1580423637.42651,-0.430426489662013,-0.712657358663309,-1.02858014801251
1580423637.4586,-0.438727397573816,0.0358892195010299,-1.02565041580835
1580423637.49068,-1.30251010910201,0.0583504997329669,-1.21950102998398
1580423637.52277,-1.0979171435111,0.238529030289158,-1.08180361638819
1580423637.55485,-1.18678568703746,0.135011825741969,-1.39284351873045
1580423637.58694,-1.45241474021515,0.0358892195010299,-1.20485236896315
1580423637.61903,-2.15799191271839,0.290775921263446,-0.621835660334172
1580423637.65111,-1.95388723582818,0.3972228580148,0.516365300984209
1580423637.6832,-1.17262531471733,0.207278553444723,1.70534828717479
1580423637.71528,-0.448004882887007,0.119386587319752,1.79470511940185
1580423637.74737,-0.848401617456322,0.468024719615471,1.24782177462425
1580423637.77946,-0.846448462653544,0.262943465323872,0.439703974975203
1580423637.81154,-1.23805600061036,0.136476691844052,-0.298100251773862
1580423637.84363,-2.10867475394827,-0.0314946211947813,-0.43579766536965
1580423637.87571,-1.33620202944991,0.0437018387121384,-0.740489814602883
1580423637.9078,-1.09401083390555,-0.0939955748836496,-0.930922407873656
1580423637.93989,-0.850843060959793,-0.378667887388419,-1.20094605935759
1580423637.97197,-0.409918364232853,-0.285404745555811,-1.15162890058747
1580423638.00406,-0.515877012283513,-0.131105516136415,-0.875257495994507
1580423638.03614,-0.746349279011215,-0.369390402075227,-1.13893339436942
1580423638.06823,-0.854261081864653,-0.469489585717556,-1.19020370794232
1580423638.10032,-0.48023193713283,-0.380621042191196,-1.54128328374151
1580423638.1324,-0.778576333257039,-0.203860532539863,-1.08473334859235
1580423638.16449,0.0656748302433812,-0.486579690241856,-1.0554360265507
1580423638.19657,0.00952162966353853,-0.000244144350347142,-0.79468986037995
1580423638.22866,-2.24783703364614,0.815686274509805,1.30397497520409
1580423638.26074,-0.833752956435493,-0.526619363698787,-0.854261081864653
1580423638.29283,-0.360112916762036,-0.375738155184253,-0.902113374532693
1580423638.32492,-1.10475318532082,0.0891126878767068,-1.24098573281453
1580423638.357,-1.24928664072633,0.00268558785381856,-1.12965590905623
1580423638.38909,-1.09352254520485,0.210208285648889,-1.13600366216525
1580423638.42118,-1.22731364919509,0.143312733653772,-1.23366140230411
1580423638.45326,-1.63503471427481,-0.12475776302739,-0.870374608987564
1580423638.48535,-2.19607843137255,0.368902113374531,-0.250736247806516
1580423638.51743,-1.77566186007477,0.352300297550926,0.865003433279927
1580423638.54938,-0.708751049057755,0.269291218432897,1.7390402075227
1580423638.58146,-0.474860761425193,0.337651636530097,1.67165636682689
1580423638.61355,-0.844495307850767,0.280033569848172,0.723887998779279
1580423638.64564,-0.978774700541695,0.0349126420996413,0.108155947203784
1580423638.67772,-1.65749599450675,0.0490730144197755,-0.222903791866941
1580423638.70981,-1.76540779736019,0.0529793240253298,-0.493415732051576
1580423638.74189,-1.33131914244297,0.203860532539863,-0.893324177920196
1580423638.77398,-0.959243152513924,0.00610360875867855,-1.06227206836042
1580423638.80607,-0.657480735484855,-0.289311055161365,-1.08375677119097
1580423638.83815,-0.515388723582818,-0.469489585717556,-0.972915236133364
1580423638.87024,-0.685801480125123,-0.486579690241856,-0.97242694743267
1580423638.90233,-0.660410467689021,-0.269779507133594,-1.0207675288014
1580423638.93441,-0.536873426413367,-0.0725108720531011,-1.40456244754711
1580423638.9665,-0.719493400473029,-0.189211871519035,-1.21608300907912
1580423638.99859,-0.127687495231555,-0.583260852979324,-1.03590447852293
1580423639.03067,-0.0324711985961699,-0.359624628061342,-0.833752956435493
1580423639.06276,-0.573983367666132,0.190188448920424,1.10572976272221
1580423639.09484,-2.32498664835584,-0.0588387884336612,-0.994399938963912
1580423639.12693,-0.615976195925841,-1.03590447852293,-1.64431219958801
1580423639.15902,-0.757091630426491,0.709239337758451,-1.48757152666514
1580423639.1911,-0.967544060425727,0.0798352025635154,-1.22194247348745
1580423639.22319,-1.2600289921416,0.0197756923781185,-1.23024338139925
1580423639.25528,-1.16969558251316,0.208255130846112,-1.26247043564508
1580423639.28736,-1.56667429617761,-0.0607919432364383,-0.993911650263218
1580423639.31945,-1.91091783016709,-0.0139162279697871,-0.475349050125887
1580423639.35154,-2.01931792172122,0.414801251239794,0.402105745021743
1580423639.38362,-1.25465781643397,0.337163347829403,1.37526512550545
1580423639.41571,-0.427985046158541,0.216556038757915,2.10281528953994
1580423639.44779,-0.941176470588236,0.273197528038452,1.23659113450828
1580423639.47988,-0.881605249103533,0.12475776302739,0.454352635996031
1580423639.51197,-1.40798046845197,0.192141603723201,-0.192629892423895
1580423639.54405,-2.13357747768368,0.141847867551689,-0.108644235904478
1580423639.57614,-1.39137865262837,0.0485847257190812,-0.947524223697261
1580423639.60823,-1.1062180514229,-0.227298390173189,-0.975356679636835
1580423639.64031,-0.695078965438315,-0.582284275577935,-1.09547570000763
1580423639.6724,-0.44946974898909,-0.270756084534982,-0.969985503929198
1580423639.70449,-0.55201037613489,-0.218997482261386,-0.946059357595178
1580423639.73657,-0.959731441214618,-0.283451590753033,-0.90064850843061
1580423639.76866,-0.793224994277868,-0.306401159685665,-1.54958419165331
1580423639.80075,-0.966567483024338,-0.444586861982147,-1.1579766536965
1580423639.8331,0.0700694285496297,-0.262943465323874,-1.04762340733959
1580423639.86519,0.096437018387121,-0.210208285648889,-1.00904859998474
1580423639.89727,-0.404547188525216,0.53931486991684,0.982192721446555
1580423639.92936,-3.07402151522087,0.157961394674601,-1.07496757457847
1580423639.96144,-0.101808194094758,-0.843518730449379,-1.15651178759441
1580423639.99353,-1.05494773785,0.655039291981385,-1.35915159838254
1580423640.02562,-1.00318913557641,0.000732433051041426,-1.05152971694514
1580423640.0577,-1.1067063401236,0.0754406042572668,-1.25368123903258
1580423640.08979,-1.30885786221103,0.480231937132828,-1.30446326390478
1580423640.12188,-1.47096971084154,0.060303654535744,-1.10133516441596
1580423640.15396,-2.32254520485237,0.00122072175173571,-0.692637521934843
1580423640.18605,-1.95877012283513,0.207278553444723,0.572030212863357
1580423640.21813,-1.10817120622568,0.344487678339817,1.63259327077134
1580423640.25022,-0.428473334859236,0.517341878385597,1.82937361715114
1580423640.28231,-0.69800869764248,0.215091172655832,1.18580910963607
1580423640.31439,-0.915297169451438,-0.0280766002899213,0.249759670405126
1580423640.34648,-1.30641641870756,0.0495613031204698,-0.223392080567635
1580423640.37857,-2.02224765392538,-0.10083161669337,-0.346440833142596
1580423640.41065,-1.40456244754711,0.0578622110322726,-0.795178149080645
1580423640.44274,-1.11158922713054,0.096437018387121,-0.96559090562295
1580423640.47483,-0.734630350194552,-0.141847867551689,-1.13942168307011
1580423640.50691,-0.392828259708553,-0.440680552376593,-1.13649195086595
1580423640.539,-0.49390402075227,-0.539803158617532,-0.85963225757229
1580423640.57109,-0.729259174486915,-0.513435568780041,-1.22438391699092
1580423640.60317,-0.743907835507743,-0.237552452887769,-1.28542000457771
1580423640.63526,-0.452399481193256,0.0524910353246355,-1.53640039673457
1580423640.66735,-0.513923857480735,-0.908949416342413,-1.25709925993744
1580423640.69943,-0.00952162966353853,-0.509529259174487,-0.89723048752575
1580423640.73152,0.0202639810788128,1.02613870450904,-0.810803387502862
1580423640.7636,-3.46611734187839,-0.41870756084535,-1.12672617685206
1580423640.79569,-0.401129167620356,-2.15262073701076,-1.63454642557412
1580423640.82778,-0.612069886320286,0.85963225757229,-1.29323262378882
1580423640.85986,-1.05201800564584,0.0651865415426869,-1.43190661478599
1580423640.89195,-1.27858396276799,-0.00952162966353853,-1.25416952773327
1580423640.92404,-1.34889753566796,0.340093080033569,-1.31276417181659
1580423640.95612,-1.56032654306859,0.201907377737086,-1.04811169604028
1580423640.98821,-1.91921873807889,-0.0153810940718699,-0.594491493095292
1580423641.02029,-1.83230334935531,0.183352407110704,0.364507515068283
1580423641.05238,-1.19703974975204,0.258548867017623,1.45436789501793
1580423641.08447,-0.563241016250858,0.399176012817577,1.88357366292821
1580423641.11667,-0.891371023117419,0.200930800335698,1.16237125200275
1580423641.14875,-1.02223239490349,0.113527122911421,0.222415503166246
1580423641.18084,-1.36354619668879,-0.163820859082932,-0.0798352025635154
1580423641.21293,-1.78103303578241,-0.174074921797512,-0.282475013351645
1580423641.24501,-1.38503089951934,0.188235294117646,-0.738048371099412
1580423641.2771,-1.1916685740444,0.23999389639124,-1.072526131075
1580423641.30919,-0.748302433813992,-0.210696574349583,-1.26100556954299
1580423641.34127,-0.319096665903716,-0.431403067063401,-1.13551537346456
1580423641.37336,-0.540291447318227,-0.500251773861295,-1.03688105592432
1580423641.40545,-0.678965438315403,-0.330815594720379,-0.995864805065995
1580423641.43753,-0.827405203326467,-0.202883955138475,-1.14283970397497
1580423641.46962,-0.660410467689021,-0.209719996948195,-1.38112458991379
1580423641.5017,-0.195071335927366,-0.826428625925079,-1.37526512550546
1580423641.53379,0.225345235370412,-0.343022812237736,-1.20289921416037
1580423641.56588,-0.224856946669718,0.667734798199437,0.141359578850995
1580423641.59796,-3.76690318150607,0.84937819485771,-1.39577325093462
1580423641.63005,-0.162844281681544,-1.1150072480354,-1.90212863355459
1580423641.66214,-1.06764324406805,0.52222476539254,-1.38747234302281
1580423641.69422,-0.993911650263218,0.109132524605172,-1.17994964522774
1580423641.72631,-1.17067215991455,0.215091172655832,-1.28493171587701
1580423641.7584,-1.47731746395056,0.320073243305103,-1.24196231021591
1580423641.79048,-1.64870679789425,0.139894712748912,-0.878187228198673
1580423641.82257,-1.9358205539025,0.132570382238498,-0.170656900892652
1580423641.85466,-1.68679331654841,0.0300297550926985,0.511482413977266
1580423641.88674,-1.05885404745556,-0.0271000228885327,1.43483634699016
1580423641.91883,-0.473884184023804,0.343022812237734,1.72683299000534
1580423641.95091,-0.815686274509805,0.231204699778743,0.925062943465324
1580423641.983,-0.823987182421607,0.0769054703593497,0.258060578316929
1580423642.01509,-1.35182726787213,0.242923628595406,-0.175051499198901
1580423642.04717,-1.90017547875181,0.0905775539787896,-0.281986724650951
1580423642.07926,-1.36891737239643,-0.108155947203784,-0.919203479056993
1580423642.11135,-1.34450293736172,-0.151613641565575,-0.949477378500038
1580423642.14343,-0.844983596551462,-0.527595941100175,-1.1062180514229
1580423642.17552,-0.438239108873121,-0.430426489662013,-1.02174410620279
1580423642.2076,-0.397711146715496,-0.241947051194018,-0.801037613488976
1580423642.23969,-0.631601434348058,-0.323491264209965,-1.04908827344167
1580423642.27178,-0.710704203860532,-0.402594033722439,-1.13160906385901
1580423642.30386,-0.594491493095292,-0.152590218966964,-1.52077515831235
1580423642.33595,-0.746349279011215,-0.244876783398183,-1.13160906385901
1580423642.36804,0.101808194094758,-0.493415732051576,-1.18629739833677
1580423642.40024,0.0153810940718699,0.103273060196841,-0.474372472724498
1580423642.43232,-2.00271610589761,0.628671702143894,0.812268253604945
1580423642.46441,-0.998794537270161,-1.09596398870832,-1.1745784695201
1580423642.4965,-0.402594033722439,0.188235294117646,-1.32301823453117
1580423642.52858,-1.01686121919585,0.252689402609292,-1.27614251926452
1580423642.56067,-1.15651178759441,0.176516365300984,-1.13844510566873
1580423642.59276,-1.21120012207217,0.143312733653772,-1.21217669947356
1580423642.62485,-1.31813534752422,0.183840695811398,-1.07496757457847
1580423642.65693,-1.80886549172198,0.0500495918211641,-0.764904249637599
1580423642.68902,-2.03884946974899,0.260013733119706,0.0700694285496297
1580423642.72111,-1.50514991989014,0.153566796368352,0.702403295948731
1580423642.75319,-0.848401617456322,0.205325398641946,1.63894102388037
1580423642.78528,-0.583749141680018,0.292729076066223,1.45241474021515
1580423642.81737,-0.81519798580911,0.0280766002899213,0.758556496528573
1580423642.84945,-1.1233081559472,-0.0910658426794839,-0.0432135500114441
1580423642.88154,-1.80642404821851,-0.178469520103761,-0.237552452887769
1580423642.91363,-1.59108873121233,0.0388189517051956,-0.486579690241856
1580423642.94571,-1.36354619668879,0.0949721522850382,-0.868421454184787
1580423642.9778,-0.892835889219501,-0.0725108720531011,-1.04127565423056
1580423643.00989,-0.545662623025864,-0.303959716182193,-1.21559472037842
1580423643.04198,-0.316655222400245,-0.440192263675899,-1.16530098420691
1580423643.07406,-0.555916685740444,-0.324467841611353,-1.04615854123751
1580423643.10615,-0.748790722514686,-0.231204699778743,-0.898207064927139
1580423643.13823,-0.810803387502862,-0.231204699778743,-1.44313725490196
1580423643.17032,-0.871351186388953,-0.315190356298162,-1.00904859998474
1580423643.20241,0.0891126878767068,-0.332280460822462,-1.08863965819791
1580423643.2345,-0.0148928053711757,-0.240482185091935,-0.84596017395285
1580423643.26658,-0.858167391470207,0.0876478217746239,1.71071946288243
1580423643.29867,-1.47975890745403,-0.221438925764858,-0.785900663767453
1580423643.33076,0.405035477225908,-0.0729991607537954,-1.35329213397421
1580423643.36284,-1.55593194476234,0.0588387884336612,-1.30251010910201
1580423643.39493,-0.949965667200733,0.214602883955138,-1.24635690852216
1580423643.42702,-1.13258564126039,0.112062256809338,-1.20729381246662
1580423643.4591,-1.37770656900893,0.31519035629816,-1.11256580453193
1580423643.49119,-1.59401846341649,0.12475776302739,-0.803967345693142
1580423643.52328,-1.96023498893721,0.216067750057221,-0.249759670405126
1580423643.55536,-1.65065995269703,0.0529793240253298,0.619882505531397
1580423643.58745,-1.08278019378958,0.0124513618677042,1.74929427023728
1580423643.61954,-0.847425040054933,0.561287861448083,1.76638437476158
1580423643.65162,-1.02858014801251,0.302983138780803,0.558358129243917
1580423643.68378,-1.05104142824445,0.257572289616235,-0.219485770962081
1580423643.71586,-1.69216449225605,0.160402838178072,-0.298100251773862
1580423643.74795,-1.37428854810407,-0.0197756923781185,-0.516365300984207
1580423643.78004,-1.22096589608606,0.0856946669718468,-0.855725947966736
1580423643.81212,-0.858655680170902,-0.200442511635003,-1.13746852826734
1580423643.84421,-0.560311284046692,-0.414312962539102,-1.17653162432288
1580423643.8763,-0.423590447852293,-0.414801251239796,-1.02906843671321
1580423643.90838,-0.722423132677195,-0.412359807736324,-0.85963225757229
1580423643.94047,-0.740001525902189,-0.487556267643244,-0.968520637827115
1580423643.97256,-0.584237430380712,-0.11108567940795,-1.4402075226978
1580423644.00464,-0.7048447394522,0.0266117341878385,-1.06276035706111
1580423644.03673,0.109132524605172,-0.973891813534753,-1.51198596169985
1580423644.06882,-0.103273060196841,-0.157961394674601,-1.18580910963607
1580423644.10091,-1.27028305485618,0.788830395971619,1.91628900587472
1580423644.13299,-1.36061646448463,-0.284428168154422,-0.998794537270161
1580423644.16508,-0.262943465323874,-0.630136568245975,-1.37233539330129
1580423644.19717,-0.973891813534753,0.185305561913481,-1.32252994583047
1580423644.22925,-0.964614328221561,0.144777599755855,-1.11256580453193
1580423644.26134,-1.38796063172351,0.135011825741969,-1.2092469672694
1580423644.29343,-1.22047760738537,0.211184863050278,-1.16871900511177
1580423644.32551,-1.59206530861372,0.170656900892652,-0.823498893720913
1580423644.3576,-1.81667811093309,0.265384908827343,-0.183840695811398
1580423644.38969,-1.73269245441367,0.327397573815517,0.576424811169606
1580423644.42177,-1.03395132372015,0.10083161669337,1.43630121309224
1580423644.45386,-0.566170748455024,0.178469520103761,1.82204928664073
1580423644.48595,-1.06031891355764,0.187747005416952,1.01881437399863
1580423644.51803,-0.878675516899367,0.0959487296864268,0.222903791866941
1580423644.55012,-1.57497520408942,0.336186770428014,-0.42896162355993
1580423644.58221,-1.78298619058518,0.101319905394064,-0.224856946669718
1580423644.6143,-1.3459678034638,0.102784771496147,-0.952895399404898
1580423644.64638,-1.05250629434653,-0.10083161669337,-1.08522163729305
1580423644.67847,-0.652597848477912,-0.474372472724498,-1.23073167009995
1580423644.71056,-0.379156176089113,-0.496345464255741,-1.149187457084
1580423644.74264,-0.504646372167544,-0.455817502098116,-0.777111467154956
1580423644.77473,-0.603768978408484,-0.290775921263448,-1.0466468299382
1580423644.80682,-0.762951094834822,-0.160402838178072,-1.0896162355993
1580423644.8389,-0.465583276112001,-0.165285725185015,-1.51784542610819
1580423644.87099,-0.439703974975204,-0.943129625391013,-1.22145418478675
1580423644.90308,0.183840695811398,-0.289311055161365,-1.01100175478752
1580423644.93516,-0.122804608224612,0.840100709544519,0.0285648889906156
1580423644.96713,-3.67949950408179,-0.0646982528419926,-1.6018310826276
1580423644.99922,-0.406012054627299,-1.65163653009842,-1.60964370183871
1580423645.03131,-0.474860761425193,0.709239337758451,-1.34645609216449
1580423645.06339,-1.31374074921798,-0.0402838178072784,-1.22243076218814
1580423645.09548,-1.21950102998398,0.0832532234683754,-1.25905241474022
1580423645.12757,-1.24538033112077,0.317631799801632,-1.18971541924163
1580423645.15966,-1.47145799954223,0.00805676356145568,-1.05641260395209
1580423645.19174,-1.99685664148928,0.0236820019836728,-0.44263370717937
1580423645.22383,-1.8498817425803,0.161867704280155,0.32544441901274
1580423645.25592,-1.17946135652705,-0.163820859082932,0.968032349126421
1580423645.288,-0.543221179522392,0.580819409475854,1.69851224536507
1580423645.32009,-0.748302433813992,0.550545510032808,1.33424887464713
1580423645.35218,-0.931898985275044,0.115968566414892,0.602304112306403
1580423645.38427,-1.56423285267414,0.124269474326695,-0.187258716716258
1580423645.41635,-2.2683451590753,-0.0510261692225527,-0.198001068131532
1580423645.44844,-1.57546349279011,-0.0710460059510183,-0.690684367132066
1580423645.48053,-1.33815518425269,-0.0178225375753414,-1.03346303501946
1580423645.51262,-0.788830395971619,-0.320561532005799,-1.33913176165408
1580423645.5447,-0.231692988479438,-0.350835431448845,-1.14381628137636
1580423645.57679,-0.377203021286336,-0.24682993820096,-1.02760357061112
1580423645.60888,-0.617929350728618,-0.311284046692608,-1.01393148699168
1580423645.64097,-0.852307927061876,-0.355230029755093,-1.16725413900969
1580423645.67305,-0.426520180056459,-0.0427252613107498,-1.52077515831235
1580423645.70514,-0.45972381170367,-0.418219272144656,-1.41921110856794
1580423645.73723,0.115968566414892,-0.97242694743267,-1.20192263675898
1580423645.76932,-0.44263370717937,0.627695124742505,1.1574883649958
1580423645.8014,-3.22929732204166,0.417242694743265,-1.46803997863737
1580423645.83349,0.353765163653009,-0.907972838941024,-2.11306935225452
1580423645.86558,-1.10133516441596,0.470954451819637,-1.43434805828946
1580423645.89767,-1.14821087968261,-0.116945143816281,-1.2004577706569
1580423645.92975,-1.19020370794232,0.229251544975966,-1.21901274128328
1580423645.96184,-1.29762722209506,0.27417410543984,-1.21217669947356
1580423645.99393,-1.37721828030823,0.133546959639887,-0.999282825970855
1580423646.02601,-2.08426031891356,0.163820859082932,-0.424078736552987
1580423646.0581,-1.80007629510948,0.315678644998854,0.474372472724497
1580423646.09019,-1.11647211413748,-0.150148775463492,1.40700389105058
1580423646.12228,-0.606698710612649,0.218020904859998,1.88552681773098
1580423646.15436,-0.815686274509805,0.430914778362705,1.26295872434577
1580423646.18645,-0.908949416342413,0.135011825741969,0.30835431448844
1580423646.21854,-1.51540398260471,0.172121766994735,-0.378179598687725
1580423646.25095,-1.86257724879835,-0.00805676356145568,-0.159914549477378
1580423646.28303,-1.37428854810407,-0.0231937132829785,-0.800061036087587
1580423646.31512,-1.17799649042496,-0.0251468680857556,-0.989028763256275
1580423646.34721,-0.779552910658428,-0.359136339360647,-1.16969558251316
1580423646.3793,-0.519783321889067,-0.318608377203022,-1.06031891355764
1580423646.41138,-0.589608606088349,-0.297611963073168,-0.808850232700085
1580423646.44347,-0.769298847943848,-0.215091172655832,-1.04127565423056
1580423646.47556,-0.88014038300145,-0.195071335927366,-1.0808270389868
1580423646.50765,-0.40161745632105,-0.174074921797512,-1.46364538033112
1580423646.53974,-0.464118410009918,-0.863538567177844,-1.28444342717632
1580423646.57182,0.027588311589227,-0.288822766460671,-1.10963607232776
1580423646.60391,-0.763439383535516,0.191165026321812,1.2776073853666
1580423646.636,-2.43143358510719,0.259525444419012,-0.806408789196613
1580423646.66809,0.209231708247501,-0.85963225757229,-1.96560616464485
1580423646.70018,-1.09987029831388,0.564705882352943,-1.38454261081865
1580423646.73226,-1.18043793392843,0.115480277714198,-1.16383611810483
1580423646.76435,-1.24049744411383,0.0534676127260241,-1.225848783093
1580423646.79644,-1.26637674525063,0.231204699778743,-1.24440375371939
1580423646.82853,-1.53591210803387,0.177981231403066,-0.802502479591059
1580423646.86061,-1.85378805218586,0.0803234912642097,-0.224368657969023
1580423646.8927,-1.74782940413519,0.0271000228885327,0.394781414511328
1580423646.92479,-1.15260547798886,0.0510261692225527,1.11647211413748
1580423646.95688,-0.481696803234913,0.486579690241854,1.73611047531853
1580423646.98897,-0.697520408941786,0.096437018387121,1.05885404745556
1580423647.02105,-0.826428625925079,-0.0251468680857556,0.760997940032045
1580423647.05314,-1.28444342717632,0.135500114442664,-0.188723582818341
1580423647.08523,-2.14236667429618,0.364507515068283,-0.182375829709315
1580423647.11732,-1.63942931258106,-0.103273060196841,-0.668711375600823
1580423647.1494,-1.43874265659571,-0.0778820477607383,-0.995864805065995
1580423647.18149,-0.90064850843061,-0.240970473792629,-1.15162890058747
1580423647.21358,-0.480720225833524,-0.551033798733501,-1.18727397573815
1580423647.24567,-0.49390402075227,-0.657969024185549,-0.90064850843061
1580423647.27776,-0.547615777828641,-0.281498435950256,-1.01979095140002
1580423647.30984,-0.81861600671397,-0.179934386205844,-0.89723048752575
1580423647.34193,-0.617441062027924,0.0534676127260241,-1.65651941710536
1580423647.37402,-0.851819638361182,-0.659922178988326,-1.12672617685206
1580423647.40611,0.222415503166246,-0.551522087434195,-1.17701991302357
1580423647.43819,-0.0104982070649271,0.663340199893188,-0.771252002746625
1580423647.47028,-2.35965514610514,0.565682459754331,0.742442969405662
1580423647.50237,-0.751720454718853,-1.30641641870756,-1.243427176318
1580423647.53451,-0.0495613031204698,-0.0896009765774011,-0.905531395437553
1580423647.5666,-1.20094605935759,0.337163347829403,-0.974380102235447
1580423647.59869,-1.26344701304646,0.193118181124589,-1.17701991302357
1580423647.63078,-1.10475318532082,-0.144289311055161,-1.18532082093538
1580423647.66287,-1.31325246051728,0.319584954604409,-1.05787747005417
1580423647.69495,-1.56032654306859,0.23999389639124,-0.664805065995269
1580423647.72704,-1.8244907301442,0.152590218966964,-0.107179369802395
1580423647.75913,-1.73757534142061,-0.0935072861829553,0.406988632028686
1580423647.79122,-1.12281986724651,0.0451667048142212,1.03883421072709
1580423647.8233,-0.412359807736324,0.577889677271688,1.89480430304418
1580423647.85539,-0.672129396505683,0.182375829709315,1.29079118028534
1580423647.88748,-0.851819638361182,-0.00415045395590141,0.651621271076525
1580423647.91957,-1.3029983978027,0.428961623559928,-0.119874876020447
1580423647.95166,-2.13308918898299,0.253177691309986,-0.43579766536965
1580423647.98374,-1.55837338826581,-0.0324711985961699,-0.814709697108416
1580423648.01583,-1.34938582436866,-0.0173342488746471,-1.1750667582208
1580423648.04792,-0.862073701075762,-0.472907606622416,-1.26295872434577
1580423648.08001,-0.485603112840467,-0.423590447852293,-1.22829022659647
1580423648.11209,-0.371343556878005,-0.35718318455787,-0.927504386968796
1580423648.14418,-0.590585183489738,-0.459235523002976,-1.04762340733959
1580423648.17627,-0.69800869764248,-0.389410238803693,-0.94508278019379
1580423648.20836,-0.661387045090409,0.0212405584802013,-1.43337148088808
1580423648.24045,-0.636484321355001,-0.027588311589227,-1.15114061188678
1580423648.27253,0.0949721522850382,-1.05348287174792,-1.21803616388189
1580423648.30462,-0.0046387426565957,0.0212405584802013,-0.709239337758449
1580423648.33671,-1.17262531471733,0.464118410009917,0.81861600671397
1580423648.3688,-1.12867933165484,-0.44263370717937,-0.93141069657435
1580423648.40089,-0.363530937666896,0.198001068131532,-1.38600747692073
1580423648.43297,-0.974380102235447,-0.0334477759975584,-1.17311360341802
1580423648.46506,-1.19850461585412,0.0329594872968642,-1.29225604638743
1580423648.49715,-1.25465781643397,0.0954604409857325,-1.27418936446174
1580423648.52924,-1.32350652323186,0.167727168688486,-1.07447928587777
1580423648.56132,-1.67751583123522,0.221438925764858,-0.682383459220263
1580423648.59341,-1.85671778439002,0.285893034256503,-0.0422369726100555
1580423648.6255,-1.71853208209354,0.291752498664835,0.495857175555045
1580423648.65759,-1.1574883649958,0.194583047226672,1.34303807125963
1580423648.68968,-0.382574196993973,0.241947051194018,1.92751964599069
1580423648.72176,-0.840100709544519,-0.0485847257190812,1.06227206836042
1580423648.75385,-1.1408865491722,0.037842374303807,0.192629892423895
1580423648.78594,-1.51393911650263,0.0534676127260241,-0.361089494163425
1580423648.81796,-1.76833752956436,-0.0754406042572668,-0.383550774395362
1580423648.85005,-1.24196231021591,0.11108567940795,-0.764415960936905
1580423648.88214,-1.02516212710765,0.0549324788281069,-1.05641260395209
1580423648.91423,-0.620859082932784,-0.174563210498206,-1.16774242771038
1580423648.94631,-0.305424582284276,-0.352788586251622,-1.1408865491722
1580423648.9784,-0.586190585183489,-0.463630121309224,-0.871351186388953
1580423649.01049,-0.647226672770275,-0.239017318989852,-1.0207675288014
1580423649.04258,-0.874769207293813,-0.173586633096818,-1.10280003051804
1580423649.07467,-0.595956359197375,-0.226321812771801,-1.40016784924086
1580423649.10676,-0.323979552910659,-0.579842832074464,-1.32594796673533
1580423649.13884,0.135988403143358,-0.214602883955138,-1.14772259098192
1580423649.17093,-0.198001068131532,0.443610284580757,0.696543831540399
1580423649.20302,-3.24589913786526,0.384039063096054,-0.800061036087587
1580423649.23511,-0.468024719615473,-1.18385595483329,-1.81814297703517
1580423649.2672,-0.744884412909132,0.762951094834822,-1.25416952773327
1580423649.29929,-0.993423361562524,0.0891126878767068,-1.10377660791943
1580423649.33137,-1.23854428931105,-0.048096437018387,-1.11793698023957
1580423649.36346,-1.19362172884718,0.437262531471731,-1.21705958648051
1580423649.39555,-1.32106507972839,0.116456855115587,-1.15846494239719
1580423649.42764,-1.82497901884489,-0.00366216525520713,-0.587167162584878
1580423649.45973,-2.04422064545663,0.25708400091554,0.257572289616235
1580423649.49182,-1.58669413290608,0.109132524605172,1.11696040283818
1580423649.5239,-0.634531166552224,0.105714503700312,1.79226367589838
1580423649.55599,-0.654062714579995,0.378179598687723,1.39382009613184
1580423649.58808,-0.891859311818113,0.206790264744029,0.737071793698025
1580423649.62017,-1.21364156557565,0.233646143282215,-0.199465934233615
1580423649.65226,-1.88943312733654,0.0393072404058898,-0.260990310521096
1580423649.68435,-1.48415350576028,-0.0539559014267184,-0.758556496528573
1580423649.71643,-1.21120012207217,0.0158693827725642,-0.913832303349356
1580423649.74852,-0.828381780727856,-0.424567025253682,-1.17164873731594
1580423649.78061,-0.519295033188373,-0.676523994811932,-1.12721446555276
1580423649.8127,-0.521736476691844,-0.431403067063401,-1.01979095140002
1580423649.84479,-0.68433661402304,-0.312748912794691,-0.966079194323644
1580423649.87688,-0.807385366598002,-0.296635385671779,-1.00123598077363
1580423649.90896,-0.584237430380712,-0.220950637064163,-1.52370489051652
1580423649.94105,-0.901625085831999,-0.364995803768979,-1.15553521019303
1580423649.97314,0.174074921797512,-0.406012054627299,-1.09596398870832
1580423650.00523,0.0788586251621268,0.0666514076447697,-0.778088044556345
1580423650.03732,-0.792248416876479,0.709727626459145,1.64577706569009
1580423650.0694,-1.44948500801099,-0.430914778362707,-0.316655222400245
1580423650.10178,-0.269291218432899,-0.362554360265507,-1.19996948195621
1580423650.13386,-1.01539635309377,0.47925535973144,-1.28004882887007
1580423650.16595,-1.03395132372015,0.148195620660715,-1.16432440680552
1580423650.19804,-1.33376058594644,0.120363164721141,-1.21022354467079
1580423650.23013,-1.34645609216449,0.128664072632944,-0.984634164950027
1580423650.26222,-1.72829785610742,-0.0363775082017241,-0.581795986877241
1580423650.2943,-1.84255741206989,0.12475776302739,-0.0314946211947813
1580423650.32639,-1.64675364309148,0.12475776302739,0.501228351262686
1580423650.35848,-1.02027924010071,0.383062485694666,1.26344701304646
1580423650.39057,-0.265384908827345,0.30151827267872,1.75124742504006
1580423650.42266,-0.838635843442436,0.0588387884336612,1.1150072480354
1580423650.45475,-1.11744869153887,0.183840695811398,0.203860532539863
1580423650.48684,-1.7214618142977,0.168703746089875,-0.35718318455787
1580423650.51892,-1.9607232776379,-0.100343327992675,-0.349370565346762
1580423650.55101,-1.46803997863737,0.267826352330815,-0.995864805065995
1580423650.5831,-1.09449912260624,0.144777599755855,-1.2346379797055
1580423650.61519,-0.624765392538338,-0.304448004882888,-1.2605172808423
1580423650.64728,-0.413824673838407,-0.49732204165713,-1.13746852826734
1580423650.67936,-0.477302204928664,-0.377203021286336,-1.0207675288014
1580423650.71145,-0.472907606622416,-0.139406424048218,-0.931898985275044
1580423650.74354,-0.544197756923781,-0.106691081101701,-1.43923094529641
1580423650.77563,-0.72877088578622,-0.284428168154422,-1.27370107576104
1580423650.80772,0.0075684748607614,-0.509529259174487,-1.17164873731594
1580423650.83981,0.080811779964904,-0.535896849011978,-1.28200198367285
1580423650.87189,-0.73560692759594,0.0832532234683754,1.70925459678035
1580423650.90398,-1.77761501487755,0.167238879987792,-0.0256351567864499
1580423650.93607,0.791760128175785,-0.155519951171129,-1.57790493629358
1580423650.96816,-1.52077515831235,-0.163820859082932,-1.38649576562142
1580423651.00025,-1.03297474631876,0.202883955138475,-1.34059662775616
1580423651.03234,-1.18190280003052,0.357671473258563,-1.29372091248951
1580423651.06442,-1.48024719615473,0.281498435950255,-1.03541618982223
1580423651.09651,-1.84304570077058,0.159914549477378,-0.591561760891127
1580423651.1286,-1.91970702677958,0.106691081101701,0.0451667048142212
1580423651.16069,-1.50514991989014,-0.162844281681544,0.488532845044631
1580423651.19278,-0.84937819485771,0.280033569848172,1.60769054703594
1580423651.22487,-0.40161745632105,0.53247882810712,1.8840619516289
1580423651.25695,-0.795666437781339,0.00805676356145568,0.995864805065995
1580423651.28904,-1.15602349889372,0.173098344396124,0.024170290684367
1580423651.32113,-1.66677347981994,0.148195620660715,-0.241458762493323
1580423651.35322,-1.73464560921645,0.0554207675288012,-0.480720225833524
1580423651.38544,-1.3718471046006,-0.000732433051041426,-0.889417868314641
1580423651.41752,-0.976821545738918,-0.176516365300984,-1.19118028534371
1580423651.44961,-0.542732890821698,-0.304936293583582,-1.19752803845273
1580423651.4817,-0.153078507667658,-0.408941786831464,-1.10963607232776
1580423651.51379,-0.550057221332112,-0.519783321889067,-0.786388952468148
1580423651.54588,-0.639902342259861,-0.388921950102999,-1.02418554970626
1580423651.57797,-0.856702525368124,-0.110597390707255,-1.12770275425345
1580423651.61006,-0.553963530937667,0.0578622110322726,-1.27907225146868
1580423651.64215,-0.270756084534982,-0.646738384069581,-1.32399481193256
1580423651.67423,0.132082093537804,-0.48023193713283,-1.34743266956588
1580423651.70632,-0.293217364766919,0.444098573281451,0.681895170519571
1580423651.73841,-3.70000762951095,0.904554818036164,-1.36696421759365
1580423651.7705,-0.638437476157778,-1.61550316624704,-2.02713054093233
1580423651.80259,-0.639414053559166,0.4484931715877,-1.4655985351339
1580423651.83468,-1.08619821469444,0.160891126878766,-1.08717479209583
1580423651.86677,-1.34206149385824,0.395757991912717,-1.32936598764019
1580423651.89886,-1.30983443961242,0.286381322957197,-1.17018387121385
1580423651.93094,-1.51393911650263,0.156496528572518,-0.790783550774396
1580423651.96303,-1.80984206912337,0.220950637064163,-0.376226443884947
1580423651.99512,-1.8498817425803,0.0769054703593497,0.286381322957197
1580423652.02721,-1.22340733958953,-0.037842374303807,1.11842526894026
1580423652.0593,-0.547615777828641,0.299076829175249,1.73708705271992
1580423652.09139,-0.96217288471809,0.224856946669718,1.1320973525597
1580423652.12348,-0.813244831006333,0.0988784618905925,0.380621042191194
1580423652.15557,-1.21120012207217,0.130617227435721,-0.232669565880826
1580423652.18766,-1.91042954146639,0.0329594872968642,-0.235599298084992
1580423652.21974,-1.3117875944152,-0.143801022354467,-0.619882505531395
1580423652.25183,-1.21022354467079,-0.114991989013504,-1.04762340733959
1580423652.28392,-0.877210650797284,-0.253665980010682,-1.19703974975204
1580423652.31601,-0.545662623025864,-0.189211871519035,-1.12965590905623
1580423652.3481,-0.752208743419548,-0.42896162355993,-0.837170977340353
1580423652.38019,-0.768810559243153,-0.551522087434195,-0.968520637827115
1580423652.41228,-0.837170977340353,-0.189700160219729,-0.86988632028687
1580423652.44437,-0.590585183489738,0.153566796368352,-1.22975509269856
1580423652.47645,-0.399176012817579,-0.531990539406424,-1.26979476615549
1580423652.50854,0.144289311055161,-0.606698710612649,-1.33180743114366
1580423652.54063,-0.0329594872968642,0.254154268711375,-0.432867933165484
1580423652.57272,-3.06767376211185,0.939711604486153,0.971450370031281
1580423652.60481,-0.472907606622416,-1.82156099794003,-1.28786144808118
1580423652.6369,-0.275638971541925,0.0285648889906156,-0.811291676203556
1580423652.66885,-1.34352635996033,0.224368657969023,-1.26100556954299
1580423652.70094,-1.20631723506523,0.169680323491264,-1.10963607232776
1580423652.73303,-1.2263370717937,0.227298390173189,-1.28102540627146
1580423652.76512,-1.28932631418326,0.219485770962081,-1.11989013504234
1580423652.79721,-1.83132677195392,0.0656748302433812,-0.562752727550164
1580423652.8293,-1.93484397650111,0.221927214465552,0.137453269245441
1580423652.86139,-1.52272831311513,0.117433432516975,0.745860990310522
1580423652.89347,-0.88697642481117,0.067139696345464,1.73122758831159
1580423652.92556,-0.448981460288396,0.302006561379415,1.63991760128176
1580423652.95765,-0.84254215304799,0.0959487296864268,1.00856031128405
1580423652.98974,-0.938735027084764,0.0612802319371326,-0.0788586251621268
1580423653.02183,-1.80202944991226,0.235599298084992,-0.383550774395362
1580423653.05392,-1.56716258487831,-0.0520027466239412,-0.560799572747387
1580423653.08601,-1.52370489051652,0.01196307316701,-0.937758449683376
1580423653.1181,-1.10768291752499,-0.212161440451666,-1.22096589608606
1580423653.15018,-0.616952773327229,-0.190676737621118,-1.18922713054093
1580423653.18227,-0.399176012817579,-0.252689402609294,-1.11598382543679
1580423653.21436,-0.685801480125123,-0.211673151750972,-0.929945830472267
1580423653.24645,-0.865491721980622,-0.212161440451666,-0.799084458686199
1580423653.27854,-0.591561760891127,-0.38110933089189,-1.25075150682841
1580423653.31063,-0.605722133211261,-0.296635385671779,-1.0207675288014
1580423653.34272,0.2434119172961,-0.405523765926604,-1.28542000457771
1580423653.37481,-0.0686045624475469,-0.389410238803693,-1.05885404745556
1580423653.40689,-0.765392538338293,0.733165484092471,1.59645990691997
1580423653.43898,-1.49001297016861,-0.0744640268558783,-0.166750591287098
1580423653.47107,0.260990310521095,-0.457770656900893,-1.43727779049363
1580423653.50316,-1.40114442664225,-0.0646982528419926,-1.34645609216449
1580423653.53525,-1.0642252231632,0.170656900892652,-1.21852445258259
1580423653.56734,-1.24196231021591,0.236087586785686,-1.25856412603952
1580423653.59943,-1.43727779049363,0.227786678873883,-0.993423361562524
1580423653.63152,-1.74538796063172,0.0700694285496297,-0.547127489127947
1580423653.6636,-1.74685282673381,0.0134279392690928,0.0148928053711757
1580423653.69569,-1.35622186617838,0.0847180895704582,0.472907606622414
1580423653.72778,-0.944594491493095,0.391363393606468,1.33180743114366
1580423653.75987,-0.413824673838407,0.293705653467612,1.66775005722133
1580423653.79196,-0.752697032120242,0.0666514076447697,1.2175478751812
1580423653.82405,-1.03736934462501,0.0153810940718699,-0.232181277180132
1580423653.85614,-1.99783321889067,0.185793850614175,-0.141847867551689
1580423653.88823,-1.46852826733806,-0.0905775539787896,-0.392828259708553
1580423653.92032,-1.47536430914778,0.102784771496147,-0.739513237201495
1580423653.95264,-1.03443961242084,-0.00805676356145568,-0.947035934996567
1580423653.98473,-0.656015869382772,-0.261478599221791,-1.22096589608606
1580423654.01681,-0.43579766536965,-0.499275196459907,-1.04225223163195
1580423654.0489,-0.657969024185549,-0.359136339360647,-0.966567483024338
1580423654.08099,-0.740489814602883,0.0920424200808725,-0.770275425345236
1580423654.11308,-0.878675516899367,0.112550545510032,-1.22291905088884
1580423654.14517,-0.439703974975204,-0.524177920195315,-1.20729381246662
1580423654.17726,0.0510261692225527,-0.41870756084535,-1.2859082932784
1580423654.20935,0.201419089036392,-0.0441901274128327,-1.19703974975204
1580423654.24144,-0.510017547875181,0.506599526970323,1.22340733958953
1580423654.27353,-3.16093690394446,0.131593804837109,-1.24831006332494
1580423654.30562,-0.174563210498206,-1.29811551079576,-1.88601510643168
1580423654.33771,-0.738048371099412,0.841565575646602,-1.20241092545968
1580423654.3698,-1.15504692149233,0.0202639810788128,-1.21217669947356
1580423654.40189,-1.19899290455482,0.0793469138628211,-1.26149385824369
1580423654.43397,-1.32252994583047,0.2434119172961,-1.15504692149233
1580423654.46606,-1.57058060578317,0.0856946669718468,-0.810803387502862
1580423654.49815,-1.79177538719768,0.33228046082246,-0.253665980010682
1580423654.53024,-1.77907988097963,0.135988403143358,0.394781414511328
1580423654.56233,-1.23805600061036,0.188723582818341,1.33473716334783
1580423654.59442,-0.514900434882124,0.28101014724956,1.89626916914626
1580423654.62651,-0.844007019150073,0.281986724650949,1.52663462272069
1580423654.6586,-1.06520180056458,0.117433432516975,0.430914778362705
1580423654.69069,-1.54860761425193,0.0539559014267184,-0.550545510032807
1580423654.72278,-1.95193408102541,-0.168703746089875,-0.327397573815519
1580423654.75487,-1.39235523002976,0.118410009918364,-0.897718776226444
1580423654.78696,-1.07594415197986,-0.0939955748836496,-1.06031891355764
1580423654.81905,-0.632089723048752,-0.272709239337759,-1.24147402151522
1580423654.85114,-0.292240787365531,-0.493415732051576,-1.11110093842985
1580423654.88322,-0.39819943541619,-0.535408560311284,-0.925062943465324
1580423654.91531,-0.616952773327229,-0.513923857480735,-1.15358205539025
1580423654.9474,-0.561776150148775,0.0632333867399097,-1.29567406729229
1580423654.97949,-0.481208514534218,-0.283451590753033,-1.43825436789502
1580423655.01158,-0.272220950637065,-0.363042648966202,-1.42018768596933
1580423655.04367,0.0827649347676811,-0.925551232166018,-1.22926680399786
1580423655.07576,-0.132082093537804,0.748790722514688,-0.0612802319371326
1580423655.10785,-3.85088883802548,0.680918593118182,-0.936781872281987
1580423655.13994,-0.288334477759976,-1.64382391088731,-1.56911573968109
1580423655.17203,-0.730235751888303,0.928480964370184,-1.44069581139849
1580423655.20412,-1.04371709773404,0.157473105973907,-1.07936217288472
1580423655.2363,-1.22438391699092,0.0974135957885096,-1.15455863279164
1580423655.26839,-1.2092469672694,0.275638971541923,-1.23707942320897
1580423655.30048,-1.42702372777905,0.0588387884336612,-0.946059357595178
1580423655.33256,-1.74782940413519,0.0236820019836728,-0.468513008316167
1580423655.36465,-1.78103303578241,0.210208285648889,0.155031662470435
1580423655.39674,-1.46462195773251,0.403082322423131,0.878675516899367
1580423655.42883,-0.905531395437553,0.265384908827343,1.3713588158999
1580423655.46092,-0.48364995803769,-0.024170290684367,1.53444724193179
1580423655.49301,-0.992446784161135,0.216067750057221,1.225848783093
1580423655.5251,-1.38747234302281,-0.0300297550926985,-0.225345235370412
1580423655.55719,-1.92117189288167,0.110109102006561,-0.190188448920424
1580423655.58928,-1.46462195773251,0.0520027466239412,-0.601815823605707
1580423655.62137,-1.29811551079576,0.0368657969024184,-0.903578240634776
1580423655.65346,-0.862561989776456,-0.407476920729382,-1.2693064774548
1580423655.68555,-0.386968795300222,-0.269779507133594,-1.3205767910277
1580423655.71764,-0.210208285648889,-0.469001297016861,-1.09401083390555
1580423655.74972,-0.472419317921721,-0.643808651865415,-0.926039520866713
1580423655.78181,-0.51099412527657,-0.39478141451133,-1.02223239490349
1580423655.8139,-0.660410467689021,0.0046387426565957,-1.38063630121309
1580423655.84599,-0.870862897688259,0.161379415579461,-1.13453879606317
1580423655.87808,-0.0974135957885096,-0.791760128175785,-1.11354238193332
1580423655.91017,-0.070557717250324,-0.271244373235676,-0.981704432745861
1580423655.94226,-0.596444647898069,0.398687724116883,1.55153734645609
1580423655.97435,-2.34988937209125,0.0905775539787896,-1.09303425650416
1580423656.00644,-0.0524910353246355,-0.95875486381323,-1.7556420233463
1580423656.03853,-0.824475471122302,0.422613870450903,-1.25758754863813
1580423656.07062,-1.11549553673609,0.257572289616235,-1.15992980849927
1580423656.10271,-1.37526512550546,0.0178225375753414,-1.21901274128328
1580423656.1348,-1.18434424353399,0.167727168688486,-1.13600366216525
1580423656.16688,-1.62087434195468,0.11108567940795,-0.822522316319525
1580423656.19897,-1.94607461661708,0.11108567940795,-0.292729076066225
1580423656.23106,-1.6706797894255,0.0974135957885096,0.37671473258564
1580423656.26315,-1.17409018081941,0.185793850614175,1.17164873731594
1580423656.29524,-0.637949187457084,0.385503929198137,1.95095750362402
1580423656.32733,-0.815686274509805,0.143312733653772,1.41872281986725
1580423656.35942,-0.933363851377127,0.0476081483176927,0.415777828641183
1580423656.39151,-1.42800030518044,0.109132524605172,-0.0817883573662925
1580423656.4236,-1.94168001831083,0.103761348897535,-0.353276874952316
1580423656.45569,-1.44997329671168,0.147219043259327,-0.897718776226444
1580423656.48778,-1.16090638590066,-0.103761348897535,-1.15016403448539
1580423656.52014,-0.681895170519569,-0.404058899824522,-1.28053711757076
1580423656.55223,-0.187747005416952,-0.470466163118944,-1.15260547798886
1580423656.58432,-0.35718318455787,-0.467536430914778,-0.831799801632716
1580423656.61641,-0.472907606622416,-0.404547188525216,-1.06666666666667
1580423656.6485,-0.549568932631418,-0.202883955138475,-1.25075150682841
1580423656.68059,-0.730724040588997,0.0402838178072784,-1.41188677805753
1580423656.71268,-0.496345464255741,-0.802014190890365,-1.25905241474022
1580423656.74477,0.0129396505683985,-0.39478141451133,-1.06715495536736
1580423656.77685,-0.304448004882888,1.03492790112154,0.834729533836882
1580423656.80894,-2.83476005188068,-0.302494850080111,-0.67750057221332
1580423656.84103,-0.625741969939726,-1.49782558937972,-1.41481651026169
1580423656.87312,-0.276615548943314,1.14821087968261,-1.41579308766308
1580423656.90521,-1.4055390249485,-0.0642099641412983,-1.08278019378958
1580423656.9373,-1.28932631418326,-0.0471198596169984,-1.14625772487983
1580423656.96939,-1.08668650339513,0.475349050125885,-1.15358205539025
1580423657.00148,-1.45094987411307,0.120851453421835,-1.02320897230488
1580423657.03357,-1.80202944991226,-0.0563973449301898,-0.656015869382772
1580423657.06566,-1.88113221942474,0.201907377737086,0.108644235904478
1580423657.09775,-1.57448691538872,0.345464255741206,0.882581826504921
1580423657.12984,-0.741466392004272,0.557869840543223,1.74392309452964
1580423657.16193,-0.32983901731899,0.140383001449607,1.58767071030747
1580423657.19402,-0.997329671168078,-0.024170290684367,0.952895399404898
1580423657.2261,-1.29127946898604,0.192629892423895,-0.108155947203784
1580423657.25819,-2.00418097199969,0.112062256809338,-0.212161440451666
1580423657.29028,-1.54323643854429,-0.131105516136415,-0.633554589150835
1580423657.32237,-1.25954070344091,0.0974135957885096,-1.08473334859235
1580423657.35446,-0.742931258106355,-0.0983901731898982,-1.28249027237354
1580423657.38655,-0.322026398107882,-0.402594033722439,-1.17213702601663
1580423657.41864,-0.258548867017625,-0.48023193713283,-0.982192721446555
1580423657.45073,-0.598886091401541,-0.366460669871062,-1.16237125200275
1580423657.48282,-0.79127183947509,0.024170290684367,-0.977798123140307
1580423657.51491,-0.514900434882124,-0.102296482795452,-1.62087434195468
1580423657.547,-0.860120546272984,-0.67750057221332,-0.979751277943084
1580423657.57909,0.191165026321812,-0.436774242771039,-1.01783779659724
1580423657.61117,-0.133546959639887,0.0319829098954756,-0.769787136644542
1580423657.64326,-3.0720683604181,0.761486228732739,0.783459220263982
1580423657.67535,-0.553475242236972,-1.26637674525063,-1.44704356450752
1580423657.70744,-0.335698481727322,0.295170519569695,-0.947524223697261
1580423657.73953,-1.37868314641032,-0.0124513618677042,-1.11305409323262
1580423657.77162,-1.25416952773327,0.279056992446783,-1.12721446555276
1580423657.80362,-1.07838559548333,0.312748912794689,-1.31764705882353
1580423657.83571,-1.27272449835966,0.162844281681544,-1.25368123903258
1580423657.8678,-1.85574120698863,0.127199206530861,-0.661387045090409
1580423657.89989,-2.07351796749828,0.23657587548638,0.120851453421835
1580423657.93198,-1.65554283970397,-0.0500495918211641,0.956801709010453
1580423657.96407,-0.641855497062638,0.211673151750972,1.75271229114214
1580423657.99616,-0.514900434882124,0.384039063096054,1.64577706569009
1580423658.02825,-0.892835889219501,0.11792172121767,1.02369726100557
1580423658.06034,-1.10768291752499,0.01196307316701,-0.00170901045242999
1580423658.09243,-1.60817883573663,0.0461432822156098,-0.213626306553749
1580423658.12452,-1.6364995803769,0.0832532234683754,-0.471931029221027
1580423658.15661,-1.35036240177005,0.193118181124589,-1.02467383840696
1580423658.1887,-0.983169298847944,-0.153566796368352,-1.19020370794232
1580423658.22078,-0.605722133211261,-0.368902113374533,-1.29079118028534
1580423658.25287,-0.464606698710613,-0.461676966506447,-1.05201800564584
1580423658.28497,-0.67750057221332,-0.494880598153658,-1.08229190508888
1580423658.31705,-0.668223086900129,-0.515388723582818,-1.00807202258335
1580423658.34914,-0.479743648432136,-0.132570382238498,-1.42604715037766
1580423658.38123,-0.939711604486153,0.115968566414892,-1.10231174181735
1580423658.41332,0.00805676356145568,-0.600350957503624,-1.16530098420691
1580423658.44541,0.132082093537804,-0.339116502632182,-1.22291905088884
1580423658.4775,-0.339116502632182,0.758068207827879,1.06861982146944
1580423658.50959,-3.06034943160143,-0.0549324788281069,-1.56130312046998
1580423658.54168,-0.457282368200199,-0.869398031586176,-1.45534447241932
1580423658.57377,-0.571053635461967,0.637949187457085,-1.37770656900893
1580423658.60586,-1.33473716334783,-0.0813000686655982,-0.994399938963912
1580423658.63795,-1.23561455710689,-0.0656748302433812,-1.2087586785687
1580423658.67004,-1.21120012207217,0.241947051194018,-1.17653162432288
1580423658.70213,-1.54372472724498,0.0700694285496297,-0.809826810101473
1580423658.73422,-1.85378805218586,0.23999389639124,-0.257084000915542
1580423658.76631,-1.81716639963378,0.315678644998854,0.504646372167546
1580423658.7984,-1.0808270389868,0.167727168688486,1.44997329671168
1580423658.83049,-0.430914778362707,-0.0417486839093613,1.73171587701228
1580423658.86258,-0.95191882200351,0.00805676356145568,1.13649195086595
1580423658.89467,-1.15602349889372,0.0427252613107498,0.588632028686963
1580423658.92676,-1.4572976272221,0.300541695277332,-0.549080643930724
1580423658.95885,-1.90212863355459,0.0261234454871442,-0.246341649500266
1580423658.99094,-1.4397192339971,0.0578622110322726,-0.918715190356298
1580423659.02303,-1.08522163729305,-0.0856946669718468,-1.06520180056458
1580423659.05512,-0.644296940566109,-0.39819943541619,-1.16823071641108
1580423659.08734,-0.300541695277333,-0.473884184023804,-1.09010452429999
1580423659.11943,-0.420172426947433,-0.318120088502328,-0.768322270542459
1580423659.15152,-0.645761806668192,-0.177492942702372,-1.07838559548333
1580423659.18361,-0.941176470588236,-0.0734874494544897,-0.978286411841001
1580423659.2157,-0.56226443884947,-0.131105516136415,-1.53640039673457
1580423659.24779,-0.514900434882124,-0.879652094300756,-1.22340733958953
1580423659.27988,0.168703746089875,-0.502204928664073,-1.24000915541314
1580423659.31197,-0.0524910353246355,0.415289539940488,-0.453376058594644
1580423659.34406,-4.10235751888304,0.334721904325932,-1.12672617685206
1580423659.37615,-0.614999618524452,-2.7644464789807,-1.37331197070268
1580423659.40824,-0.401129167620356,0.903578240634776,-1.44069581139849
1580423659.44033,-1.11989013504234,0.477302204928662,-1.17604333562219
1580423659.47242,-1.23659113450828,0.0280766002899213,-1.09987029831388
1580423659.50451,-1.18629739833677,0.306401159685663,-1.18483253223468
1580423659.5366,-1.32741283283742,0.321538109407186,-1.00709544518196
1580423659.56869,-1.78542763408866,-0.0720225833524069,-0.608163576714732
1580423659.60078,-1.92605477988861,0.178957808804455,0.037842374303807
1580423659.63287,-1.69167620355535,0.318120088502326,0.737560082398719
1580423659.66496,-0.640878919661249,0.23315785458152,1.73757534142062
1580423659.69705,-0.406012054627299,0.0407721065079727,1.40212100404364
1580423659.72914,-0.90406652933547,0.037842374303807,0.936293583581293
1580423659.76123,-1.09938200961318,0.112062256809338,0.0656748302433812
1580423659.79332,-1.77761501487755,0.161867704280155,-0.352788586251622
1580423659.82541,-1.57155718318456,-0.0759288929579611,-0.490974288548104
1580423659.8575,-1.48073548485542,0.067139696345464,-0.963637750820173
1580423659.8896,-1.03443961242084,-0.109132524605172,-1.16969558251316
1580423659.92169,-0.597909514000152,-0.396734569314107,-1.23756771190967
1580423659.95378,-0.420660715648127,-0.503181506065461,-1.03150988021668
1580423659.98587,-0.535896849011978,-0.383062485694667,-0.80836194399939
1580423660.01796,-0.542244602121004,-0.187747005416952,-1.02906843671321
1580423660.05005,-0.823987182421607,0.0354009308003356,-1.17067215991455
1580423660.08214,-0.583749141680018,-0.0817883573662925,-1.30788128480964
1580423660.11423,-0.303959716182193,-0.696055542839703,-1.10426489662013
1580423660.14632,0.155519951171129,-0.340581368734265,-1.19508659494926
1580423660.17841,-0.518318455786984,0.150637064164187,1.59938963912413
1580423660.2105,-2.82352941176471,0.970473792629893,-2.01492332341497
1580423660.24259,-0.501716639963378,-1.62526894026093,-1.92117189288167
1580423660.27468,-0.80152590218967,0.477302204928662,-1.67995727473869
1580423660.30677,-1.18141451132982,0.25708400091554,-1.03639276722362
1580423660.33886,-1.29225604638743,0.275150682841229,-1.08326848249027
1580423660.37106,-1.1067063401236,0.296635385671777,-1.13698023956664
1580423660.40315,-1.46608682383459,0.109132524605172,-0.907972838941024
1580423660.43524,-1.68191042954147,0.129640650034332,-0.438239108873121
1580423660.46733,-1.69851224536507,0.0861829556725411,0.230716411078049
1580423660.49943,-1.34840924696727,0.0690928511482412,0.747325856412605
1580423660.53152,-0.93482871747921,0.237552452887769,1.69265278095674
1580423660.56361,-0.638437476157778,0.240482185091935,1.63454642557412
1580423660.5957,-0.826428625925079,0.128664072632944,0.893324177920196
1580423660.62779,-1.2175478751812,0.136476691844052,-0.0925307087815668
1580423660.65988,-2.21219195849546,0.328374151216906,-0.335698481727322
1580423660.69197,-1.56569771877623,0.0554207675288012,-0.700450141145952
1580423660.72406,-1.39186694132906,0.0544441901274126,-1.09889372091249
1580423660.75615,-0.983169298847944,-0.332280460822462,-1.17213702601663
1580423660.78824,-0.510505836575875,-0.595956359197375,-1.26247043564508
1580423660.82033,-0.250247959105822,-0.331792172121768,-0.885999847409781
1580423660.85242,-0.533943694209201,-0.313725490196079,-0.98609903105211
1580423660.88451,-0.976821545738918,-0.283451590753033,-0.733653772793163
1580423660.9166,-0.893324177920196,-0.0153810940718699,-1.28932631418326
1580423660.94869,-0.628183413443198,-0.369390402075227,-1.04371709773404
1580423660.98078,0.363530937666894,-0.835217822537576,-1.38210116731518
1580423661.01288,-0.235111009384298,0.35620660715648,-0.918226901655604
1580423661.04497,-2.98173495078965,1.2175478751812,0.312260624093994
1580423661.07706,-0.546150911726558,-1.50759136339361,-1.53298237582971
1580423661.10915,-0.272709239337759,0.0827649347676811,-1.03590447852293
1580423661.14124,-1.38942549782559,0.208743419546806,-0.995864805065995
1580423661.17333,-1.26247043564508,0.112062256809338,-1.12623788815137
1580423661.20542,-1.07301441977569,0.0383306630045013,-1.22340733958953
1580423661.23751,-1.25416952773327,0.249759670405126,-1.12770275425345
1580423661.2696,-1.58864728770886,0.0822766460669868,-0.802502479591059
1580423661.30169,-1.96316472114137,-0.0402838178072784,-0.119386587319752
1580423661.33378,-1.83474479285878,0.135500114442664,0.732188906691082
1580423661.36587,-0.931898985275044,-0.0710460059510183,1.70388342107271
1580423661.39796,-0.48706797894255,0.274662394140535,1.84304570077058
1580423661.43005,-0.88697642481117,0.415777828641183,1.21120012207217
1580423661.46214,-0.992446784161135,-0.070557717250324,0.220462348363469
1580423661.49424,-1.51882200350957,-0.0212405584802013,-0.253177691309988
1580423661.52633,-1.73220416571298,0.0114747844663157,-0.360112916762036
1580423661.55842,-1.36159304188602,0.186770428015564,-0.861097123674373
1580423661.59051,-1.08668650339513,-0.0837415121690697,-1.12428473334859
1580423661.6226,-0.661875333791103,-0.375738155184253,-1.24000915541314
1580423661.65494,-0.475349050125887,-0.477302204928664,-1.1150072480354
1580423661.68703,-0.639902342259861,-0.43579766536965,-1.0041657129778
1580423661.71912,-0.577401388570992,-0.268314641031511,-0.909925993743801
1580423661.75121,-0.712169069962615,0.0437018387121384,-1.26149385824369
1580423661.7833,-0.716563668268863,-0.0993667505912867,-1.46071564812696
1580423661.81539,-0.340581368734265,-0.89723048752575,-1.20436408026245
1580423661.84748,0.00659189745937283,-0.457282368200199,-1.19655146105135
1580423661.87957,-0.379156176089113,0.65210955977722,0.389898527504386
1580423661.91166,-2.68387884336614,1.42751201647974,0.147219043259327
1580423661.94375,-0.640390630960555,-1.63845273517967,-1.81667811093309
1580423661.97584,-0.52124818799115,0.34253452353704,-1.23512626840619
1580423662.00794,-1.2776073853666,0.365484092469671,-0.928480964370184
1580423662.04002,-1.26100556954299,0.374761577782863,-1.09694056610971
1580423662.07212,-1.02223239490349,0.116945143816281,-1.23073167009995
1580423662.10421,-1.38454261081865,0.156984817273212,-1.07496757457847
1580423662.1363,-1.80202944991226,0.206790264744029,-0.602792401007095
1580423662.16839,-2.06277561608301,0.127199206530861,0.0256351567864499
1580423662.20048,-1.55544365606165,0.0212405584802013,0.875257495994507
1580423662.23257,-0.693125810635538,0.152590218966964,1.86990157930877
1580423662.26466,-0.574959945067521,0.384527351796748,1.4397192339971
1580423662.29675,-0.944594491493095,0.138429846646829,0.581307698176548
1580423662.32884,-1.24831006332494,-0.0451667048142212,-0.198977645532921
1580423662.36093,-2.15359731441215,-0.00317387655451284,-0.155519951171129
1580423662.39302,-1.59743648432135,0.0734874494544897,-0.44605172808423
1580423662.42511,-1.46608682383459,0.268802929732203,-0.982192721446555
1580423662.4572,-1.08326848249027,-0.141359578850995,-1.25075150682841
1580423662.4893,-0.6877546349279,-0.496345464255741,-1.23414969100481
1580423662.52138,-0.516853589684901,-0.586678873884184,-0.977309834439613
1580423662.55348,-0.536385137712672,-0.501228351262684,-1.10963607232776
1580423662.58557,-0.78101777676051,0.0690928511482412,-0.918715190356298
1580423662.61766,-0.777111467154956,0.136476691844052,-1.69362935835813
1580423662.64975,-0.450446326390479,-1.0554360265507,-1.4743877317464
1580423662.68184,0.307866025787746,-0.597909514000152,-1.56716258487831
1580423662.71393,-0.116456855115587,0.910414282444496,-0.265384908827345
1580423662.74602,-4.21905851834897,1.3454795147631,-0.952895399404898
1580423662.77811,-0.119386587319752,-1.54860761425193,-2.15408560311284
1580423662.8102,-0.835217822537576,0.467048142214082,-1.52126344701305
1580423662.84229,-1.31520561532006,0.264408331425955,-1.09987029831388
1580423662.87438,-1.29323262378882,0.0832532234683754,-1.24538033112077
1580423662.90647,-1.30202182040131,-0.0295414663920042,-1.27907225146868
1580423662.93857,-1.59499504081788,0.211673151750972,-0.841565575646602
1580423662.97066,-2.10135042343786,0.109132524605172,-0.189700160219729
1580423663.00275,-1.75515373464561,0.0622568093385212,0.60083924620432
1580423663.03484,-1.1237964446479,0.0236820019836728,1.50661478599222
1580423663.06693,-0.37085526817731,0.502204928664074,1.78884565499352
1580423663.09902,-0.76392767223621,0.402105745021743,1.39967956054017
1580423663.13111,-0.882093537804227,0.0847180895704582,0.447028305485617
1580423663.16321,-1.50222018768597,0.211184863050278,-0.191653315022506
1580423663.1953,-1.90212863355459,0.135500114442664,-0.35718318455787
1580423663.22739,-1.45143816281376,0.0744640268558783,-0.731700617990386
1580423663.25948,-1.15944151979858,-0.0822766460669868,-1.10768291752499
1580423663.29157,-0.658945601586938,-0.420660715648127,-1.27956054016938
1580423663.32366,-0.248783093003738,-0.500251773861295,-1.12819104295415
1580423663.35575,-0.486579690241856,-0.344487678339819,-0.943617914091707
1580423663.38784,-0.583260852979324,-0.282963302052339,-0.996841382467384
1580423663.41993,-0.685313191424429,-0.218509193560692,-1.10182345311665
1580423663.45203,-0.724376287479972,-0.179446097505149,-1.50710307469291
1580423663.48412,-0.546150911726558,-0.47339589532311,-1.27125963225757
1580423663.51621,0.0563973449301898,-0.678477149614709,-1.32594796673533
1580423663.5483,-0.10424963759823,0.559334706645306,0.146242465857938
1580423663.58039,-3.49248493171588,1.00514229037919,0.660410467689022
1580423663.61248,-0.516365300984207,-2.17068741893645,-1.27174792095827
1580423663.64457,-0.130128938735027,0.522713054093234,-1.3288776989395
1580423663.67666,-1.585229266804,0.245365072098878,-1.11158922713054
1580423663.70876,-1.24977492942702,-0.0617685206378269,-1.30690470740826
1580423663.74085,-1.19069199664301,0.214602883955138,-1.33473716334783
1580423663.77294,-1.35915159838254,0.315678644998854,-1.14772259098192
1580423663.80503,-2.01492332341497,-0.0437018387121384,-0.533943694209201
1580423663.83712,-2.15262073701076,0.0842298008697639,0.418707560845348
1580423663.86921,-1.44753185320821,-0.113527122911421,1.20289921416037
1580423663.9013,-0.549080643930724,0.863538567177844,1.85085831998169
1580423663.93339,-0.396734569314107,0.361577782864117,1.44411383230335
1580423663.96548,-0.83228809033341,-0.156984817273212,0.665293354695965
1580423663.99758,-1.24831006332494,0.300053406576637,-0.223880369268329
1580423664.02967,-1.70193026626993,0.213626306553749,-0.241947051194018
1580423664.06176,-1.56520943007553,0.0441901274128327,-0.572518501564049
1580423664.09385,-1.35329213397421,0.189700160219729,-0.885511558709087
1580423664.12594,-0.862073701075762,-0.0158693827725642,-1.19362172884718
1580423664.15803,-0.599374380102235,-0.419684138246739,-1.26100556954299
1580423664.19012,-0.482185091935607,-0.669687953002212,-0.990493629358358
1580423664.22217,-0.672129396505683,-0.429449912260624,-0.972915236133364
1580423664.25426,-0.809338521400779,-0.128175783932249,-0.871839475089647
1580423664.28635,-0.752697032120242,0.0305180437933927,-1.40456244754711
1580423664.31844,-0.575936522468909,-0.586190585183489,-1.24782177462425
1580423664.35053,0.230716411078049,-0.453864347295339,-1.24391546501869
1580423664.38262,0.067139696345464,0.0847180895704582,-0.872327763790341
1580423664.41471,-1.82058442053864,0.178469520103761,0.78443579766537
1580423664.44681,-0.912855725947967,-1.44655527580682,-1.3801480125124
1580423664.4789,-0.0993667505912867,0.584237430380714,-1.14381628137636
1580423664.51099,-1.18385595483329,-0.0949721522850382,-1.41823453116655
1580423664.54308,-1.12135500114443,0.195559624628061,-1.33131914244297
1580423664.57517,-1.37917143511101,0.316655222400243,-1.24049744411383
1580423664.60726,-1.58767071030747,0.0236820019836728,-0.992446784161135
1580423664.63935,-1.86648355840391,0.00122072175173571,-0.437262531471733
1580423664.67144,-2.02224765392538,0.276127260242617,0.315678644998854
1580423664.70353,-1.27125963225757,0.0422369726100555,0.988540474555581
1580423664.73563,-0.552498664835584,0.537361715114063,1.6189211871519
1580423664.76772,-0.539314869916838,0.491950865949491,1.43483634699016
1580423664.79981,-0.708751049057755,-0.0573739223315783,0.789318684672313
1580423664.8319,-1.30543984130617,-0.0734874494544897,0.118898298619058
1580423664.86399,-1.71218432898451,-0.139894712748912,-0.283451590753033
1580423664.89608,-1.76247806515602,0.150148775463492,-0.608163576714732
1580423664.92817,-1.24733348592355,0.203860532539863,-1.00660715648127
1580423664.96026,-0.860120546272984,-0.199954222934309,-1.14479285877775
1580423664.99235,-0.426520180056459,-0.328862439917602,-1.09449912260624
1580423665.02445,-0.270267795834288,-0.385015640497445,-0.939223315785458
1580423665.05654,-0.680430304417486,-0.381597619592585,-1.16237125200275
1580423665.08863,-0.929945830472267,-0.0114747844663157,-1.04029907682918
1580423665.12072,-0.48706797894255,-0.118898298619058,-1.69167620355535
1580423665.15281,-0.822522316319525,-0.800549324788282,-1.07057297627222
1580423665.1849,0.161867704280155,-0.263431754024568,-0.927504386968796
1580423665.21699,0.044678416113527,0.137453269245441,-0.0251468680857556
1580423665.24908,-2.74100862134737,-0.00659189745937283,0.203860532539863
1580423665.28117,-0.696055542839703,-1.33180743114366,-1.30397497520409
1580423665.31327,-0.0368657969024184,0.364507515068283,-0.994888227664607
1580423665.34536,-1.44948500801099,-0.063721675440604,-1.33424887464714
1580423665.37745,-1.16383611810483,0.118410009918364,-1.11842526894026
1580423665.40954,-1.11207751583123,0.221438925764858,-1.25368123903258
1580423665.44163,-1.37331197070268,0.184817273212786,-1.14772259098192
1580423665.47372,-1.79812314030671,-0.0720225833524069,-0.716075379568169
1580423665.50586,-2.02761882963302,0.127199206530861,-0.070557717250324
1580423665.53795,-1.63894102388037,0.294193942168306,0.941176470588236
1580423665.57004,-0.722911421377889,0.381109330891888,1.93386739909972
1580423665.60213,-0.655039291981383,0.275150682841229,1.46755168993667
1580423665.63422,-1.02467383840696,0.110109102006561,0.879163805600061
1580423665.66631,-1.21168841077287,0.167238879987792,-0.246341649500266
1580423665.69841,-1.92947280079347,0.179446097505149,-0.248783093003738
1580423665.7305,-1.37526512550546,-0.0803234912642097,-0.643808651865415
1580423665.76259,-1.18971541924163,0.0202639810788128,-1.09938200961318
1580423665.79468,-0.840588998245213,-0.359624628061342,-1.19606317235065
1580423665.82677,-0.372320134279393,-0.502693217364767,-1.15016403448539
1580423665.85886,-0.240482185091935,-0.471931029221027,-0.873792629892424
1580423665.89095,-0.605722133211261,-0.412359807736324,-0.919203479056993
1580423665.92304,-0.844007019150073,-0.503181506065461,-0.720958266575112
1580423665.95513,-0.677012283512626,-0.0246585793850613,-1.40114442664225
1580423665.98723,-0.679453727016098,-0.455329213397421,-1.1662775616083
1580423666.01932,0.207766842145418,-0.295170519569696,-1.15358205539025
1580423666.05141,-0.0588387884336612,0.149660486762798,-1.0471351186389
1580423666.0835,-2.47635614557107,-0.0656748302433812,-0.197512779430838
1580423666.11559,-0.688242923628595,-1.64235904478523,-1.5251697566186
1580423666.14768,-0.625741969939726,0.706309605554285,-1.38796063172351
1580423666.17977,-1.29225604638743,-0.112550545510032,-1.15162890058747
1580423666.21186,-1.08473334859235,0.0432135500114441,-1.29616235599298
1580423666.24395,-1.57399862668803,0.23315785458152,-1.29860379949645
1580423666.27605,-1.60085450522621,0.211184863050278,-0.99635309376669
1580423666.30814,-1.89968719005112,0.165774013885709,-0.301518272678722
1580423666.34023,-1.92214847028306,0.270267795834286,0.527107652399483
1580423666.37232,-1.04567025253681,-0.285893034256505,1.41530479896239
1580423666.40441,-0.354253452353705,0.356694895857174,1.85964751659419
1580423666.4365,-0.771252002746625,0.329839017318989,1.1150072480354
1580423666.46859,-0.949965667200733,0.0422369726100555,0.0642099641412983
1580423666.50068,-1.34206149385824,-0.261478599221791,0.0954604409857325
1580423666.53278,-1.55251392385748,0.0422369726100555,-0.522713054093233
1580423666.56487,-1.5080796520943,0.0139162279697871,-0.82203402761883
