Timestamp_seconds,Gyro_X_s,Gyro_Y_s,Gyro_Z_s
1580423613.17871,0.823987182421661,0.152590218966907,1.67849240863666
1580423613.1827,1.12916762035547,0.152590218966907,1.67849240863666
1580423613.18669,1.19020370794237,0.091554131380235,1.67849240863666
1580423613.19069,1.19020370794237,0.152590218966907,1.80056458381023
1580423613.19468,1.31227588311594,0.213626306553806,1.61745632104976
1580423613.19867,1.37331197070262,0.274662394140478,1.61745632104976
1580423613.20266,1.43434805828952,0.335698481727377,1.61745632104976
1580423613.20666,1.55642023346309,0.396734569314049,1.61745632104976
1580423613.21065,1.67849240863666,0.457770656900948,1.49538414587619
1580423613.21464,1.61745632104976,0.51880674448762,1.43434805828952
1580423613.21864,1.61745632104976,0.396734569314049,1.43434805828952
1580423613.22263,1.43434805828952,0.274662394140478,1.43434805828952
1580423613.22662,1.19020370794237,0.213626306553806,1.43434805828952
1580423613.23062,0.885023270008332,0.0305180437933359,1.49538414587619
1580423613.23461,0.762951094834762,-0.0305180437933359,1.37331197070262
1580423613.2386,0.579842832074519,-0.152590218966907,1.25123979552905
1580423613.2426,0.457770656900948,-0.152590218966907,0.823987182421661
1580423613.24659,0.640878919661191,-0.274662394140478,0.579842832074519
1580423613.25058,0.885023270008332,-0.335698481727377,0.579842832074519
1580423613.25458,1.19020370794237,-0.640878919661191,0.51880674448762
1580423613.25857,1.67849240863666,-0.70191500724809,0.152590218966907
1580423613.26256,2.04470893415737,-0.640878919661191,0.091554131380235
1580423613.26656,2.59403372243833,-0.640878919661191,0.0305180437933359
1580423613.27055,3.02128633554594,-0.640878919661191,0.0305180437933359
1580423613.27455,3.20439459830618,-0.640878919661191,0.091554131380235
1580423613.27853,3.32646677347975,-0.640878919661191,0.335698481727377
1580423613.28253,3.26543068589308,-0.70191500724809,0.335698481727377
1580423613.28652,3.02128633554594,-0.640878919661191,0.396734569314049
1580423613.29051,2.7771419851988,-0.640878919661191,0.51880674448762
1580423613.29451,2.53299763485165,-0.640878919661191,0.457770656900948
1580423613.2985,2.28885328450451,-0.823987182421661,0.579842832074519
1580423613.3025,1.9226367589838,-0.946059357595232,0.457770656900948
1580423613.30649,1.67849240863666,-1.0681315327688,0.51880674448762
1580423613.31048,1.55642023346309,-1.12916762035547,0.51880674448762
1580423613.31447,1.73952849622333,-1.19020370794237,0.457770656900948
1580423613.31847,2.04470893415737,-1.12916762035547,0.51880674448762
1580423613.32246,2.34988937209118,-0.946059357595232,0.640878919661191
1580423613.32646,2.53299763485165,-1.0070954451819,0.579842832074519
1580423613.33045,2.7161058976119,-0.885023270008332,0.640878919661191
1580423613.33444,2.7161058976119,-0.823987182421661,0.823987182421661
1580423613.33844,2.65506981002522,-0.70191500724809,1.0070954451819
1580423613.34243,2.41092545967808,-0.762951094834762,1.0070954451819
1580423613.34642,2.10574502174404,-0.640878919661191,1.0681315327688
1580423613.35042,2.04470893415737,-0.640878919661191,1.12916762035547
1580423613.35441,1.8616006713969,-0.640878919661191,1.0681315327688
1580423613.35843,1.80056458381023,-0.762951094834762,1.0681315327688
1580423613.36242,1.55642023346309,-0.640878919661191,1.12916762035547
1580423613.36642,1.31227588311594,-0.51880674448762,1.0681315327688
1580423613.37041,1.31227588311594,-0.579842832074519,1.12916762035547
1580423613.3744,1.31227588311594,-0.579842832074519,1.12916762035547
1580423613.3784,1.43434805828952,-0.51880674448762,1.31227588311594
1580423613.38239,1.55642023346309,-0.457770656900948,1.12916762035547
1580423613.38638,1.80056458381023,-0.274662394140478,1.12916762035547
1580423613.39038,1.98367284657047,-0.213626306553806,1.19020370794237
1580423613.39437,2.10574502174404,-0.091554131380235,1.19020370794237
1580423613.39836,2.04470893415737,0.152590218966907,1.25123979552905
1580423613.40236,2.04470893415737,0.152590218966907,1.31227588311594
1580423613.40635,2.10574502174404,0.152590218966907,1.19020370794237
1580423613.41034,1.8616006713969,0.091554131380235,1.25123979552905
1580423613.41434,1.73952849622333,0.213626306553806,1.31227588311594
1580423613.41833,1.61745632104976,0.213626306553806,1.31227588311594
1580423613.42232,1.61745632104976,0.213626306553806,1.31227588311594
1580423613.42632,1.73952849622333,0.152590218966907,1.25123979552905
1580423613.43031,1.80056458381023,0.152590218966907,1.19020370794237
1580423613.4343,1.8616006713969,-0.0305180437933359,1.0681315327688
1580423613.43829,1.98367284657047,-0.213626306553806,0.946059357595232
1580423613.44229,1.98367284657047,-0.396734569314049,0.946059357595232
1580423613.44628,2.10574502174404,-0.51880674448762,0.823987182421661
1580423613.45027,2.16678110933094,-0.823987182421661,0.762951094834762
1580423613.45427,2.16678110933094,-1.0681315327688,0.70191500724809
1580423613.45826,2.16678110933094,-1.12916762035547,0.640878919661191
1580423613.46225,2.04470893415737,-1.31227588311594,0.579842832074519
1580423613.46625,1.8616006713969,-1.55642023346309,0.640878919661191
1580423613.47024,1.80056458381023,-1.73952849622333,0.579842832074519
1580423613.47423,1.61745632104976,-1.80056458381023,0.51880674448762
1580423613.47823,1.61745632104976,-1.9226367589838,0.579842832074519
1580423613.48222,1.49538414587619,-1.9226367589838,0.335698481727377
1580423613.48621,1.67849240863666,-1.9226367589838,0.457770656900948
1580423613.49021,1.8616006713969,-1.80056458381023,0.396734569314049
1580423613.4942,1.98367284657047,-1.73952849622333,0.274662394140478
1580423613.4982,2.34988937209118,-1.55642023346309,0.274662394140478
1580423613.50219,2.41092545967808,-1.49538414587619,0.274662394140478
1580423613.50618,2.22781719691761,-1.31227588311594,0.274662394140478
1580423613.51018,2.16678110933094,-1.0070954451819,0.274662394140478
1580423613.51417,1.9226367589838,-0.823987182421661,0.274662394140478
1580423613.51819,1.55642023346309,-0.762951094834762,0.091554131380235
1580423613.52218,1.0070954451819,-0.70191500724809,-0.091554131380235
1580423613.52618,0.51880674448762,-0.70191500724809,-0.213626306553806
1580423613.53017,0.152590218966907,-0.885023270008332,-0.335698481727377
1580423613.53416,-0.274662394140478,-1.0070954451819,-0.457770656900948
1580423613.53816,-0.457770656900948,-1.12916762035547,-0.762951094834762
1580423613.54215,-0.51880674448762,-1.19020370794237,-1.12916762035547
1580423613.54614,-0.640878919661191,-1.37331197070262,-1.31227588311594
1580423613.55014,-0.640878919661191,-1.49538414587619,-1.55642023346309
1580423613.55413,-0.640878919661191,-1.61745632104976,-1.73952849622333
1580423613.55812,-0.70191500724809,-1.8616006713969,-1.9226367589838
1580423613.56212,-0.885023270008332,-1.98367284657047,-1.9226367589838
1580423613.56611,-1.19020370794237,-2.16678110933094,-1.9226367589838
1580423613.5701,-1.61745632104976,-2.10574502174404,-1.67849240863666
1580423613.5741,-2.28885328450451,-1.98367284657047,-1.55642023346309
1580423613.57809,-2.7771419851988,-1.80056458381023,-1.37331197070262
1580423613.58208,-3.44853894865332,-1.80056458381023,-1.0681315327688
1580423613.58608,-4.05889982452118,-1.67849240863666,-0.885023270008332
1580423613.59007,-4.48615243762879,-1.43434805828952,-0.579842832074519
1580423613.59406,-4.73029678797593,-1.37331197070262,-0.457770656900948
1580423613.59805,-4.7913328755626,-1.37331197070262,-0.274662394140478
1580423613.60205,-4.7913328755626,-1.31227588311594,0.0305180437933359
1580423613.60604,-4.48615243762879,-1.12916762035547,0.152590218966907
1580423613.61003,-4.30304417486832,-0.946059357595232,0.274662394140478
1580423613.61403,-3.81475547417404,-0.762951094834762,0.396734569314049
1580423613.61802,-3.32646677347975,-0.51880674448762,0.457770656900948
1580423613.62201,-2.59403372243833,-0.335698481727377,0.51880674448762
1580423613.62601,-2.04470893415737,-0.152590218966907,0.579842832074519
1580423613.63,-1.49538414587619,0.0305180437933359,0.579842832074519
1580423613.63399,-1.0070954451819,0.091554131380235,0.51880674448762
1580423613.63799,-0.762951094834762,0.274662394140478,0.579842832074519
1580423613.64198,-0.762951094834762,0.51880674448762,0.579842832074519
1580423613.64597,-0.762951094834762,0.70191500724809,0.579842832074519
1580423613.64997,-0.946059357595232,0.762951094834762,0.51880674448762
1580423613.65396,-1.12916762035547,0.885023270008332,0.396734569314049
1580423613.65795,-1.19020370794237,0.762951094834762,0.396734569314049
1580423613.66195,-1.0681315327688,0.70191500724809,0.213626306553806
1580423613.66594,-0.762951094834762,0.579842832074519,0.0305180437933359
1580423613.66994,-0.51880674448762,0.457770656900948,-0.0305180437933359
1580423613.67393,-0.091554131380235,0.274662394140478,-0.091554131380235
1580423613.67792,0.274662394140478,0.274662394140478,-0.335698481727377
1580423613.68191,0.70191500724809,0.213626306553806,-0.335698481727377
1580423613.6859,1.0681315327688,0.152590218966907,-0.396734569314049
1580423613.6899,1.67849240863666,0.0305180437933359,-0.579842832074519
1580423613.69389,2.22781719691761,0.091554131380235,-0.51880674448762
1580423613.69789,2.65506981002522,0.213626306553806,-0.396734569314049
1580423613.70188,3.08232242313261,0.213626306553806,-0.274662394140478
1580423613.70587,3.32646677347975,0.152590218966907,-0.0305180437933359
1580423613.70986,3.50957503624022,0.457770656900948,0.152590218966907
1580423613.71386,3.87579156176093,0.51880674448762,0.335698481727377
1580423613.71785,4.11993591210808,0.640878919661191,0.457770656900948
1580423613.72185,4.48615243762879,0.762951094834762,0.579842832074519
1580423613.72584,5.03547722590974,0.885023270008332,1.0070954451819
1580423613.72983,5.58480201419093,0.885023270008332,1.0681315327688
1580423613.73383,5.95101853971164,1.0070954451819,1.37331197070262
1580423613.73782,6.25619897764545,1.25123979552905,1.55642023346309
1580423613.74181,6.68345159075307,1.43434805828952,1.73952849622333
1580423613.74581,7.23277637903402,1.67849240863666,1.9226367589838
1580423613.7498,7.84313725490188,1.80056458381023,1.98367284657047
1580423613.75379,8.20935378042259,1.73952849622333,2.16678110933094
1580423613.75781,8.45349813076973,1.80056458381023,2.28885328450451
1580423613.76181,8.51453421835663,1.67849240863666,2.41092545967808
1580423613.7658,8.5755703059433,1.67849240863666,2.47196154726475
1580423613.76979,8.45349813076973,1.67849240863666,2.47196154726475
1580423613.77379,8.33142595559616,1.43434805828952,2.41092545967808
1580423613.77778,7.90417334248878,1.25123979552905,2.28885328450451
1580423613.78177,7.53795681696806,1.0681315327688,2.28885328450451
1580423613.78577,7.11070420386045,0.885023270008332,2.04470893415737
1580423613.78976,6.5003433279926,0.946059357595232,2.04470893415737
1580423613.79375,6.07309071488521,0.70191500724809,1.80056458381023
1580423613.79775,5.7068741893645,0.51880674448762,1.61745632104976
1580423613.80174,5.52376592660403,0.457770656900948,1.61745632104976
1580423613.80573,5.46272983901736,0.335698481727377,1.37331197070262
1580423613.80973,5.52376592660403,0.213626306553806,1.25123979552905
1580423613.81372,5.52376592660403,0.213626306553806,1.0681315327688
1580423613.81771,5.40169375143046,0.335698481727377,0.946059357595232
1580423613.82171,5.27962157625689,0.274662394140478,0.823987182421661
1580423613.8257,5.03547722590974,0.457770656900948,0.762951094834762
1580423613.82969,4.8523689631495,0.70191500724809,0.51880674448762
1580423613.83369,4.73029678797593,0.823987182421661,0.51880674448762
1580423613.83768,4.36408026245522,1.0070954451819,0.640878919661191
1580423613.84167,4.30304417486832,1.12916762035547,0.70191500724809
1580423613.84566,4.18097199969475,1.43434805828952,0.823987182421661
1580423613.84966,3.93682764934761,1.61745632104976,0.946059357595232
1580423613.85365,3.69268329900046,1.9226367589838,1.19020370794237
1580423613.85764,3.44853894865332,2.10574502174404,1.31227588311594
1580423613.86164,3.14335851071951,2.28885328450451,1.43434805828952
1580423613.86563,2.96025024795904,2.34988937209118,1.61745632104976
1580423613.86962,2.83817807278547,2.41092545967808,1.9226367589838
1580423613.87362,2.7771419851988,2.22781719691761,1.9226367589838
1580423613.87761,2.89921416037237,2.16678110933094,2.16678110933094
1580423613.8816,2.96025024795904,2.16678110933094,2.22781719691761
1580423613.8856,3.02128633554594,1.98367284657047,2.28885328450451
1580423613.88959,2.89921416037237,1.9226367589838,2.16678110933094
1580423613.89359,3.02128633554594,1.98367284657047,1.9226367589838
1580423613.89758,3.08232242313261,1.8616006713969,1.9226367589838
1580423613.90157,3.14335851071951,1.73952849622333,1.80056458381023
1580423613.90557,3.14335851071951,1.73952849622333,1.80056458381023
1580423613.90956,3.02128633554594,1.61745632104976,1.67849240863666
1580423613.91355,2.96025024795904,1.49538414587619,1.67849240863666
1580423613.91754,2.7161058976119,1.55642023346309,1.61745632104976
1580423613.92154,2.47196154726475,1.55642023346309,1.55642023346309
1580423613.92553,2.22781719691761,1.55642023346309,1.37331197070262
1580423613.92952,1.73952849622333,1.37331197070262,1.0681315327688
1580423613.93351,1.43434805828952,1.12916762035547,0.823987182421661
1580423613.93751,1.0681315327688,0.885023270008332,0.640878919661191
1580423613.9415,0.946059357595232,0.579842832074519,0.457770656900948
1580423613.9455,0.885023270008332,0.213626306553806,0.213626306553806
1580423613.94949,0.823987182421661,-0.213626306553806,-0.091554131380235
1580423613.95348,0.70191500724809,-0.51880674448762,-0.274662394140478
1580423613.95748,0.457770656900948,-0.762951094834762,-0.274662394140478
1580423613.96147,0.457770656900948,-0.823987182421661,-0.274662394140478
1580423613.96546,0.213626306553806,-0.823987182421661,-0.091554131380235
1580423613.96946,-0.152590218966907,-0.762951094834762,0.0305180437933359
1580423613.97345,-0.152590218966907,-0.640878919661191,0.152590218966907
1580423613.97744,-0.274662394140478,-0.51880674448762,0.274662394140478
1580423613.98144,-0.579842832074519,-0.457770656900948,0.579842832074519
1580423613.98543,-0.885023270008332,-0.335698481727377,0.579842832074519
1580423613.98942,-1.19020370794237,-0.335698481727377,0.579842832074519
1580423613.99342,-1.37331197070262,-0.457770656900948,0.579842832074519
1580423613.99744,-1.12916762035547,-0.579842832074519,0.579842832074519
1580423614.00143,-0.823987182421661,-0.70191500724809,0.457770656900948
1580423614.00542,-0.457770656900948,-0.762951094834762,0.396734569314049
1580423614.00942,0.152590218966907,-0.51880674448762,0.457770656900948
1580423614.01341,0.762951094834762,-0.51880674448762,0.457770656900948
1580423614.0174,1.19020370794237,-0.51880674448762,0.51880674448762
1580423614.0214,1.43434805828952,-0.640878919661191,0.579842832074519
1580423614.02539,1.31227588311594,-0.640878919661191,0.579842832074519
1580423614.02938,1.31227588311594,-0.885023270008332,0.579842832074519
1580423614.03338,1.0681315327688,-1.12916762035547,0.579842832074519
1580423614.03737,0.885023270008332,-1.31227588311594,0.640878919661191
1580423614.04136,0.762951094834762,-1.55642023346309,0.762951094834762
1580423614.04536,0.885023270008332,-1.73952849622333,0.640878919661191
1580423614.04935,1.0070954451819,-2.04470893415737,0.335698481727377
1580423614.05334,1.19020370794237,-2.28885328450451,0.274662394140478
1580423614.05734,1.31227588311594,-2.53299763485165,0.213626306553806
1580423614.06133,1.49538414587619,-2.65506981002522,0.091554131380235
1580423614.06533,1.9226367589838,-2.83817807278547,-0.213626306553806
1580423614.06932,2.41092545967808,-2.96025024795904,-0.274662394140478
1580423614.07331,2.65506981002522,-3.14335851071951,-0.335698481727377
1580423614.0773,3.08232242313261,-3.20439459830618,-0.457770656900948
1580423614.08129,3.14335851071951,-3.32646677347975,-0.579842832074519
1580423614.08529,3.20439459830618,-3.20439459830618,-0.579842832074519
1580423614.08928,3.08232242313261,-3.02128633554594,-0.579842832074519
1580423614.09327,3.14335851071951,-2.96025024795904,-0.51880674448762
1580423614.09727,2.83817807278547,-2.7161058976119,-0.51880674448762
1580423614.10126,2.7771419851988,-2.59403372243833,-0.457770656900948
1580423614.10525,2.41092545967808,-2.53299763485165,-0.457770656900948
1580423614.10925,2.34988937209118,-2.47196154726475,-0.396734569314049
1580423614.11324,2.22781719691761,-2.16678110933094,-0.274662394140478
1580423614.11724,2.28885328450451,-1.98367284657047,-0.152590218966907
1580423614.12123,2.7771419851988,-1.80056458381023,-0.0305180437933359
1580423614.12522,3.26543068589308,-1.73952849622333,0.0305180437933359
1580423614.12922,3.99786373693451,-1.61745632104976,0.213626306553806
1580423614.13321,4.48615243762879,-1.80056458381023,0.152590218966907
1580423614.1372,4.8523689631495,-1.9226367589838,0.274662394140478
1580423614.1412,5.15754940108332,-1.98367284657047,0.579842832074519
1580423614.14519,5.34065766384379,-2.28885328450451,0.396734569314049
1580423614.14918,5.58480201419093,-2.65506981002522,0.457770656900948
1580423614.15318,5.82894636453807,-3.08232242313261,0.457770656900948
1580423614.1572,6.01205462729831,-3.38750286106665,0.640878919661191
1580423614.16119,6.13412680247188,-3.75371938658736,0.70191500724809
1580423614.16518,6.25619897764545,-3.93682764934761,0.579842832074519
1580423614.16918,6.25619897764545,-4.18097199969475,0.70191500724809
1580423614.17317,6.13412680247188,-4.24200808728165,0.640878919661191
1580423614.17716,6.13412680247188,-4.36408026245522,0.51880674448762
1580423614.18116,5.82894636453807,-4.24200808728165,0.640878919661191
1580423614.18515,5.76791027695117,-4.05889982452118,0.579842832074519
1580423614.18914,5.88998245212474,-3.69268329900046,0.457770656900948
1580423614.19314,6.13412680247188,-3.63164721141379,0.335698481727377
1580423614.19713,6.37827115281902,-3.57061112382689,0.213626306553806
1580423614.20112,6.37827115281902,-3.63164721141379,0.213626306553806
1580423614.20512,6.68345159075307,-3.87579156176093,0.152590218966907
1580423614.20911,6.68345159075307,-3.87579156176093,0.091554131380235
1580423614.2131,6.86655985351331,-4.11993591210808,0.091554131380235
1580423614.2171,7.23277637903402,-4.11993591210808,0.152590218966907
1580423614.22109,7.47692072938116,-4.05889982452118,0.274662394140478
1580423614.22509,8.02624551766235,-3.93682764934761,0.457770656900948
1580423614.22908,8.75867856870377,-3.81475547417404,0.457770656900948
1580423614.23307,9.4911116197452,-3.63164721141379,0.579842832074519
1580423614.23706,10.1014724956131,-3.50957503624022,0.579842832074519
1580423614.24105,10.650797283894,-3.26543068589308,0.640878919661191
1580423614.24505,11.4442664225223,-3.02128633554594,0.579842832074519
1580423614.24904,11.9325551232166,-3.02128633554594,0.579842832074519
1580423614.25303,12.4208438239109,-3.02128633554594,0.51880674448762
1580423614.25703,12.9091325246052,-3.08232242313261,0.51880674448762
1580423614.26102,13.0312046997788,-3.20439459830618,0.457770656900948
1580423614.26501,13.214312962539,-3.20439459830618,0.51880674448762
1580423614.26901,13.519493400473,-3.38750286106665,0.51880674448762
1580423614.273,13.4584573128861,-3.63164721141379,0.579842832074519
1580423614.27699,13.3974212252995,-3.81475547417404,0.396734569314049
1580423614.28099,13.1532768749523,-3.93682764934761,0.335698481727377
1580423614.28498,12.8480964370183,-3.87579156176093,0.396734569314049
1580423614.28898,12.2987716487373,-3.93682764934761,0.335698481727377
1580423614.29297,11.810482948043,-3.93682764934761,0.335698481727377
1580423614.29696,11.1390859845883,-3.81475547417404,0.091554131380235
1580423614.30096,10.5287251087204,-3.69268329900046,0.091554131380235
1580423614.30495,9.85732814526591,-3.75371938658736,-0.213626306553806
1580423614.30894,9.00282291905091,-3.63164721141379,-0.274662394140478
1580423614.31294,8.27038986800949,-3.44853894865332,-0.396734569314049
1580423614.31692,7.35484855420759,-3.50957503624022,-0.579842832074519
1580423614.32092,6.5003433279926,-3.57061112382689,-0.823987182421661
1580423614.32491,5.82894636453807,-3.38750286106665,-1.0070954451819
1580423614.3289,5.15754940108332,-3.20439459830618,-1.0070954451819
1580423614.3329,4.60822461280236,-3.02128633554594,-1.25123979552905
1580423614.33689,4.05889982452118,-3.02128633554594,-1.25123979552905
1580423614.34089,3.57061112382689,-2.7161058976119,-1.25123979552905
1580423614.34488,3.08232242313261,-2.53299763485165,-1.37331197070262
1580423614.34887,2.65506981002522,-2.34988937209118,-1.31227588311594
1580423614.35287,2.04470893415737,-2.04470893415737,-1.19020370794237
1580423614.35686,1.43434805828952,-1.9226367589838,-1.31227588311594
1580423614.36085,0.640878919661191,-2.04470893415737,-1.31227588311594
1580423614.36485,-0.091554131380235,-2.10574502174404,-1.31227588311594
1580423614.36884,-0.885023270008332,-2.16678110933094,-1.43434805828952
1580423614.37283,-1.61745632104976,-2.28885328450451,-1.43434805828952
1580423614.37683,-2.41092545967808,-2.28885328450451,-1.43434805828952
1580423614.38082,-3.26543068589308,-2.53299763485165,-1.61745632104976
1580423614.38481,-3.99786373693451,-2.53299763485165,-1.49538414587619
1580423614.38881,-4.60822461280236,-2.7161058976119,-1.37331197070262
1580423614.3928,-4.66926070038903,-2.7771419851988,-1.37331197070262
1580423614.39682,-4.60822461280236,-2.89921416037237,-1.12916762035547
1580423614.40081,-4.36408026245522,-2.7161058976119,-0.946059357595232
1580423614.40481,-3.81475547417404,-2.34988937209118,-0.70191500724809
1580423614.4088,-3.50957503624022,-1.9226367589838,-0.51880674448762
1580423614.41279,-3.20439459830618,-1.61745632104976,-0.457770656900948
1580423614.41679,-3.02128633554594,-1.19020370794237,-0.396734569314049
1580423614.42078,-3.26543068589308,-0.946059357595232,-0.51880674448762
1580423614.42477,-3.75371938658736,-0.640878919661191,-0.457770656900948
1580423614.42877,-4.18097199969475,-0.640878919661191,-0.51880674448762
1580423614.43276,-4.7913328755626,-0.579842832074519,-0.457770656900948
1580423614.43675,-4.91340505073617,-0.51880674448762,-0.640878919661191
1580423614.44075,-4.97444113832307,-0.51880674448762,-0.70191500724809
1580423614.44474,-5.03547722590974,-0.335698481727377,-0.579842832074519
1580423614.44873,-4.66926070038903,-0.213626306553806,-0.579842832074519
1580423614.45273,-4.36408026245522,-0.152590218966907,-0.51880674448762
1580423614.45672,-4.30304417486832,0.0305180437933359,-0.335698481727377
1580423614.46072,-4.24200808728165,0.0305180437933359,-0.396734569314049
1580423614.46471,-4.36408026245522,0.335698481727377,-0.213626306553806
1580423614.4687,-4.42511635004189,0.51880674448762,-0.0305180437933359
1580423614.4727,-4.36408026245522,0.70191500724809,-0.0305180437933359
1580423614.47668,-4.42511635004189,0.885023270008332,-0.0305180437933359
1580423614.48068,-4.36408026245522,0.823987182421661,-0.0305180437933359
1580423614.48467,-4.30304417486832,0.885023270008332,-0.0305180437933359
1580423614.48866,-4.05889982452118,0.70191500724809,-0.152590218966907
1580423614.49266,-3.75371938658736,0.51880674448762,-0.152590218966907
1580423614.49665,-3.26543068589308,0.335698481727377,-0.213626306553806
1580423614.50064,-2.7771419851988,0.274662394140478,-0.274662394140478
1580423614.50464,-2.34988937209118,0.335698481727377,-0.457770656900948
1580423614.50863,-1.80056458381023,0.335698481727377,-0.396734569314049
1580423614.51263,-1.49538414587619,0.70191500724809,-0.457770656900948
1580423614.51662,-1.12916762035547,0.823987182421661,-0.457770656900948
1580423614.52061,-0.946059357595232,1.0681315327688,-0.396734569314049
1580423614.52461,-0.946059357595232,1.31227588311594,-0.457770656900948
1580423614.5286,-0.762951094834762,1.61745632104976,-0.335698481727377
1580423614.53259,-0.823987182421661,1.80056458381023,-0.091554131380235
1580423614.53659,-0.946059357595232,2.22781719691761,-0.091554131380235
1580423614.54058,-0.946059357595232,2.59403372243833,-0.0305180437933359
1580423614.54457,-0.946059357595232,2.96025024795904,0.0305180437933359
1580423614.54857,-0.823987182421661,3.14335851071951,0.0305180437933359
1580423614.55256,-0.762951094834762,3.26543068589308,-0.0305180437933359
1580423614.55658,-0.579842832074519,3.08232242313261,-0.091554131380235
1580423614.56057,-0.762951094834762,2.89921416037237,-0.0305180437933359
1580423614.56457,-0.823987182421661,2.7771419851988,-0.0305180437933359
1580423614.56856,-0.885023270008332,2.7161058976119,0.0305180437933359
1580423614.57255,-0.762951094834762,2.47196154726475,0.091554131380235
1580423614.57655,-0.51880674448762,2.28885328450451,0.213626306553806
1580423614.58054,-0.213626306553806,2.16678110933094,0.274662394140478
1580423614.58453,-0.213626306553806,2.10574502174404,0.213626306553806
1580423614.58853,-0.274662394140478,2.16678110933094,0.274662394140478
1580423614.59252,-0.70191500724809,2.34988937209118,0.213626306553806
1580423614.59651,-1.0070954451819,2.7161058976119,0.152590218966907
1580423614.60051,-1.25123979552905,3.08232242313261,0.0305180437933359
1580423614.6045,-1.37331197070262,3.20439459830618,-0.0305180437933359
1580423614.60849,-1.31227588311594,3.32646677347975,0.0305180437933359
1580423614.61249,-1.12916762035547,3.26543068589308,0.091554131380235
1580423614.61648,-0.640878919661191,3.38750286106665,0.091554131380235
1580423614.62047,-0.0305180437933359,3.50957503624022,0.213626306553806
1580423614.62447,0.70191500724809,3.75371938658736,0.213626306553806
1580423614.62846,1.43434805828952,4.05889982452118,0.457770656900948
1580423614.63246,2.16678110933094,4.30304417486832,0.640878919661191
1580423614.63644,2.7161058976119,4.66926070038903,0.762951094834762
1580423614.64044,3.14335851071951,4.91340505073617,0.823987182421661
1580423614.64443,3.14335851071951,5.09651331349664,0.885023270008332
1580423614.64842,3.14335851071951,5.21858548867021,1.12916762035547
1580423614.65242,2.7771419851988,5.21858548867021,1.0681315327688
1580423614.65641,2.34988937209118,5.15754940108332,1.12916762035547
1580423614.6604,2.22781719691761,5.15754940108332,1.0681315327688
1580423614.6644,2.22781719691761,5.40169375143046,1.19020370794237
1580423614.66839,2.04470893415737,5.40169375143046,1.25123979552905
1580423614.67238,1.98367284657047,5.46272983901736,1.12916762035547
1580423614.67638,1.98367284657047,5.7068741893645,1.12916762035547
1580423614.68037,1.73952849622333,5.95101853971164,1.19020370794237
1580423614.68437,1.67849240863666,6.07309071488521,1.19020370794237
1580423614.68836,1.55642023346309,6.37827115281902,1.31227588311594
1580423614.69235,1.55642023346309,6.62241550316617,1.37331197070262
1580423614.69635,1.49538414587619,6.86655985351331,1.61745632104976
1580423614.70034,1.61745632104976,7.23277637903402,1.8616006713969
1580423614.70433,1.61745632104976,7.41588464179449,2.04470893415737
1580423614.70833,1.61745632104976,7.96520943007545,2.22781719691761
1580423614.71232,1.73952849622333,8.39246204318306,2.47196154726475
1580423614.71631,1.8616006713969,8.69764248111687,2.65506981002522
1580423614.7203,1.8616006713969,8.94178683146401,2.7161058976119
1580423614.72429,1.55642023346309,9.06385900663759,2.83817807278547
1580423614.72829,1.25123979552905,9.18593118181116,2.83817807278547
1580423614.73228,1.0070954451819,9.30800335698473,2.83817807278547
1580423614.73628,0.823987182421661,9.61318379491877,2.89921416037237
1580423614.74027,0.579842832074519,9.73525597009234,3.02128633554594
1580423614.74426,0.51880674448762,9.85732814526591,3.26543068589308
1580423614.74826,0.51880674448762,9.97940032043948,3.38750286106665
1580423614.75225,0.396734569314049,9.91836423285258,3.63164721141379
1580423614.75624,0.0305180437933359,9.85732814526591,4.05889982452118
1580423614.76024,-0.70191500724809,9.73525597009234,4.30304417486832
1580423614.76423,-1.55642023346309,9.67421988250544,4.36408026245522
1580423614.76822,-2.41092545967808,9.36903944457163,4.18097199969475
1580423614.77222,-2.96025024795904,9.12489509422448,4.18097199969475
1580423614.77621,-3.26543068589308,8.75867856870377,4.11993591210808
1580423614.7802,-3.32646677347975,8.39246204318306,3.93682764934761
1580423614.7842,-3.02128633554594,7.90417334248878,3.81475547417404
1580423614.78819,-2.7161058976119,7.35484855420759,3.81475547417404
1580423614.79218,-2.47196154726475,6.56137941557949,3.75371938658736
1580423614.7962,-2.47196154726475,5.82894636453807,3.69268329900046
1580423614.8002,-2.47196154726475,5.09651331349664,3.69268329900046
1580423614.80419,-2.41092545967808,4.48615243762879,3.50957503624022
1580423614.80818,-2.34988937209118,3.99786373693451,3.26543068589308
1580423614.81218,-2.22781719691761,3.38750286106665,2.96025024795904
1580423614.81617,-2.16678110933094,2.89921416037237,2.65506981002522
1580423614.82016,-2.04470893415737,2.53299763485165,2.53299763485165
1580423614.82416,-1.9226367589838,1.98367284657047,2.28885328450451
1580423614.82815,-1.80056458381023,1.43434805828952,2.04470893415737
1580423614.83214,-1.73952849622333,0.885023270008332,1.9226367589838
1580423614.83614,-1.37331197070262,0.213626306553806,1.80056458381023
1580423614.84013,-1.0070954451819,-0.335698481727377,1.8616006713969
1580423614.84413,-0.457770656900948,-0.823987182421661,1.67849240863666
1580423614.84812,0.213626306553806,-1.25123979552905,1.67849240863666
1580423614.85211,1.19020370794237,-1.73952849622333,1.55642023346309
1580423614.85611,2.04470893415737,-2.28885328450451,1.37331197070262
1580423614.8601,2.89921416037237,-2.65506981002522,1.0681315327688
1580423614.86409,3.14335851071951,-3.02128633554594,0.762951094834762
1580423614.86809,3.26543068589308,-3.32646677347975,0.51880674448762
1580423614.87208,3.20439459830618,-3.63164721141379,0.274662394140478
1580423614.87607,2.96025024795904,-3.81475547417404,0.213626306553806
1580423614.88006,2.53299763485165,-3.87579156176093,0.152590218966907
1580423614.88405,2.47196154726475,-3.87579156176093,0.213626306553806
1580423614.88805,2.7161058976119,-3.87579156176093,0.457770656900948
1580423614.89204,3.32646677347975,-3.69268329900046,0.640878919661191
1580423614.89603,3.99786373693451,-3.57061112382689,0.823987182421661
1580423614.90003,4.66926070038903,-3.38750286106665,1.0681315327688
1580423614.90402,5.15754940108332,-3.26543068589308,1.37331197070262
1580423614.90802,5.46272983901736,-3.02128633554594,1.49538414587619
1580423614.91201,5.7068741893645,-2.7161058976119,1.73952849622333
1580423614.916,5.82894636453807,-2.59403372243833,1.8616006713969
1580423614.92,5.88998245212474,-2.53299763485165,1.8616006713969
1580423614.92399,5.76791027695117,-2.41092545967808,1.73952849622333
1580423614.92798,5.88998245212474,-2.28885328450451,1.61745632104976
1580423614.93198,5.95101853971164,-1.98367284657047,1.49538414587619
1580423614.93597,6.01205462729831,-1.73952849622333,1.49538414587619
1580423614.93996,6.13412680247188,-1.43434805828952,1.37331197070262
1580423614.94396,6.07309071488521,-1.12916762035547,1.37331197070262
1580423614.94795,5.95101853971164,-0.51880674448762,1.43434805828952
1580423614.95194,5.6458381017776,-0.152590218966907,1.43434805828952
1580423614.95599,5.03547722590974,0.213626306553806,1.37331197070262
1580423614.95999,4.42511635004189,0.70191500724809,1.43434805828952
1580423614.96398,3.50957503624022,1.0070954451819,1.61745632104976
1580423614.96797,2.7771419851988,1.25123979552905,1.80056458381023
1580423614.97197,1.73952849622333,1.49538414587619,1.98367284657047
1580423614.97596,0.823987182421661,1.67849240863666,2.16678110933094
1580423614.97995,-0.213626306553806,1.98367284657047,2.22781719691761
1580423614.98395,-1.19020370794237,2.16678110933094,2.22781719691761
1580423614.98794,-1.8616006713969,2.53299763485165,2.34988937209118
1580423614.99194,-2.59403372243833,2.96025024795904,2.41092545967808
1580423614.99593,-3.02128633554594,3.38750286106665,2.59403372243833
1580423614.99992,-3.26543068589308,3.75371938658736,2.7161058976119
1580423615.00391,-3.26543068589308,4.24200808728165,2.7161058976119
1580423615.00791,-3.14335851071951,4.66926070038903,2.7161058976119
1580423615.0119,-3.38750286106665,5.03547722590974,3.02128633554594
1580423615.0159,-3.44853894865332,5.46272983901736,3.14335851071951
1580423615.01989,-3.63164721141379,5.88998245212474,3.26543068589308
1580423615.02388,-3.69268329900046,6.31723506523235,3.26543068589308
1580423615.02788,-3.44853894865332,6.62241550316617,3.20439459830618
1580423615.03187,-3.32646677347975,6.92759594110021,3.08232242313261
1580423615.03586,-2.89921416037237,7.17174029144735,3.08232242313261
1580423615.03985,-2.34988937209118,7.29381246662092,3.02128633554594
1580423615.04384,-1.67849240863666,7.29381246662092,2.65506981002522
1580423615.04784,-0.885023270008332,7.17174029144735,2.47196154726475
1580423615.05183,-0.274662394140478,7.17174029144735,2.28885328450451
1580423615.05582,0.579842832074519,6.98863202868688,2.16678110933094
1580423615.05982,1.43434805828952,6.92759594110021,1.8616006713969
1580423615.06381,2.16678110933094,6.68345159075307,1.73952849622333
1580423615.06781,2.89921416037237,6.43930724040592,1.67849240863666
1580423615.0718,3.20439459830618,6.19516289005878,1.61745632104976
1580423615.07579,3.38750286106665,5.95101853971164,1.67849240863666
1580423615.07979,3.63164721141379,5.76791027695117,1.73952849622333
1580423615.08378,3.63164721141379,5.58480201419093,1.67849240863666
1580423615.08777,3.63164721141379,5.52376592660403,1.55642023346309
1580423615.09177,3.69268329900046,5.40169375143046,1.49538414587619
1580423615.09576,3.75371938658736,5.40169375143046,1.37331197070262
1580423615.09975,3.75371938658736,5.27962157625689,1.43434805828952
1580423615.10375,3.81475547417404,5.09651331349664,1.31227588311594
1580423615.10774,3.93682764934761,4.8523689631495,1.31227588311594
1580423615.11173,3.75371938658736,4.54718852521546,1.19020370794237
1580423615.11572,3.99786373693451,4.42511635004189,1.0681315327688
1580423615.11972,4.11993591210808,4.48615243762879,0.946059357595232
1580423615.12371,4.36408026245522,4.36408026245522,0.762951094834762
1580423615.1277,4.66926070038903,4.24200808728165,0.51880674448762
1580423615.1317,4.97444113832307,4.24200808728165,0.274662394140478
1580423615.13569,4.97444113832307,4.11993591210808,0.091554131380235
1580423615.13968,4.97444113832307,3.93682764934761,-0.213626306553806
1580423615.14368,4.73029678797593,3.99786373693451,-0.457770656900948
1580423615.14767,4.18097199969475,3.99786373693451,-0.579842832074519
1580423615.15166,3.87579156176093,3.93682764934761,-0.640878919661191
1580423615.15566,3.14335851071951,3.99786373693451,-0.640878919661191
1580423615.15965,2.47196154726475,3.93682764934761,-0.640878919661191
1580423615.16364,1.73952849622333,3.87579156176093,-0.70191500724809
1580423615.16764,1.0070954451819,3.81475547417404,-0.762951094834762
1580423615.17163,0.274662394140478,3.50957503624022,-0.70191500724809
1580423615.17562,-0.457770656900948,3.32646677347975,-0.762951094834762
1580423615.17962,-1.31227588311594,2.89921416037237,-0.823987182421661
1580423615.18361,-2.22781719691761,2.53299763485165,-0.885023270008332
1580423615.1876,-2.89921416037237,2.16678110933094,-1.0681315327688
1580423615.1916,-3.63164721141379,1.9226367589838,-0.885023270008332
1580423615.19562,-4.24200808728165,1.67849240863666,-0.762951094834762
1580423615.19961,-4.8523689631495,1.43434805828952,-0.640878919661191
1580423615.2036,-5.40169375143046,1.0681315327688,-0.457770656900948
1580423615.2076,-5.88998245212474,0.762951094834762,-0.274662394140478
1580423615.21159,-6.25619897764545,0.51880674448762,0.0305180437933359
1580423615.21558,-6.56137941557949,0.274662394140478,0.091554131380235
1580423615.21958,-6.86655985351331,0.152590218966907,0.335698481727377
1580423615.22357,-6.98863202868688,-0.0305180437933359,0.335698481727377
1580423615.22756,-7.11070420386045,-0.335698481727377,0.396734569314049
1580423615.23156,-7.04966811627378,-0.457770656900948,0.213626306553806
1580423615.23555,-6.86655985351331,-0.51880674448762,0.213626306553806
1580423615.23955,-6.62241550316617,-0.762951094834762,0.091554131380235
1580423615.24354,-6.5003433279926,-0.762951094834762,-0.091554131380235
1580423615.24753,-6.25619897764545,-0.885023270008332,-0.213626306553806
1580423615.25153,-6.07309071488521,-1.0681315327688,-0.274662394140478
1580423615.25552,-5.88998245212474,-1.25123979552905,-0.335698481727377
1580423615.25951,-5.7068741893645,-1.37331197070262,-0.274662394140478
1580423615.26351,-5.27962157625689,-1.61745632104976,-0.335698481727377
1580423615.2675,-4.66926070038903,-1.80056458381023,-0.335698481727377
1580423615.27149,-3.99786373693451,-2.10574502174404,-0.274662394140478
1580423615.27548,-3.20439459830618,-2.65506981002522,-0.396734569314049
1580423615.27947,-2.41092545967808,-3.20439459830618,-0.640878919661191
1580423615.28347,-1.55642023346309,-3.75371938658736,-0.885023270008332
1580423615.28746,-0.885023270008332,-4.11993591210808,-1.31227588311594
1580423615.29146,0.274662394140478,-4.48615243762879,-1.49538414587619
1580423615.29545,1.31227588311594,-4.66926070038903,-1.49538414587619
1580423615.29944,2.34988937209118,-4.97444113832307,-1.67849240863666
1580423615.30344,3.32646677347975,-5.21858548867021,-1.61745632104976
1580423615.30743,4.11993591210808,-5.40169375143046,-1.49538414587619
1580423615.31142,4.7913328755626,-5.6458381017776,-1.43434805828952
1580423615.31542,5.40169375143046,-5.7068741893645,-1.19020370794237
1580423615.31941,6.07309071488521,-5.88998245212474,-1.25123979552905
1580423615.3234,6.31723506523235,-6.01205462729831,-1.25123979552905
1580423615.3274,6.68345159075307,-6.07309071488521,-1.19020370794237
1580423615.33139,6.74448767833974,-6.19516289005878,-1.12916762035547
1580423615.33538,6.74448767833974,-6.25619897764545,-1.0070954451819
1580423615.33938,6.62241550316617,-6.13412680247188,-0.823987182421661
1580423615.34337,6.62241550316617,-6.01205462729831,-0.70191500724809
1580423615.34736,6.68345159075307,-5.76791027695117,-0.457770656900948
1580423615.35136,6.92759594110021,-5.6458381017776,-0.396734569314049
1580423615.35538,6.92759594110021,-5.6458381017776,-0.213626306553806
1580423615.35937,6.92759594110021,-5.7068741893645,-0.091554131380235
1580423615.36336,6.68345159075307,-5.95101853971164,0.0305180437933359
1580423615.36736,6.25619897764545,-6.25619897764545,-0.0305180437933359
1580423615.37135,5.76791027695117,-6.62241550316617,-0.0305180437933359
1580423615.37534,5.34065766384379,-6.98863202868688,-0.213626306553806
1580423615.37934,4.54718852521546,-7.41588464179449,-0.335698481727377
1580423615.38333,3.87579156176093,-7.90417334248878,-0.579842832074519
1580423615.38732,3.14335851071951,-8.39246204318306,-0.885023270008332
1580423615.39132,2.34988937209118,-8.69764248111687,-1.0681315327688
1580423615.39531,1.49538414587619,-9.24696726939806,-1.25123979552905
1580423615.3993,0.946059357595232,-9.61318379491877,-1.31227588311594
1580423615.4033,0.457770656900948,-9.85732814526591,-1.43434805828952
1580423615.40729,0.091554131380235,-9.97940032043948,-1.55642023346309
1580423615.41129,-0.274662394140478,-10.0404364080262,-1.67849240863666
1580423615.41528,-0.51880674448762,-10.1625085831997,-1.80056458381023
1580423615.41927,-0.946059357595232,-10.3456168459602,-2.04470893415737
1580423615.42327,-1.0681315327688,-10.5287251087204,-2.16678110933094
1580423615.42726,-1.37331197070262,-10.8339055466545,-2.16678110933094
1580423615.43125,-1.80056458381023,-11.1390859845883,-2.22781719691761
1580423615.43524,-2.28885328450451,-11.505302510109,-2.47196154726475
1580423615.43923,-2.89921416037237,-11.9935912108033,-2.53299763485165
1580423615.44323,-3.26543068589308,-12.2987716487373,-2.65506981002522
1580423615.44722,-3.57061112382689,-12.6039520866711,-2.7771419851988
1580423615.45122,-3.63164721141379,-12.7870603494316,-2.96025024795904
1580423615.45521,-3.63164721141379,-13.214312962539,-3.02128633554594
1580423615.4592,-3.44853894865332,-13.519493400473,-2.96025024795904
1580423615.4632,-3.20439459830618,-13.8857099259938,-2.96025024795904
1580423615.46719,-3.08232242313261,-14.1298542763409,-2.83817807278547
1580423615.47118,-2.7771419851988,-14.2519264515145,-2.59403372243833
1580423615.47518,-2.41092545967808,-14.3129625391011,-2.34988937209118
1580423615.47917,-1.8616006713969,-14.4350347142747,-2.04470893415737
1580423615.48316,-1.25123979552905,-14.5571068894483,-1.8616006713969
1580423615.48716,-0.762951094834762,-14.923323414969,-1.49538414587619
1580423615.49115,-0.0305180437933359,-15.1064316777295,-1.31227588311594
1580423615.49514,0.396734569314049,-15.4726482032502,-1.0681315327688
1580423615.49914,0.640878919661191,-15.7167925535973,-1.0681315327688
1580423615.50313,1.0681315327688,-16.2050812542916,-0.946059357595232
1580423615.50712,1.61745632104976,-16.7544060425726,-1.0681315327688
1580423615.51112,2.10574502174404,-17.1206225680933,-1.12916762035547
1580423615.51511,2.7161058976119,-17.9140917067216,-1.19020370794237
1580423615.5191,3.38750286106665,-18.7075608453497,-1.43434805828952
1580423615.52309,3.50957503624022,-19.7451743343252,-1.67849240863666
1580423615.52709,3.63164721141379,-20.8438239108873,-1.8616006713969
1580423615.53108,3.99786373693451,-21.8814373998625,-2.22781719691761
1580423615.53507,4.24200808728165,-22.9800869764247,-2.53299763485165
1580423615.53907,4.54718852521546,-24.0177004654001,-2.96025024795904
1580423615.54306,4.91340505073617,-24.9942778667887,-3.50957503624022
1580423615.54705,5.34065766384379,-25.9708552681773,-3.93682764934761
1580423615.55105,5.58480201419093,-26.8863965819789,-4.18097199969475
1580423615.55504,5.58480201419093,-28.3512626840618,-4.60822461280236
1580423615.55903,5.34065766384379,-29.9992370489051,-4.91340505073617
1580423615.56303,4.97444113832307,-31.6472114137484,-5.27962157625689
1580423615.56702,4.36408026245522,-33.5393301289389,-5.76791027695117
1580423615.57101,3.63164721141379,-34.9431601434349,-6.07309071488521
1580423615.57501,2.10574502174404,-35.9197375448234,-6.37827115281902
1580423615.579,-0.335698481727377,-36.346990157931,-6.62241550316617
1580423615.583,-2.89921416037237,-36.5911345082782,-7.17174029144735
1580423615.58699,-5.46272983901736,-37.201495384146,-7.84313725490188
1580423615.59098,-7.17174029144735,-38.2391088731213,-8.69764248111687
1580423615.595,-7.59899290455473,-39.5208667124439,-9.61318379491877
1580423615.59899,-6.74448767833974,-40.8026245517663,-10.2845807583733
1580423615.60299,-4.60822461280236,-41.168841077287,-10.4066529335469
1580423615.60698,-2.10574502174404,-40.8636606393532,-10.1014724956131
1580423615.61098,0.213626306553806,-40.1922636758984,-9.4911116197452
1580423615.61497,1.73952849622333,-39.8870832379646,-9.00282291905091
1580423615.61896,2.47196154726475,-40.3753719386589,-8.51453421835663
1580423615.62295,2.53299763485165,-41.7792019531548,-8.20935378042259
1580423615.62695,2.28885328450451,-44.2816815442131,-8.14831769283592
1580423615.63094,1.98367284657047,-47.5165941863127,-8.33142595559616
1580423615.63494,1.61745632104976,-51.2397955291067,-8.51453421835663
1580423615.63893,1.31227588311594,-55.2681773098345,-8.75867856870377
1580423615.64292,0.762951094834762,-59.4796673533226,-9.24696726939806
1580423615.64692,-0.091554131380235,-63.630121309224,-10.2235446707866
1580423615.65091,-1.31227588311594,-67.7805752651254,-11.4442664225223
1580423615.6549,-2.59403372243833,-71.9310292210268,-12.7870603494316
1580423615.6589,-3.57061112382689,-76.5087357900359,-14.3129625391011
1580423615.66289,-4.48615243762879,-81.2085145342182,-16.0219729915311
1580423615.66688,-5.03547722590974,-85.7862211032273,-17.486839093614
1580423615.67088,-5.82894636453807,-90.7301441977568,-18.8296330205233
1580423615.67487,-6.86655985351331,-95.9792477302205,-19.9282825970854
1580423615.67886,-8.14831769283592,-100.984206912337,-20.904859998474
1580423615.68285,-9.55214770733187,-106.172274357214,-22.2476539253832
1580423615.68685,-11.0780498970016,-112.031738765545,-23.9566643778132
1580423615.69084,-12.0546272983902,-117.891203173877,-25.6656748302432
1580423615.69483,-12.1766994735638,-123.567559319448,-26.9474326695658
1580423615.69883,-9.91836423285258,-129.915312428473,-27.1305409323261
1580423615.70282,-4.54718852521546,-137.422751201648,-26.6422522316318
1580423615.70681,3.14335851071951,-145.967803463798,-25.9098191805904
1580423615.71081,10.955977721828,-154.390783550774,-25.3604943923094
1580423615.7148,17.2426947432668,-161.348897535668,-24.9332417792018
1580423615.71879,20.9658960860609,-167.75768673228,-24.1397726405737
1580423615.72279,21.210040436408,-173.006790264744,-22.4917982757304
1580423615.72678,20.8438239108873,-175.570305943389,-22.064545662623
1580423615.73077,20.050354772259,-174.959945067521,-24.1397726405737
1580423615.73477,14.6181429770352,-173.250934615091,-29.2668039978637
1580423615.73876,6.31723506523235,-166.04867627985,-36.4690623331046
1580423615.74275,0.579842832074519,-150.606546120394,-45.1972228580148
1580423615.74675,5.03547722590974,-128.877698939498,-53.5591668574045
1580423615.75074,19.9282825970854,-105.500877393759,-59.7238117036698
1580423615.75476,37.1404592965589,-81.0864423590447,-62.4093995574883
1580423615.75875,53.5591668574043,-56.3668268863967,-61.3717860685131
1580423615.76275,69.3064774547952,-32.8068970778975,-56.4888990615702
1580423615.76674,83.5889219501032,-15.1674677653161,-47.5776302738996
1580423615.77073,98.3596551461051,-5.82894636453807,-35.3704127565425
1580423615.77473,117.402914473182,-3.44853894865332,-21.0269321736475
1580423615.77872,142.244602121004,-4.36408026245522,-5.52376592660403
1580423615.78271,170.931563286793,-6.31723506523235,10.1014724956131
1580423615.78671,199.435416189822,-6.86655985351331,25.482566567483
1580423615.7907,221.896696421759,-3.87579156176093,39.8870832379644
1580423615.79469,233.798733501183,2.96025024795904,52.3384451056686
1580423615.79869,231.601434348058,11.6273746852826,61.7380025940333
1580423615.80268,215.365835049974,19.7451743343252,67.0481422140842
1580423615.80668,187.411306935225,24.5059891660944,67.719539177539
1580423615.81067,152.864881361105,24.1397726405737,63.9963378347452
1580423615.81466,118.01327534905,18.5854886701761,56.1837186236362
1580423615.81866,87.3731593804837,10.4676890211338,45.075150682841
1580423615.82265,62.4704356450748,2.7161058976119,31.7692835889218
1580423615.82664,41.9623102159151,-4.42511635004189,18.0971999694818
1580423615.83064,24.8722056916151,-10.7118333714809,5.95101853971164
1580423615.83463,11.0780498970016,-15.7167925535973,-3.20439459830618
1580423615.83862,0.640878919661191,-19.2568856336309,-9.30800335698473
1580423615.84261,-8.33142595559616,-21.6372930495154,-14.068818188754
1580423615.8466,-17.1206225680933,-22.9800869764247,-19.1348134584573
1580423615.8506,-26.5812161440451,-24.2008087281604,-25.2994583047225
1580423615.85459,-36.7132066834517,-26.0929274433508,-31.8303196765089
1580423615.85859,-47.5165941863127,-28.9616235599296,-38.2391088731213
1580423615.86258,-58.503089951934,-32.3796444647899,-43.8544289311055
1580423615.86657,-70.1609826810102,-35.7366292820632,-48.2490272373541
1580423615.87057,-82.0019836728466,-38.3611810482948,-51.1177233539331
1580423615.87456,-93.2326237888151,-40.5584802014191,-51.8501564049745
1580423615.87855,-103.120469977875,-41.8402380407417,-50.2021820401312
1580423615.88255,-110.933089188983,-42.5726710917831,-46.1738002594034
1580423615.88654,-116.182192721447,-42.9388876173039,-40.1312275883117
1580423615.89053,-118.135347524224,-42.6947432669567,-32.074464026856
1580423615.89453,-117.097734035248,-41.5960936903946,-22.8580148012511
1580423615.89852,-113.191424429694,-39.5208667124439,-12.9701686121919
1580423615.90251,-106.538490882735,-36.8352788586253,-2.96025024795904
1580423615.90651,-97.8103303578241,-33.1120775158313,6.37827115281902
1580423615.9105,-87.9224841687646,-27.9240100709544,14.9843595025559
1580423615.91449,-76.9359884031433,-21.4541847867551,22.5528343633173
1580423615.91848,-64.5456626230259,-14.6791790646218,28.9616235599296
1580423615.92248,-50.4463263904784,-7.7821011673152,34.0886549172196
1580423615.92647,-34.8821240558482,-1.19020370794237,37.9949645227739
1580423615.93046,-18.646524757763,5.27962157625689,40.6195162890058
1580423615.93446,-2.41092545967808,11.2611581597619,42.2064545662622
1580423615.93845,13.214312962539,16.632333867399,43.1219958800639
1580423615.94244,27.5577935454337,20.5996795605402,43.6713206683451
1580423615.94644,40.3753719386586,23.4073395895323,43.6713206683451
1580423615.95043,51.0566872663462,25.1773861295489,43.6102845807582
1580423615.95442,59.1134508278019,26.4591439688716,43.2440680552374
1580423615.95842,64.5456626230261,27.191577019913,42.3895628290225
1580423615.96241,67.5974670023652,27.6798657206073,41.1078049897001
1580423615.9664,68.5740444037538,27.4357213702601,39.2767223620965
1580423615.9704,67.719539177539,26.337071793698,36.7132066834515
1580423615.97439,65.4001678492409,24.2618448157473,33.5393301289387
1580423615.97839,61.9821469443805,21.9424734874494,29.755092698558
1580423615.98238,57.7706569008924,19.3179217212175,25.6046387426566
1580423615.98637,53.4370946822305,16.5712977798123,21.0879682612344
1580423615.99037,49.2256046387424,14.068818188754,16.7544060425726
1580423615.99438,44.9530785076674,11.6273746852826,12.5429159990845
1580423615.99838,40.6195162890058,9.4911116197452,8.6366063935302
1580423616.00237,35.6755931944761,7.66002899214163,5.09651331349664
1580423616.00636,30.1213092240787,6.01205462729831,2.16678110933094
1580423616.01036,23.773556115053,4.18097199969475,-0.396734569314049
1580423616.01435,16.9985503929197,2.41092545967808,-2.59403372243833
1580423616.01834,9.79629205767901,0.70191500724809,-4.42511635004189
1580423616.02234,2.22781719691761,-1.0070954451819,-6.13412680247188
1580423616.02633,-5.7068741893645,-2.41092545967808,-7.53795681696806
1580423616.03033,-13.519493400473,-3.63164721141379,-8.94178683146401
1580423616.03432,-20.904859998474,-4.73029678797593,-10.2235446707866
1580423616.03831,-27.7409018081939,-5.46272983901736,-11.0170138094147
1580423616.04231,-33.6003662165256,-5.88998245212474,-11.5663385976959
1580423616.0463,-37.9949645227741,-6.25619897764545,-11.5663385976959
1580423616.05029,-41.3519493400474,-6.5003433279926,-11.3221942473488
1580423616.05429,-43.5492484931717,-6.74448767833974,-10.2845807583733
1580423616.05828,-45.3192950331884,-6.92759594110021,-9.00282291905091
1580423616.06227,-46.4179446097505,-7.04966811627378,-7.53795681696806
1580423616.06627,-46.9062333104448,-7.29381246662092,-5.6458381017776
1580423616.07026,-47.0283054856184,-7.66002899214163,-3.87579156176093
1580423616.07425,-47.0893415732053,-7.84313725490188,-2.22781719691761
1580423616.07824,-46.6620889600977,-7.59899290455473,-0.762951094834762
1580423616.08224,-45.9296559090562,-7.35484855420759,0.213626306553806
1580423616.08623,-44.7089341573205,-6.74448767833974,0.640878919661191
1580423616.09022,-42.877851529717,-5.82894636453807,0.762951094834762
1580423616.09422,-40.1922636758984,-4.8523689631495,0.70191500724809
1580423616.09821,-37.0183871213856,-4.30304417486832,0.579842832074519
1580423616.1022,-33.5393301289389,-3.81475547417404,0.640878919661191
1580423616.1062,-30.7316700999465,-3.20439459830618,0.457770656900948
1580423616.11019,-28.7785152971694,-2.28885328450451,0.335698481727377
1580423616.11418,-26.5201800564582,-1.43434805828952,-0.0305180437933359
1580423616.11818,-23.9566643778132,-0.885023270008332,-0.762951094834762
1580423616.12217,-21.5152208743418,-0.70191500724809,-1.55642023346309
1580423616.12616,-18.8296330205233,-0.762951094834762,-2.7161058976119
1580423616.13016,-16.0219729915311,-0.823987182421661,-3.81475547417404
1580423616.13415,-13.0922407873654,-0.762951094834762,-4.97444113832307
1580423616.13814,-9.85732814526591,-0.579842832074519,-6.25619897764545
1580423616.14214,-6.62241550316617,-0.396734569314049,-7.41588464179449
1580423616.14613,-3.63164721141379,-0.335698481727377,-8.39246204318306
1580423616.15013,-0.946059357595232,-0.396734569314049,-8.94178683146401
1580423616.15414,1.49538414587619,-0.457770656900948,-9.4300755321583
1580423616.15814,3.50957503624022,-0.579842832074519,-9.61318379491877
1580423616.16213,5.27962157625689,-0.51880674448762,-9.73525597009234
1580423616.16612,6.98863202868688,-0.579842832074519,-10.0404364080262
1580423616.17012,8.75867856870377,-1.0681315327688,-10.4676890211338
1580423616.17411,10.3456168459602,-1.67849240863666,-10.8339055466545
1580423616.1781,11.9935912108033,-2.34988937209118,-11.4442664225223
1580423616.1821,13.4584573128861,-3.20439459830618,-11.8715190356297
1580423616.18609,14.4960708018616,-4.24200808728165,-12.6039520866711
1580423616.19009,15.2895399404897,-5.34065766384379,-13.3363851377126
1580423616.19408,16.2050812542916,-6.31723506523235,-14.068818188754
1580423616.19807,16.5102616922254,-7.53795681696806,-14.5571068894483
1580423616.20207,16.3881895170518,-8.5755703059433,-14.8012512397954
1580423616.20606,15.5336842908368,-9.61318379491877,-14.8012512397954
1580423616.21005,13.9467460135804,-10.4676890211338,-14.5571068894483
1580423616.21405,12.2987716487373,-11.0780498970016,-14.1298542763409
1580423616.21804,11.2001220721752,-11.3832303349354,-13.519493400473
1580423616.22203,10.1625085831997,-11.5663385976959,-13.0312046997788
1580423616.22603,9.4300755321583,-11.1390859845883,-12.5429159990845
1580423616.23002,8.39246204318306,-10.5287251087204,-12.2987716487373
1580423616.23401,6.86655985351331,-10.3456168459602,-11.9935912108033
1580423616.238,5.03547722590974,-10.4676890211338,-11.4442664225223
1580423616.24199,3.26543068589308,-10.955977721828,-10.5897611963073
1580423616.24599,1.67849240863666,-11.4442664225223,-9.61318379491877
1580423616.24998,0.51880674448762,-11.810482948043,-8.6366063935302
1580423616.25398,-0.335698481727377,-11.8715190356297,-7.96520943007545
1580423616.25797,-1.0070954451819,-11.810482948043,-7.29381246662092
1580423616.26196,-1.67849240863666,-11.5663385976959,-6.43930724040592
1580423616.26596,-2.53299763485165,-10.8339055466545,-5.76791027695117
1580423616.26995,-3.99786373693451,-9.91836423285258,-4.97444113832307
1580423616.27394,-5.88998245212474,-8.94178683146401,-4.36408026245522
1580423616.27794,-7.72106507972831,-7.72106507972831,-3.87579156176093
1580423616.28193,-9.30800335698473,-6.56137941557949,-3.20439459830618
1580423616.28592,-10.5287251087204,-5.82894636453807,-2.65506981002522
1580423616.28992,-11.2611581597619,-5.15754940108332,-1.8616006713969
1580423616.29391,-11.8715190356297,-4.7913328755626,-1.25123979552905
1580423616.2979,-12.5429159990845,-4.7913328755626,-0.823987182421661
1580423616.3019,-12.7870603494316,-4.8523689631495,-0.70191500724809
1580423616.30589,-12.7870603494316,-4.7913328755626,-0.762951094834762
1580423616.30989,-12.1766994735638,-4.48615243762879,-1.37331197070262
1580423616.31387,-10.7118333714809,-3.99786373693451,-2.16678110933094
1580423616.31787,-9.4911116197452,-3.87579156176093,-3.08232242313261
1580423616.32186,-8.6366063935302,-4.05889982452118,-4.30304417486832
1580423616.32585,-8.69764248111687,-4.60822461280236,-5.52376592660403
1580423616.32985,-10.0404364080262,-5.21858548867021,-7.11070420386045
1580423616.33384,-11.6884107728695,-5.76791027695117,-8.88075074387734
1580423616.33783,-12.664988174258,-6.07309071488521,-10.8949416342411
1580423616.34183,-12.6039520866711,-6.37827115281902,-12.7260242618447
1580423616.34582,-10.955977721828,-6.86655985351331,-14.4350347142747
1580423616.34981,-8.27038986800949,-7.29381246662092,-15.4726482032502
1580423616.35381,-5.15754940108332,-7.35484855420759,-16.2661173418783
1580423616.3578,-2.47196154726475,-6.98863202868688,-16.8154421301595
1580423616.36179,-0.51880674448762,-6.13412680247188,-16.937514305333
1580423616.36579,0.396734569314049,-5.15754940108332,-16.5712977798123
1580423616.36978,0.885023270008332,-3.93682764934761,-15.777828641184
1580423616.37378,1.43434805828952,-2.7161058976119,-14.4350347142747
1580423616.37777,2.22781719691761,-1.73952849622333,-12.9091325246052
1580423616.38176,3.14335851071951,-0.946059357595232,-11.0170138094147
1580423616.38576,4.11993591210808,-0.0305180437933359,-9.18593118181116
1580423616.38975,5.21858548867021,0.885023270008332,-7.41588464179449
1580423616.39377,6.56137941557949,1.73952849622333,-5.7068741893645
1580423616.39776,7.84313725490188,2.7161058976119,-4.05889982452118
1580423616.40175,9.24696726939806,3.57061112382689,-2.47196154726475
1580423616.40575,10.7728694590676,4.42511635004189,-1.0681315327688
1580423616.40974,12.1766994735638,5.52376592660403,0.091554131380235
1580423616.41373,13.7026016632333,6.68345159075307,1.25123979552905
1580423616.41773,15.4116121156633,7.72106507972831,2.16678110933094
1580423616.42172,17.4258030060273,8.5755703059433,2.89921416037237
1580423616.42572,19.2568856336309,9.24696726939806,3.57061112382689
1580423616.42971,21.210040436408,9.97940032043948,4.30304417486832
1580423616.4337,22.9800869764247,10.7728694590676,4.8523689631495
1580423616.4377,24.5670252536811,11.5663385976959,5.40169375143046
1580423616.44169,26.0929274433508,12.6039520866711,5.58480201419093
1580423616.44568,27.3746852826732,13.8246738384069,5.46272983901736
1580423616.44968,28.2291905088882,14.8012512397954,4.97444113832307
1580423616.45367,28.1681544213016,15.8388647287709,3.81475547417404
1580423616.45766,27.3746852826732,16.5102616922254,2.22781719691761
1580423616.46166,25.9098191805904,16.8764782177461,0.335698481727377
1580423616.46565,23.5294117647059,17.1816586556802,-1.61745632104976
1580423616.46965,20.355535210193,17.3037308308537,-3.50957503624022
1580423616.47363,16.3881895170518,17.6699473563745,-4.73029678797593
1580423616.47763,11.6273746852826,17.8530556191347,-5.76791027695117
1580423616.48162,6.25619897764545,18.0971999694818,-5.88998245212474
1580423616.48561,1.25123979552905,18.4023804074159,-5.34065766384379
1580423616.48961,-2.83817807278547,19.2568856336309,-4.18097199969475
1580423616.4936,-6.07309071488521,20.8438239108873,-2.7161058976119
1580423616.49759,-8.33142595559616,23.2242313267718,-1.55642023346309
1580423616.50159,-9.73525597009234,26.4591439688716,-0.51880674448762
1580423616.50558,-10.8339055466545,30.1213092240787,0.152590218966907
1580423616.50957,-11.6273746852826,33.7224383916989,0.823987182421661
1580423616.51357,-12.2987716487373,36.8963149462118,1.55642023346309
1580423616.51756,-13.214312962539,39.6429388876172,2.96025024795904
1580423616.52155,-14.373998626688,41.9623102159151,4.8523689631495
1580423616.52555,-15.4726482032502,43.9154650186922,7.53795681696806
1580423616.52954,-15.5947203784237,44.7699702449072,11.3221942473488
1580423616.53354,-14.7402151522087,44.5868619821467,16.4492256046387
1580423616.53753,-13.8246738384069,42.8168154421301,22.4917982757304
1580423616.54152,-14.3129625391011,39.4598306248567,29.6940566109711
1580423616.54552,-16.2661173418783,35.8587014572365,38.1170366979475
1580423616.54951,-18.7075608453497,31.2199588006408,47.3945220111389
1580423616.55353,-20.904859998474,25.3604943923094,57.3434042877848
1580423616.55752,-23.3463035019454,19.1348134584573,66.8650339513238
1580423616.56151,-25.7267109178301,11.8715190356297,75.2269779507137
1580423616.56551,-28.1681544213016,3.08232242313261,81.7578393224994
1580423616.5695,-31.2199588006408,-5.7068741893645,86.0914015411613
1580423616.57349,-36.346990157931,-13.8857099259938,88.2276646066989
1580423616.57749,-43.6102845807584,-22.0035095750361,87.2510872053103
1580423616.58148,-51.9722285801481,-29.3888761730373,83.1616693369956
1580423616.58548,-59.9679560540169,-35.8587014572367,76.0204470893418
1580423616.58947,-66.5598535133897,-42.7557793545434,66.4988174258033
1580423616.59346,-71.7479209582666,-52.582589456016,56.1226825360491
1580423616.59746,-77.302204928664,-65.339131761654,45.929655909056
1580423616.60145,-84.9317158770123,-78.7060349431601,37.0183871213853
1580423616.60544,-95.0637064164189,-90.8522163729303,29.755092698558
1580423616.60944,-107.209887846189,-100.312809948882,24.9942778667887
1580423616.61343,-120.210574502174,-106.05020218204,22.919050888838
1580423616.61742,-132.784008545052,-108.003356984817,23.3463035019454
1580423616.62142,-143.6484321355,-106.233310444801,25.1773861295489
1580423616.62541,-151.705195696956,-102.571145189593,27.0084687571525
1580423616.6294,-155.916685740444,-98.6037994964524,27.6188296330204
1580423616.63339,-155.855649652857,-95.6130312046998,26.4591439688716
1580423616.63738,-152.37659266041,-93.9040207522698,23.4073395895323
1580423616.64138,-146.272983901732,-93.4767681391622,19.0127412832837
1580423616.64537,-138.216220340276,-93.9650568398567,13.4584573128861
1580423616.64937,-128.999771114672,-94.8805981536584,7.84313725490188
1580423616.65336,-118.806744487678,-95.857175555047,3.02128633554594
1580423616.65735,-107.087815671016,-96.4065003433282,-0.152590218966907
1580423616.66135,-94.8195620660717,-95.307850766766,-2.10574502174404
1580423616.66534,-82.734416723888,-92.5612268253603,-2.34988937209118
1580423616.66933,-71.1375600823987,-88.0445563439382,-1.25123979552905
1580423616.67333,-60.4562447547112,-82.3682001983673,1.0070954451819
1580423616.67732,-50.2632181277181,-76.6308079652094,4.11993591210808
1580423616.68131,-40.3753719386589,-71.1375600823987,8.14831769283592
1580423616.68531,-30.3044174868389,-67.6585030899519,12.5429159990845
1580423616.6893,-20.5386434729533,-68.0857557030595,17.6089112687876
1580423616.6933,-12.8480964370183,-71.9310292210268,23.4073395895323
1580423616.69729,-9.30800335698473,-76.2035553521018,30.1213092240787
1580423616.70128,-10.8949416342411,-77.7294575417716,37.9949645227739
1580423616.70527,-16.3271534294652,-76.0204470893416,46.4789806973372
1580423616.70927,-23.0411230640116,-74.0672922865645,55.2071412222476
1580423616.71326,-28.6564431219958,-73.0907148851759,63.8742656595714
1580423616.71725,-33.0510414282446,-72.0531013962004,71.137560082399
1580423616.72124,-35.8587014572367,-70.8323796444647,75.9594110017551
1580423616.72524,-36.1638818951706,-70.0389105058366,78.4008545052266
1580423616.72923,-33.8445105668727,-70.2220187685969,78.3398184176394
1580423616.73322,-30.5485618371861,-71.4427405203326,76.8139162279699
1580423616.73722,-27.5577935454337,-72.9686427100023,74.0672922865647
1580423616.74121,-24.322880903334,-74.4945448996718,70.3440909437709
1580423616.7452,-19.8062104219118,-77.1801327534904,66.010528725109
1580423616.7492,-13.2753490501259,-81.574731059739,61.1886778057524
1580423616.75319,-5.27962157625689,-86.0914015411611,56.2447547112229
1580423616.75718,2.96025024795904,-89.570458533608,51.7891203173876
1580423616.76118,11.2001220721752,-92.8053711757075,47.94384679942
1580423616.76517,19.195849546044,-94.8195620660717,45.2582589456015
1580423616.76917,26.0929274433508,-94.0260929274434,43.4882124055846
1580423616.77316,31.5251392385746,-90.6691081101701,42.8778515297167
1580423616.77715,34.4548714427403,-86.6407263294423,42.8778515297167
1580423616.78115,34.9431601434346,-81.9409475852597,43.2440680552374
1580423616.78514,33.5393301289387,-76.9970244907302,43.7933928435186
1580423616.78913,30.609597924773,-72.4193179217211,44.220645456626
1580423616.79315,26.0929274433508,-69.0012970168611,44.7089341573203
1580423616.79714,20.6607156481268,-67.048142214084,44.8310063324939
1580423616.80114,15.6557564660104,-66.4988174258031,44.4037537193865
1580423616.80513,11.505302510109,-66.2546730754559,43.3051041428243
1580423616.80913,7.90417334248878,-65.5832761120012,41.8402380407415
1580423616.81312,5.03547722590974,-64.4235904478523,40.3753719386586
1580423616.81711,2.96025024795904,-63.1418326085297,38.9105058365758
1580423616.82111,1.55642023346309,-62.5314717326619,37.3235675593194
1580423616.8251,0.396734569314049,-62.775616083009,35.6755931944761
1580423616.82909,-0.70191500724809,-63.1418326085297,34.0886549172196
1580423616.83309,-2.47196154726475,-63.2639047837033,32.0744640268558
1580423616.83708,-4.91340505073617,-63.0197604333562,30.2433813992523
1580423616.84107,-7.41588464179449,-62.1042191195545,28.3512626840618
1580423616.84507,-10.4676890211338,-60.5783169298847,26.7643244068054
1580423616.84906,-14.1298542763409,-58.1368734264133,25.8487830930037
1580423616.85305,-18.4023804074159,-55.4512855725948,25.2384222171358
1580423616.85705,-23.0411230640116,-53.3760585946441,25.0553139543754
1580423616.86104,-28.6564431219958,-51.1177233539331,25.3604943923094
1580423616.86503,-36.1638818951706,-49.0424963759824,25.8487830930037
1580423616.86903,-44.4037537193867,-47.3945220111391,25.9708552681773
1580423616.87302,-52.4605172808424,-46.0517280842298,25.7877470054168
1580423616.87701,-59.4796673533226,-44.9530785076677,25.482566567483
1580423616.881,-65.7053482871747,-43.7933928435189,24.6890974288547
1580423616.885,-71.9920653086137,-42.5116350041963,23.6514839398794
1580423616.88899,-78.461890592813,-41.1078049897003,22.4917982757304
1580423616.89298,-83.8330663004501,-39.8260471503777,21.1490043488211
1580423616.89698,-88.3497367818723,-39.2156862745098,19.6231021591516
1580423616.90097,-91.5846494239718,-38.7273975738156,18.2192721446554
1580423616.90496,-93.2936598764018,-38.3611810482948,16.8764782177461
1580423616.90896,-93.9650568398567,-37.750820172427,15.5947203784237
1580423616.91295,-93.2936598764018,-37.0183871213856,14.373998626688
1580423616.91694,-91.4015411612115,-36.1638818951706,12.9091325246052
1580423616.92094,-88.4718089570458,-35.1262684061953,11.3221942473488
1580423616.92493,-84.6875715266651,-33.8445105668727,9.36903944457163
1580423616.92893,-80.0488288700694,-32.1965362020296,7.23277637903402
1580423616.93292,-74.3114366369116,-30.4875257495994,5.03547722590974
1580423616.93691,-67.2922865644312,-28.7785152971694,2.7161058976119
1580423616.94091,-59.4796673533226,-26.9474326695658,0.457770656900948
1580423616.9449,-50.6904707408255,-25.1773861295489,-2.10574502174404
1580423616.94889,-41.3519493400474,-23.3463035019454,-4.8523689631495
1580423616.95291,-31.5251392385749,-21.4541847867551,-7.59899290455473
1580423616.9569,-20.9658960860609,-19.6231021591516,-10.5897611963073
1580423616.9609,-9.91836423285258,-17.9140917067216,-13.5805294880597
1580423616.96489,1.8616006713969,-16.3881895170518,-16.5102616922254
1580423616.96888,14.1298542763409,-15.1674677653161,-19.2568856336309
1580423616.97288,26.2760357061111,-14.1908903639276,-21.5152208743418
1580423616.97687,38.4832532234682,-13.4584573128861,-23.2242313267718
1580423616.98087,50.7515068284119,-12.7870603494316,-24.4449530785075
1580423616.98486,63.6301213092243,-12.6039520866711,-25.2994583047225
1580423616.98885,76.6918440527966,-12.6039520866711,-25.6046387426566
1580423616.99285,89.8146028839551,-12.5429159990845,-25.7877470054168
1580423616.99684,102.510109102006,-11.7494468604561,-25.9708552681773
1580423617.00083,114.473182269016,-10.0404364080262,-26.0929274433508
1580423617.00483,126.802471961547,-7.35484855420759,-26.0318913557639
1580423617.00882,140.291447318227,-4.30304417486832,-25.5436026550697
1580423617.01281,155.42839703975,-1.80056458381023,-24.9332417792018
1580423617.01681,171.236743724727,0.274662394140478,-24.3839169909209
1580423617.0208,185.214007782101,2.41092545967808,-24.8722056916151
1580423617.02479,195.773250934615,5.52376592660403,-26.3981078812847
1580423617.02879,202.548256656748,10.1014724956131,-28.5954070344089
1580423617.03278,206.576638437477,15.2895399404897,-31.0978866254673
1580423617.03677,207.309071488518,19.8672465094987,-32.8068970778975
1580423617.04076,203.952086671245,23.2852674143587,-33.478294041352
1580423617.04476,195.712214847028,25.8487830930037,-32.6848249027239
1580423617.04875,181.368734264133,26.7032883192187,-30.7927061875332
1580423617.05274,161.776150148775,25.6046387426566,-27.9850461585411
1580423617.05674,138.460364690623,21.9424734874494,-24.7501335164416
1580423617.06073,114.656290531777,15.0453955901426,-20.9658960860609
1580423617.06472,93.2936598764022,5.6458381017776,-16.937514305333
1580423617.06872,75.7763027389947,-4.60822461280236,-13.4584573128861
1580423617.07271,63.2639047837038,-14.068818188754,-10.8339055466545
1580423617.0767,56.0006103608757,-20.8438239108873,-9.30800335698473
1580423617.0807,52.6436255436024,-24.7501335164416,-8.45349813076973
1580423617.08469,51.2397955291062,-25.7877470054168,-8.33142595559616
1580423617.08869,48.6762798504615,-24.1397726405737,-9.06385900663759
1580423617.09268,43.2440680552374,-20.1724269474325,-10.2845807583733
1580423617.09667,36.1638818951703,-15.1064316777295,-10.8949416342411
1580423617.10066,29.6330205233844,-10.1014724956131,-10.1014724956131
1580423617.10466,25.4215304798961,-6.13412680247188,-7.35484855420759
1580423617.10865,23.9566643778132,-3.14335851071951,-2.89921416037237
1580423617.11264,25.0553139543754,-0.396734569314049,2.28885328450451
1580423617.11663,26.5812161440451,3.44853894865332,7.23277637903402
1580423617.12063,26.8863965819789,9.4300755321583,11.3832303349354
1580423617.12462,25.2384222171358,16.6933699549859,14.6181429770352
1580423617.12861,21.4541847867551,23.8345922026397,16.7544060425726
1580423617.13261,16.8764782177461,29.0836957351032,17.8530556191347
1580423617.1366,12.359807736324,32.5017166399632,18.646524757763
1580423617.14059,7.35484855420759,34.2717631799801,19.0127412832837
1580423617.14459,1.0681315327688,35.4924849317158,19.3789578088044
1580423617.14858,-6.98863202868688,37.1404592965589,19.8062104219118
1580423617.15258,-16.1440451667047,38.3001449607079,19.9893186846723
1580423617.15657,-25.482566567483,38.0560006103608,20.050354772259
1580423617.16056,-34.2107270923934,35.1873044937818,19.9282825970854
1580423617.16456,-42.877851529717,30.7316700999465,19.3789578088044
1580423617.16855,-52.0332646677348,25.482566567483,18.341344319829
1580423617.17254,-61.8600747692074,20.050354772259,16.632333867399
1580423617.17654,-72.2362096589609,15.5947203784237,14.4350347142747
1580423617.18053,-82.3071641107804,12.664988174258,12.0546272983902
1580423617.18452,-90.6080720225832,11.505302510109,9.67421988250544
1580423617.18852,-96.0402838178074,11.6273746852826,7.90417334248878
1580423617.19253,-98.4817273212789,12.5429159990845,7.29381246662092
1580423617.19653,-98.1765468833448,13.9467460135804,8.33142595559616
1580423617.20052,-95.4909590295263,15.9609369039445,11.0780498970016
1580423617.20452,-90.9132524605172,18.5244525825894,14.923323414969
1580423617.20851,-84.6875715266651,21.6983291371023,20.2334630350194
1580423617.2125,-76.6308079652094,25.482566567483,25.8487830930037
1580423617.2165,-66.4377813382162,29.9382009613182,31.7082475013351
1580423617.22049,-54.0474555580988,34.882124055848,37.3235675593194
1580423617.22448,-39.5208667124439,40.1312275883115,42.1454184786753
1580423617.22848,-23.468375677119,45.1972228580146,46.0517280842296
1580423617.23247,-6.62241550316617,49.8359655146105,48.9204242008086
1580423617.23646,9.79629205767901,53.4370946822305,50.3852903028915
1580423617.24046,24.8111696040282,55.9395742732891,50.6294346532386
1580423617.24445,37.8118562600137,57.038223849851,49.5918211642634
1580423617.24844,47.7607385366596,57.2213321126114,47.3334859235522
1580423617.25244,55.2681773098343,55.9395742732891,43.5492484931715
1580423617.25643,59.7238117036695,53.07087815671,38.3001449607079
1580423617.26042,61.0055695429919,48.9204242008086,31.9523918516823
1580423617.26442,59.2355230029752,43.3051041428243,24.8111696040282
1580423617.26841,54.3526359960324,36.3469901579308,17.4258030060273
1580423617.2724,46.2958724345767,28.1681544213016,9.73525597009234
1580423617.27639,35.0652323186082,18.9517051956968,2.04470893415737
1580423617.28039,21.759365224689,8.27038986800949,-5.6458381017776
1580423617.28438,7.23277637903402,-3.38750286106665,-13.0922407873654
1580423617.28837,-7.04966811627378,-15.4116121156633,-20.1724269474325
1580423617.29237,-19.9893186846723,-27.191577019913,-26.2760357061111
1580423617.29636,-30.5485618371861,-37.9339284351875,-31.2809948882277
1580423617.30035,-37.6897840848403,-47.1503776607919,-34.6990157930877
1580423617.30435,-41.168841077287,-53.437094682231,-36.4690623331046
1580423617.30834,-40.7415884641796,-55.5123216601817,-35.9807736324103
1580423617.31234,-36.346990157931,-52.7656977187762,-32.8679331654841
1580423617.31633,-28.6564431219958,-44.0985732814527,-27.5577935454337
1580423617.32032,-18.4634164950025,-29.2057679102768,-19.9282825970854
1580423617.32431,-6.68345159075307,-8.88075074387734,-10.5897611963073
1580423617.32831,5.21858548867021,15.4726482032502,-0.0305180437933359
1580423617.3323,16.5102616922254,42.0843823910886,11.0780498970016
1580423617.3363,26.3981078812847,68.0857557030595,22.6749065384909
1580423617.34029,34.9431601434346,91.6456855115589,34.3327992675668
1580423617.34428,42.8778515297167,111.604486152438,46.0517280842296
1580423617.34828,50.3242542153048,128.450446326391,57.5875486381319
1580423617.35229,57.5875486381319,142.793926909285,68.2688639658199
1580423617.35629,64.7287708857866,154.451819638361,78.1567101548794
1580423617.36028,71.1985961699856,163.118944075685,87.312123292897
1580423617.36427,75.1049057755399,168.734264133669,95.1247425040056
1580423617.36827,75.9594110017551,171.847104600595,101.350423437858
1580423617.37226,73.3958953231099,172.457465476463,105.806057831693
1580423617.37626,67.5974670023652,171.419851987488,108.003356984817
1580423617.38025,59.90691996643,169.832913710231,107.698176546884
1580423617.38424,50.9956511787591,168.856336308842,104.829480430305
1580423617.38824,41.9012741283282,169.222552834363,99.885557335775
1580423617.39223,33.2341496910046,171.908140688182,93.4767681391622
1580423617.39622,24.9942778667887,177.523460746166,85.6641489280537
1580423617.40022,17.792019531548,185.336079957275,77.607385366598
1580423617.40421,12.2377355611504,192.538338292516,69.7337300679028
1580423617.4082,8.51453421835663,197.299153124285,62.9587243457695
1580423617.4122,7.41588464179449,196.566720073244,58.0148012512395
1580423617.41619,10.4066529335469,186.55680170901,55.1461051346605
1580423617.42018,21.8814373998625,161.593041886015,55.0240329594872
1580423617.42418,42.3895628290225,122.590981918059,60.0289921416033
1580423617.42817,40.7415884641794,91.5236133363851,74.006256198978
1580423617.43216,-7.41588464179449,55.4512855725948,75.5321583886475
1580423617.43615,-70.5271992065309,4.36408026245522,53.9253833829248
1580423617.44015,-113.801785305562,-2.34988937209118,52.7656977187762
1580423617.44414,-109.407186999313,-6.5003433279926,41.3519493400472
1580423617.44813,-89.9366750591287,-56.5499351491569,29.755092698558
1580423617.45213,-109.040970473793,-83.1006332494087,21.210040436408
1580423617.45612,-138.948653391318,-58.6861982146945,4.48615243762879
1580423617.46011,-145.662623025864,-23.0411230640116,-13.8246738384069
1580423617.46411,-125.337605859464,-0.274662394140478,-28.2902265964751
1580423617.4681,-89.7535667963682,15.6557564660104,-38.2391088731213
1580423617.47209,-56.6720073243305,39.2767223620965,-42.9388876173039
1580423617.47609,-41.0467689021134,71.0154879072252,-44.4647898069734
1580423617.48008,-49.164568551156,99.6414129854279,-44.037537193866
1580423617.48407,-74.1283283741511,115.266651407645,-42.328526741436
1580423617.48807,-92.133974212253,117.158770122835,-38.3001449607082
1580423617.49206,-77.302204928664,110.566872663462,-30.609597924773
1580423617.49605,-20.5996795605402,101.655603875792,-18.5854886701761
1580423617.50005,64.6066987106128,92.6222629129475,-2.65506981002522
1580423617.50404,149.324788281071,92.6832990005341,16.3881895170518
1580423617.50804,209.323262378882,110.017547875181,36.9573510337987
1580423617.51205,241.855497062638,144.380865186542,55.329213397421
1580423617.51605,262.363622491798,188.143739986267,67.719539177539
1580423617.52004,292.637521934844,230.136568245975,74.006256198978
1580423617.52403,352.574959945068,262.058442053864,77.3022049286642
1580423617.52803,442.847333485924,288.059815365835,79.133287556268
1580423617.53202,536.354619668879,314.976729991608,82.4902723735408
1580423617.53602,579.140917067216,332.433051041428,95.9182116426337
1580423617.54001,495.277332722972,323.155565728237,130.098420691234
1580423617.544,311.253528648813,271.702143892576,166.170748455024
1580423617.548,142.610818646525,202.365148393988,178.622110322728
1580423617.55199,54.1084916456853,163.9734493019,171.236743724727
1580423617.55598,22.8580148012511,166.598001068131,138.887617303731
1580423617.55998,-2.04470893415737,174.288548104066,95.6740672922865
1580423617.56397,-24.9942778667887,167.696650644693,53.0098420691234
1580423617.56796,-38.7884336614025,156.588082703899,15.777828641184
1580423617.57196,-49.6528572518503,151.644159609369,-12.359807736324
1580423617.57595,-66.4377813382162,154.024567025253,-32.2575722896163
1580423617.57994,-91.1573968108644,160.494392309453,-45.6244754711224
1580423617.58394,-122.041657129778,167.147325856412,-52.2774090180819
1580423617.58793,-154.573891813535,169.710841535058,-53.3150225070574
1580423617.59195,-181.857022964828,167.208361943999,-48.9814602883955
1580423617.59594,-199.313344014649,161.715114061189,-40.8026245517663
1580423617.59994,-207.492179751278,154.695963988708,-31.0368505378804
1580423617.60393,-210.605020218204,148.531319142443,-20.4776073853666
1580423617.60792,-213.53475242237,144.502937361715,-10.4066529335469
1580423617.61192,-219.211108567941,142.183566033417,-1.80056458381023
1580423617.61591,-227.328908216983,140.962844281682,4.91340505073617
1580423617.6199,-234.836346990158,141.084916456855,9.97940032043948
1580423617.6239,-237.705043106737,142.244602121004,14.7402151522087
1580423617.62789,-233.676661326009,143.099107347219,20.2334630350194
1580423617.63188,-224.643320363165,142.366674296178,26.2760357061111
1580423617.63588,-212.802319371328,141.145952544442,30.9758144502937
1580423617.63987,-199.008163576715,141.878385595483,36.2249179827572
1580423617.64386,-182.406347753109,144.991226062409,35.6145571068894
1580423617.64786,-163.241016250858,147.249561303121,28.9616235599296
1580423617.65185,-143.099107347219,146.150911726558,29.9992370489051
1580423617.65584,-125.337605859464,145.052262149996,44.8310063324939
1580423617.65984,-109.040970473793,138.399328603036,51.1177233539329
1580423617.66383,-88.6549172198061,129.121843289845,53.6812390325777
1580423617.66783,-62.7145799954224,122.468909742885,54.8409246967267
1580423617.67181,-34.8821240558482,117.158770122835,56.7940794995038
1580423617.67581,-8.20935378042259,113.435568780041,59.7848477912562
1580423617.6798,16.8764782177461,110.505836575875,62.0431830319676
1580423617.68379,42.1454184786753,107.515068284123,61.1276417181657
1580423617.68779,69.1233691920352,103.608758678569,56.3057907988095
1580423617.69178,98.5427634088655,97.9934386205846,45.9906919966429
1580423617.69578,128.999771114672,89.4483863584346,32.2575722896161
1580423617.69977,157.442587930113,78.0956740672923,15.6557564660104
1580423617.70376,179.781795986877,63.8742656595714,-2.04470893415737
1580423617.70775,192.111085679408,48.5542076752877,-19.2568856336309
1580423617.71175,191.805905241474,33.6614023041122,-34.4548714427406
1580423617.71574,178.988326848249,18.7685969329366,-45.8075837338827
1580423617.71974,157.503624017701,2.59403372243833,-53.2539864194705
1580423617.72373,131.624322880903,-15.9609369039445,-56.7940794995041
1580423617.72772,105.317769130999,-36.5911345082782,-57.0382238498512
1580423617.73172,80.5981536583508,-57.8316929884795,-54.4136720836195
1580423617.73571,57.8316929884791,-78.2787823300525,-49.5307850766767
1580423617.7397,36.530098420691,-96.3454642557413,-43.2440680552377
1580423617.7437,16.5712977798123,-111.482413977264,-36.2859540703441
1580423617.74769,-1.80056458381023,-124.055848020142,-29.755092698558
1580423617.75171,-18.0971999694818,-134.248874647135,-24.4449530785075
1580423617.7557,-30.5485618371861,-141.93942168307,-20.7217517357137
1580423617.7597,-38.056000610361,-148.59235523003,-18.5244525825894
1580423617.76369,-39.765011062791,-154.390783550774,-17.5478751812009
1580423617.76768,-33.9055466544596,-156.771190966659,-17.1206225680933
1580423617.77168,-20.050354772259,-154.451819638361,-17.1206225680933
1580423617.77567,0.396734569314049,-150.240329594873,-17.4258030060273
1580423617.77966,23.9566643778132,-146.822308690013,-18.2192721446554
1580423617.78366,46.2348363469901,-145.54055085069,-19.1348134584573
1580423617.78765,63.6301213092243,-146.639200427252,-20.5996795605402
1580423617.79164,73.5790035858704,-148.348210879682,-22.1255817502097
1580423617.79564,75.2880140383004,-147.981994354162,-24.0177004654001
1580423617.79963,70.3440909437709,-145.662623025864,-26.0929274433508
1580423617.80362,62.3483634699014,-143.46532387274,-28.7174792095825
1580423617.80762,53.07087815671,-144.014648661021,-31.4030670634013
1580423617.81161,44.220645456626,-147.798886091402,-34.4548714427406
1580423617.8156,37.2625314717325,-153.292133974212,-37.8118562600139
1580423617.8196,33.9055466544594,-159.334706645304,-41.474021515221
1580423617.82359,35.2483405813687,-165.316243228809,-45.5634393835355
1580423617.82758,39.8870832379644,-172.396429388876,-50.3852903028917
1580423617.83157,44.9530785076674,-181.42977035172,-55.9395742732891
1580423617.83557,46.2348363469901,-192.111085679408,-61.5548943312733
1580423617.83956,41.5960936903944,-202.792401007095,-66.4988174258031
1580423617.84355,30.4875257495994,-212.19195849546,-70.4051270313573
1580423617.84755,14.068818188754,-219.089036392767,-72.5413900968947
1580423617.85154,-5.15754940108332,-222.812237735561,-72.8465705348287
1580423617.85553,-24.6890974288547,-224.765392538338,-71.3817044327459
1580423617.85953,-43.2440680552377,-226.657511253529,-68.207827878233
1580423617.86352,-61.4328221560997,-230.563820859083,-64.0573739223316
1580423617.86751,-79.4384679942016,-236.911573968109,-59.6627756160831
1580423617.87151,-96.7727168688489,-244.968337529564,-55.6954299229419
1580423617.8755,-111.604486152438,-253.452353704128,-52.3994811932555
1580423617.87949,-122.713054093233,-260.776684214542,-50.3852903028917
1580423617.88349,-129.304951552605,-266.5140764477,-49.4697489890898
1580423617.88748,-130.525673304341,-269.748989089799,-49.4087129015031
1580423617.89148,-126.253147173266,-271.274891279469,-50.1411459525445
1580423617.89547,-116.975661860075,-271.030746929122,-51.6670481422141
1580423617.89946,-104.768444342718,-268.955519951171,-54.2305638208591
1580423617.90346,-91.7677576867322,-264.98817425803,-57.7706569008926
1580423617.90745,-79.9877927824825,-259.86114290074,-62.1652552071412
1580423617.91144,-70.1609826810102,-254.55100328069,-66.9260700389104
1580423617.91543,-61.6159304188602,-249.60708018616,-71.5648126955061
1580423617.91943,-51.728084229801,-245.456626230259,-74.6776531624323
1580423617.92342,-38.910505836576,-241.977569237812,-75.6542305638209
1580423617.92741,-22.7969787136644,-239.597161821927,-74.2504005493247
1580423617.9314,-4.42511635004189,-237.582970931563,-71.320668345159
1580423617.9354,14.373998626688,-234.958419165332,-68.0247196154726
1580423617.93939,30.7927061875332,-233.005264362554,-64.7287708857862
1580423617.94339,42.4505989166094,-231.357289997711,-63.2028686961166
1580423617.94738,47.638666361486,-228.854810406653,-63.3249408712902
1580423617.95137,46.4179446097503,-228.366521705959,-64.9729152361333
1580423617.95537,40.4974441138322,-232.3338673991,-69.062333104448
1580423617.95936,31.4030670634011,-235.75188830396,-73.6400396734568
1580423617.96335,20.5386434729533,-236.11810482948,-77.6684214541847
1580423617.96735,8.75867856870377,-234.836346990158,-81.3916227969787
1580423617.97134,-2.7161058976119,-232.211795223926,-85.0537880521858
1580423617.97533,-13.0312046997788,-226.657511253529,-87.9835202563515
1580423617.97933,-21.3321126115816,-218.905928130007,-90.0587472343022
1580423617.98332,-27.4357213702601,-209.811551079576,-91.1573968108644
1580423617.98731,-31.8303196765089,-199.679560540169,-91.1573968108644
1580423617.99133,-34.9431601434349,-188.998245212482,-89.8146028839551
1580423617.99533,-37.4456397344932,-178.01174944686,-87.6173037308308
1580423617.99932,-39.2156862745098,-166.414892805371,-84.8096437018387
1580423618.00331,-40.1922636758984,-155.001144426642,-81.574731059739
1580423618.00731,-40.1312275883117,-144.380865186542,-77.6684214541847
1580423618.0113,-39.2156862745098,-134.859235523003,-73.2127870603495
1580423618.01529,-37.5677119096667,-125.154497596704,-68.8792248416876
1580423618.01929,-35.3704127565425,-115.693904020752,-63.8132295719845
1580423618.02328,-32.1965362020296,-106.05020218204,-58.7472343022812
1580423618.02727,-28.5343709468223,-95.5519951171132,-53.8033112077517
1580423618.03127,-24.0787365529868,-83.4058136873425,-49.0424963759824
1580423618.03526,-18.5854886701761,-70.466163118944,-44.5258258945603
1580423618.03925,-11.9325551232166,-56.6109712367438,-40.0701915007248
1580423618.04325,-4.42511635004189,-41.5960936903946,-35.7366292820632
1580423618.04724,2.89921416037237,-25.2384222171358,-31.5251392385749
1580423618.05123,9.36903944457163,-7.72106507972831,-27.4357213702601
1580423618.05523,15.0453955901426,10.1625085831997,-23.3463035019454
1580423618.05922,20.050354772259,27.9240100709544,-19.195849546044
1580423618.06322,25.2384222171358,44.0985732814524,-14.9843595025559
1580423618.06721,31.4030670634011,57.4044403753719,-11.0170138094147
1580423618.0712,38.7884336614022,68.2078278782333,-7.96520943007545
1580423618.07519,47.94384679942,77.6684214541851,-5.88998245212474
1580423618.07918,59.7238117036695,87.6173037308308,-3.75371938658736
1580423618.08318,76.9970244907304,98.0544747081713,-1.0681315327688
1580423618.08717,102.876325627527,107.57610437171,1.8616006713969
1580423618.09116,138.094148165103,115.571831845579,4.97444113832307
1580423618.09516,178.072785534447,121.736476691844,8.94178683146401
1580423618.09915,214.267185473411,127.656977187762,14.9843595025559
1580423618.10314,239.597161821927,135.652704661631,24.6890974288547
1580423618.10714,251.743343251698,148.226138704509,37.2625314717325
1580423618.11113,250.949874113069,165.499351491569,50.9346150911724
1580423618.11513,239.963378347448,186.007476920729,64.1184100099185
1580423618.11912,225.436789501793,206.149385824369,76.5087357900361
1580423618.12311,215.609979400321,221.835660334173,88.7769893949799
1580423618.12711,214.877546349279,229.465171282521,101.045242999924
1580423618.1311,219.089036392767,228.183413443198,112.214847028305
1580423618.13509,217.441062027924,220.492866407264,120.454718852522
1580423618.13909,201.998931868467,209.628442816816,124.544136720836
1580423618.14308,172.945754177157,197.970550087739,125.825894560159
1580423618.14707,134.431982909895,186.984054322118,126.741435873961
1580423618.15109,83.3447775997561,174.77683680476,128.08422980087
1580423618.15509,10.4676890211338,157.015335317006,129.243915465019
1580423618.15908,-85.297932402533,129.7932402533,128.999771114672
1580423618.16307,-187.960631723507,94.7585259784851,126.680399786374
1580423618.16707,-273.594262607767,58.5030899519338,121.858548867018
1580423618.17106,-321.812771801327,28.4733348592354,114.656290531777
1580423618.17505,-322.850385290303,8.75867856870377,105.806057831693
1580423618.17905,-279.575799191272,-0.152590218966907,96.2233920805679
1580423618.18304,-208.041504539559,-1.73952849622333,87.1900511177237
1580423618.18703,-131.50225070573,-2.83817807278547,79.9877927824828
1580423618.19103,-70.0389105058366,-10.5287251087204,73.4569314106966
1580423618.19502,-39.5819028000305,-25.9098191805904,65.7053482871752
1580423618.19901,-44.2816815442131,-40.0091554131382,55.0850690470738
1580423618.20301,-79.0722514686809,-45.1361867704281,40.802624551766
1580423618.207,-136.507209887846,-40.4364080262455,23.5904478522925
1580423618.21099,-204.684519722286,-31.8303196765089,5.95101853971164
1580423618.21499,-262.546730754559,-25.3604943923094,-8.5755703059433
1580423618.21898,-298.98527504387,-17.1206225680933,-18.5854886701761
1580423618.22298,-318.089570458534,-5.15754940108332,-24.5670252536811
1580423618.22697,-320.653086137179,6.5003433279926,-25.6046387426566
1580423618.23096,-295.017929350729,16.5102616922254,-21.6983291371023
1580423618.23495,-223.910887312123,17.5478751812009,-20.355535210193
1580423618.23894,-115.815976195926,6.92759594110021,-30.4264896620125
1580423618.24294,-21.4541847867551,-11.505302510109,-42.8168154421303
1580423618.24693,5.03547722590974,-65.0949874113069,-35.2483405813689
1580423618.25092,-31.5251392385749,-147.24956130312,-34.5769436179141
1580423618.25492,-57.2213321126117,-175.875486381323,-60.0289921416038
1580423618.25891,9.85732814526591,-169.161516746777,-68.5130083161669
1580423618.2629,63.6301213092243,-141.75631342031,-44.4037537193867
1580423618.2669,39.2156862745096,-95.5519951171132,-20.6607156481268
1580423618.27089,-0.885023270008332,-48.4931715877012,-11.5663385976959
1580423618.27488,0.640878919661191,3.57061112382689,-13.8246738384069
1580423618.27888,47.3334859235522,63.0197604333566,-22.8580148012511
1580423618.28287,127.656977187762,111.360341802091,-35.9807736324103
1580423618.28687,232.883192187381,130.708781567102,-44.7699702449074
1580423618.29086,337.071793698024,117.647058823529,-39.5819028000305
1580423618.29485,388.952468146792,90.4249637598232,-22.1255817502097
1580423618.29885,348.363469901579,62.8976882581828,0.823987182421661
1580423618.30284,224.032959487297,47.3945220111389,26.2760357061111
1580423618.30683,82.3071641107808,51.7280842298005,49.1645685511558
1580423618.31082,-17.3037308308537,74.3724727244985,63.2639047837038
1580423618.31482,-51.9111924925612,104.15808346685,66.8039978637371
1580423618.31881,-25.1163500419623,121.43129625391,62.4093995574881
1580423618.3228,37.8118562600137,118.440527962158,51.7891203173876
1580423618.32679,94.148165102617,116.12115663386,40.3753719386586
1580423618.33079,98.2375829709317,124.971389333944,36.530098420691
1580423618.33478,42.2064545662622,121.309224078736,39.5208667124436
1580423618.33878,-33.8445105668727,103.608758678569,38.9105058365758
1580423618.34277,-92.0119020370794,91.2184328984513,27.0084687571525
1580423618.34676,-118.379491874571,89.0821698329137,7.04966811627378
1580423618.35076,-118.867780575265,87.6173037308308,-9.30800335698473
1580423618.35475,-113.252460517281,79.9267566948961,-20.050354772259
1580423618.35874,-112.581063553826,71.5037766079195,-29.9992370489051
1580423618.36274,-119.72228580148,68.0857557030595,-38.3001449607082
1580423618.36673,-134.554055085069,69.3675135423823,-40.7415884641796
1580423618.37072,-152.864881361105,73.3348592355233,-36.1028458075839
1580423618.37472,-165.68245975433,79.1943236438547,-26.337071793698
1580423618.37871,-164.217593652247,87.9224841687651,-14.5571068894483
1580423618.3827,-144.991226062409,99.1531242847336,-3.44853894865332
1580423618.3867,-111.299305714504,112.764171816586,5.95101853971164
1580423618.39072,-70.6492713817045,128.877698939498,13.7026016632333
1580423618.39471,-29.9992370489051,145.967803463798,19.9282825970854
1580423618.3987,9.24696726939806,163.241016250858,25.5436026550697
1580423618.4027,49.2256046387424,181.24666208896,31.2809948882275
1580423618.40669,89.8146028839551,199.435416189822,37.7508201724268
1580423618.41068,125.825894560159,216.769665064469,43.9765011062789
1580423618.41468,151.033798733501,232.455939574274,49.8970016021972
1580423618.41867,163.9734493019,244.29694056611,55.5733577477681
1580423618.42266,166.414892805371,251.682307164111,59.6627756160829
1580423618.42666,162.691691462577,256.076905470359,63.5080491340509
1580423618.43065,156.710154879072,257.663843747616,66.7429617761504
1580423618.43464,150.423437857633,257.724879835203,69.3675135423823
1580423618.43864,143.343251697566,256.687266346227,71.3206683451594
1580423618.44263,134.981307698176,255.283436331731,72.2362096589609
1580423618.44662,124.116884107729,254.306858930343,72.9076066224156
1580423618.45062,109.529259174487,254.489967193103,74.0672922865647
1580423618.45461,92.6832990005341,254.73411154345,75.4100862134737
1580423618.45861,75.6542305638209,254.428931105516,75.2269779507137
1580423618.4626,60.3341725795376,252.597848477913,71.4427405203328
1580423618.46659,46.784161135271,249.851224536507,63.6911573968109
1580423618.47058,33.8445105668725,244.846265354391,53.1319142442967
1580423618.47457,21.4541847867551,237.766079194324,41.2909132524603
1580423618.47857,9.85732814526591,229.831387808042,27.5577935454337
1580423618.48256,0.213626306553806,221.957732509346,7.53795681696806
1580423618.48655,-4.60822461280236,212.497138933395,-32.5627527275503
1580423618.49055,-10.4066529335469,202.243076218815,-42.1454184786755
1580423618.49454,-29.3278400854504,202.426184481575,-12.6039520866711
1580423618.49853,-48.2490272373541,193.148699168384,-7.41588464179449
1580423618.50253,-57.7096208133059,181.307698176547,-9.55214770733187
1580423618.50652,-61.0055695429924,183.016708628977,-10.2235446707866
1580423618.51052,-61.8600747692074,184.237430380712,-7.17174029144735
1580423618.51451,-60.7614251926452,178.683146410315,1.0070954451819
1580423618.5185,-56.1226825360495,168.490119783322,14.1298542763409
1580423618.5225,-46.2958724345769,158.419165331502,30.9147783627068
1580423618.52649,-31.4030670634013,150.423437857633,48.7373159380481
1580423618.53048,-14.068818188754,144.686045624475,64.6677347981995
1580423618.53448,3.63164721141379,140.291447318227,75.7763027389947
1580423618.53847,20.2944991226061,135.652704661631,81.4526588845656
1580423618.54246,35.7366292820629,128.938735027085,81.0864423590451
1580423618.54646,50.0801098649576,118.989852750439,73.8841840238042
1580423618.55048,64.6677347981995,104.890516517891,60.1510643167771
1580423618.55447,81.0864423590451,87.4952315556575,41.8402380407415
1580423618.55846,98.1155107957579,68.9402609292747,21.6983291371023
1580423618.56246,114.778362706951,52.0943007553215,2.04470893415737
1580423618.56645,129.97634851606,36.3469901579308,-15.9609369039445
1580423618.57044,143.160143434806,18.0971999694818,-32.0134279392691
1580423618.57444,151.400015259022,-4.7913328755626,-45.8075837338827
1580423618.57843,149.691004806592,-32.3796444647899,-56.9771877622645
1580423618.58242,134.981307698176,-61.921110856794,-64.8508430609597
1580423618.58642,110.444800488289,-92.3170824750132,-67.5364309147783
1580423618.59041,82.3071641107808,-120.515754940108,-64.4235904478523
1580423618.5944,53.3150225070572,-138.826581216144,-56.9161516746776
1580423618.5984,23.4073395895323,-142.854962996872,-47.5776302738996
1580423618.60239,-6.25619897764545,-136.263065537499,-38.7273975738156
1580423618.60638,-33.1120775158313,-131.441214618143,-32.074464026856
1580423618.61038,-57.9537651636531,-134.92027161059,-28.2902265964751
1580423618.61437,-80.8422980086975,-146.334019989319,-27.3746852826732
1580423618.61836,-96.711680781262,-163.179980163272,-28.1681544213016
1580423618.62236,-102.143892576486,-180.453192950332,-29.4499122606239
1580423618.62635,-100.92317082475,-192.904554818036,-31.0368505378804
1580423618.63034,-97.566186007477,-199.069199664302,-33.4172579537653
1580423618.63433,-87.9224841687646,-202.182040131227,-36.2859540703441
1580423618.63833,-68.1467917906461,-203.46379797055,-38.9715419241627
1580423618.64232,-41.2909132524605,-202.914473182269,-40.619516289006
1580423618.64631,-14.4960708018616,-200.717174029145,-41.2909132524605
1580423618.65031,8.14831769283592,-197.116044861524,-42.4505989166096
1580423618.6543,24.9942778667887,-191.134508278019,-44.5258258945603
1580423618.65829,36.5911345082779,-184.542610818647,-46.9672693980317
1580423618.66229,45.2582589456015,-179.903868162051,-49.0424963759824
1580423618.66628,55.9395742732891,-178.744182497902,-50.9956511787595
1580423618.67027,72.297245746548,-181.002517738613,-53.7422751201648
1580423618.67427,92.5612268253608,-185.519188220035,-56.8551155870909
1580423618.67826,108.918898298619,-190.890363927672,-59.9069199664302
1580423618.68226,113.984893568322,-195.407034409094,-63.3249408712902
1580423618.68625,102.876325627527,-198.764019226368,-67.1702143892576
1580423618.69024,76.2035553521023,-200.717174029145,-69.0012970168611
1580423618.69424,39.0325780117494,-201.449607080186,-67.1702143892576
1580423618.69823,0.213626306553806,-203.158617532616,-62.1042191195545
1580423618.70222,-32.1965362020296,-208.285648889906,-54.3526359960326
1580423618.70622,-55.2071412222476,-216.342412451362,-45.2582589456017
1580423618.7102,-69.1233691920347,-225.925078202487,-36.2859540703441
1580423618.7142,-74.189364461738,-237.094682230869,-29.0226596475165
1580423618.71819,-71.320668345159,-247.775997558557,-23.6514839398794
1580423618.72218,-62.6535439078355,-254.489967193103,-19.8062104219118
1580423618.72618,-50.7515068284124,-256.565194171054,-17.792019531548
1580423618.73017,-38.8494697489891,-255.527580682078,-17.1816586556802
1580423618.73417,-29.8161287861446,-253.879606317235,-17.2426947432668
1580423618.73816,-24.8111696040282,-252.597848477913,-17.486839093614
1580423618.74215,-23.5904478522925,-251.13298237583,-17.7309834439611
1580423618.74615,-24.1397726405737,-248.386358434424,-18.7075608453497
1580423618.75014,-24.0177004654001,-244.052796215763,-20.5386434729533
1580423618.75413,-20.4165712977797,-238.376440070192,-22.4307621881437
1580423618.75813,-11.0170138094147,-231.662470435645,-23.3463035019454
1580423618.76212,4.05889982452118,-224.826428625925,-23.1021591515982
1580423618.76611,22.5528343633173,-217.31898985275,-20.8438239108873
1580423618.77011,41.5350576028075,-211.520561532006,-12.8480964370183
1580423618.7741,58.747234302281,-206.210421911955,-6.98863202868688
1580423618.77809,71.3817044327461,-200.106813153277,3.69268329900046
1580423618.78209,81.3916227969789,-194.979781795987,9.4911116197452
1580423618.78608,89.6925307087818,-193.575951781491,7.11070420386045
1580423618.7901,94.5754177157246,-188.937209124895,1.37331197070262
1580423618.79409,95.7351033798736,-182.77256427863,-5.7068741893645
1580423618.79809,93.3546959639889,-180.941481651026,-13.6415655756466
1580423618.80208,87.1900511177237,-182.101167315175,-21.759365224689
1580423618.80607,77.2411688410775,-182.894636453803,-29.2057679102768
1580423618.81007,64.0573739223319,-181.368734264134,-35.7366292820632
1580423618.81406,48.3710994125277,-177.279316395819,-41.474021515221
1580423618.81805,31.6472114137482,-171.053635461967,-45.9906919966431
1580423618.82205,15.228503852903,-162.996871900511,-49.6528572518503
1580423618.82604,0.091554131380235,-153.231097886625,-52.582589456016
1580423618.83003,-14.1298542763409,-142.977035172045,-55.0240329594874
1580423618.83403,-28.4122987716487,-132.845044632639,-57.0992599374381
1580423618.83802,-43.2440680552377,-123.506523231861,-57.9537651636531
1580423618.84202,-58.3199816891738,-115.205615320058,-58.8693064774548
1580423618.84601,-74.3114366369116,-107.75921263447,-60.0289921416038
1580423618.85,-90.4859998474096,-99.8245212481881,-61.8600747692074
1580423618.854,-107.331960021363,-92.0729381246661,-62.1652552071412
1580423618.85799,-124.910353246357,-83.9551384756237,-60.0289921416038
1580423618.86198,-142.549782558938,-74.3114366369116,-55.5733577477683
1580423618.86598,-158.968490119783,-63.630121309224,-48.6762798504617
1580423618.86996,-173.311970702678,-52.3384451056688,-38.4832532234684
1580423618.87396,-185.397116044862,-39.8260471503777,-24.2618448157473
1580423618.87795,-195.345998321508,-24.4449530785075,-6.13412680247188
1580423618.88194,-202.853437094682,-4.60822461280236,14.8622873273823
1580423618.88594,-207.431143663691,19.7451743343252,36.8352788586251
1580423618.88993,-207.858396276799,50.0190737773705,55.6343938353548
1580423618.89392,-200.778210116732,86.4576180666822,67.719539177539
1580423618.89792,-179.293507286183,127.229724574655,72.846570534829
1580423618.90191,-141.390096894789,169.222552834363,74.1283283741514
1580423618.90591,-93.1715877012282,209.628442816816,78.8891432059208
1580423618.9099,-35.492484931716,246.555275806821,90.6691081101703
1580423618.91389,24.5059891660944,275.730525673304,107.515068284123
1580423618.91789,78.8891432059208,294.40756847486,126.37521934844
1580423618.92188,126.009002822919,305.943389028763,145.967803463798
1580423618.92587,169.405661097123,312.84046692607,166.109712367437
1580423618.92987,215.365835049974,317.540245670253,185.03089951934
1580423618.93386,268.345159075303,321.38551918822,200.656137941558
1580423618.93785,324.80354009308,321.568627450981,208.773937590601
1580423618.94185,373.083085374228,314.488441290914,207.186999313344
1580423618.94584,398.10788128481,295.384145876249,196.078431372549
1580423618.94986,382.970931563287,260.044251163501,176.852063782711
1580423618.95385,319.432364385443,216.220340276188,151.766231784542
1580423618.95785,213.778896772717,172.213321126116,124.971389333944
1580423618.96184,84.1992828259708,128.145265888456,100.495918211643
1580423618.96583,-40.6805523765927,85.7251850156408,82.6733806363013
1580423618.96983,-131.380178530556,39.6429388876172,70.4051270313576
1580423618.97382,-173.800259403372,-4.05889982452118,60.456244754711
1580423618.97781,-173.495078965438,-38.605325398642,52.8267338063629
1580423618.98181,-149.080643930724,-63.6911573968109,50.3852903028915
1580423618.9858,-118.19638361181,-80.5981536583504,52.4605172808419
1580423618.98979,-91.8287937743189,-92.6832990005339,56.7940794995038
1580423618.99379,-74.6166170748454,-104.036011291676,60.2121004043638
1580423618.99778,-65.8884565499352,-107.331960021363,57.5875486381319
1580423619.00178,-67.5364309147783,-102.44907301442,47.8217746242465
1580423619.00577,-85.297932402533,-94.453345540551,32.1355001144425
1580423619.00976,-126.436255436027,-71.9310292210268,11.6273746852826
1580423619.01375,-183.382925154498,-35.5535210193027,-10.8949416342411
1580423619.01775,-233.676661326009,-3.87579156176093,-32.3796444647899
1580423619.02174,-260.837720302129,16.5712977798123,-50.3852903028917
1580423619.02574,-257.114518959335,29.3888761730373,-62.8976882581826
1580423619.02972,-220.065613794156,34.1496910048065,-69.6726939803159
1580423619.03372,-147.371633478294,40.0091554131379,-70.0389105058366
1580423619.03771,-42.0843823910889,46.5400167849239,-63.3249408712902
1580423619.0417,82.6733806363013,47.089341573205,-50.5073624780653
1580423619.0457,213.839932860304,35.8587014572365,-34.0886549172199
1580423619.04969,339.024948500801,16.3881895170518,-16.3271534294652
1580423619.05368,420.019836728466,-9.55214770733187,15.777828641184
1580423619.05768,392.797741664759,-47.0283054856184,85.1758602273594
1580423619.06167,183.016708628977,-97.9934386205846,113.496604867628
1580423619.06567,-99.9465934233617,-144.686045624475,32.1965362020294
1580423619.06966,-222.384985122454,-127.046616311894,-25.4215304798961
1580423619.07365,-202.059967956054,-113.008316166934,-16.3881895170518
1580423619.07765,-186.19058518349,-83.9551384756237,5.88998245212474
1580423619.08164,-150.240329594873,-69.8558022430761,9.67421988250544
1580423619.08563,-93.7209124895094,-50.3852903028917,-10.0404364080262
1580423619.08963,-38.6663614862289,-28.3512626840618,-40.8026245517663
1580423619.09362,9.61318379491877,-13.214312962539,-71.1375600823987
1580423619.09761,57.8316929884791,2.89921416037237,-92.5001907377737
1580423619.10161,103.852903028916,7.47692072938116,-98.4817273212789
1580423619.1056,131.258106355383,-3.99786373693451,-90.5470359349965
1580423619.10959,121.43129625391,-10.2845807583733,-74.3724727244983
1580423619.11358,77.7294575417718,-6.68345159075307,-52.7046616311895
1580423619.11757,17.8530556191347,4.91340505073617,-29.2057679102768
1580423619.12157,-32.6848249027239,37.3235675593194,-9.97940032043948
1580423619.12556,-37.9339284351875,76.3866636148623,5.52376592660403
1580423619.12956,4.11993591210808,111.299305714504,15.5947203784237
1580423619.13355,71.8089570458537,138.643472953383,19.3179217212175
1580423619.13754,149.568932631418,144.441901274128,20.7217517357137
1580423619.14154,179.72075989929,130.342565041581,30.9758144502937
1580423619.14553,141.634241245136,118.257419699397,55.5123216601814
1580423619.14952,85.0537880521861,107.881284809644,74.7386892500194
1580423619.15352,59.2965590905619,104.463263904784,69.428549629969
1580423619.15751,64.9118791485466,119.295033188373,45.929655909056
1580423619.1615,88.2276646066989,137.605859464408,21.210040436408
1580423619.1655,115.266651407645,135.591668574044,3.63164721141379
1580423619.16949,126.924544136721,117.83016708629,-7.17174029144735
1580423619.17348,114.106965743496,102.937361715114,-14.6791790646218
1580423619.17748,80.842298008698,96.3454642557413,-21.8204013122759
1580423619.18147,36.3469901579308,94.6364538033113,-29.1447318226901
1580423619.18546,-9.18593118181116,95.857175555047,-36.2859540703441
1580423619.18948,-45.6855115587091,99.6414129854279,-41.1078049897003
1580423619.19348,-67.902647440299,104.951552605478,-41.8402380407417
1580423619.19747,-77.9736018921187,110.078583962768,-38.7884336614025
1580423619.20146,-80.7812619211109,113.618677042802,-32.623788815137
1580423619.20546,-78.7670710307468,116.914625772488,-24.8722056916151
1580423619.20945,-72.480354009308,123.689631494621,-16.3271534294652
1580423619.21344,-62.7145799954224,135.469596398871,-7.53795681696806
1580423619.21744,-50.3242542153048,150.118257419699,1.49538414587619
1580423619.22143,-35.492484931716,165.011062790875,10.2845807583733
1580423619.22543,-18.8296330205233,178.805218585489,18.341344319829
1580423619.22942,-2.34988937209118,190.646219577325,25.2994583047225
1580423619.23341,10.7118333714809,200.717174029145,30.9147783627068
1580423619.2374,18.1582360570687,208.40772106508,34.9431601434346
1580423619.2414,20.1724269474325,213.656824597544,37.7508201724268
1580423619.24539,20.2334630350194,216.769665064469,40.3143358510717
1580423619.24939,21.3321126115816,218.783855954834,43.3051041428243
1580423619.25338,22.919050888838,220.798046845197,46.9672693980315
1580423619.25737,22.2476539253832,222.568093385214,51.2397955291062
1580423619.26137,16.937514305333,223.97192339971,56.3057907988095
1580423619.26536,6.86655985351331,225.253681239033,61.3717860685128
1580423619.26935,-5.88998245212474,226.657511253529,65.3391317616542
1580423619.27334,-18.7075608453497,228.061341268025,67.5974670023652
1580423619.27733,-29.6330205233844,228.305485618372,67.5974670023652
1580423619.28133,-37.5677119096667,227.20683604181,64.7898069733733
1580423619.28532,-43.6102845807584,225.436789501793,59.1134508278019
1580423619.28931,-47.3945220111391,222.812237735561,49.3476768139162
1580423619.29331,-47.6997024490731,220.004577706569,33.1120775158311
1580423619.2973,-45.8686198214696,215.854123750668,21.3321126115816
1580423619.3013,-49.5307850766767,217.013809414816,40.7415884641794
1580423619.30529,-55.146105134661,215.671015487907,52.0943007553215
1580423619.30928,-54.6578164339667,212.741283283742,52.3994811932553
1580423619.31328,-48.0659189745938,215.304798962386,50.8735790035857
1580423619.31727,-39.0936140993363,217.746242465858,49.1645685511558
1580423619.32126,-30.3654535744258,215.854123750668,47.6997024490729
1580423619.32526,-22.1866178377966,211.703669794766,46.8451972228579
1580423619.32925,-14.373998626688,207.675288014038,46.784161135271
1580423619.33324,-6.19516289005878,203.46379797055,47.0283054856181
1580423619.33724,2.96025024795904,198.275730525674,47.8828107118331
1580423619.34123,13.8246738384069,192.111085679408,49.3476768139162
1580423619.34522,25.9708552681773,184.542610818646,51.1787594415196
1580423619.34924,37.8728923476003,174.654764629587,52.8267338063629
1580423619.35324,47.94384679942,161.837186236362,53.1929503318834
1580423619.35723,56.0616464484624,146.700236514839,51.4229037918667
1580423619.36122,63.2028686961166,131.136034180209,47.5165941863124
1580423619.36522,70.5271992065309,117.586022735943,41.4129854276339
1580423619.36921,78.7060349431604,107.148851758602,32.6848249027237
1580423619.3732,86.7627985046161,98.2986190585184,21.3931486991683
1580423619.3772,93.5378042267494,88.5328450446327,7.53795681696806
1580423619.38119,99.0310521095598,75.1049057755399,-7.84313725490188
1580423619.38518,103.608758678569,56.3668268863962,-23.468375677119
1580423619.38918,106.111238269627,32.0744640268558,-37.750820172427
1580423619.39317,103.547722590982,3.26543068589308,-49.7749294270238
1580423619.39716,93.0495155260551,-28.8395513847561,-58.8082703898681
1580423619.40116,73.5790035858704,-61.4328221560997,-64.4235904478523
1580423619.40515,46.9672693980315,-92.5001907377737,-66.6208896009766
1580423619.40914,16.8154421301595,-119.356069275959,-66.7429617761502
1580423619.41314,-12.0546272983902,-139.436942092012,-65.6443121995881
1580423619.41713,-35.0041962310218,-152.498664835584,-64.1184100099183
1580423619.42113,-49.0424963759824,-161.715114061189,-61.8600747692074
1580423619.42512,-55.4512855725948,-167.879758907454,-59.4186312657359
1580423619.42911,-58.2589456015869,-170.687418936446,-57.1602960250248
1580423619.4331,-59.1134508278019,-169.649805447471,-55.9395742732891
1580423619.43709,-57.1602960250248,-168.490119783322,-56.1837186236362
1580423619.44109,-50.4463263904784,-171.236743724727,-57.7096208133059
1580423619.44508,-35.6145571068896,-177.950713359274,-60.0900282291905
1580423619.44907,-11.9325551232166,-185.763332570382,-62.5925078202488
1580423619.45307,19.0737773708704,-193.636987869078,-64.3015182726788
1580423619.45706,53.9253833829248,-201.632715342947,-65.339131761654
1580423619.46106,87.312123292897,-209.140154116121,-65.8884565499352
1580423619.46505,115.205615320058,-214.572365911345,-66.2546730754559
1580423619.46904,137.422751201648,-218.234531166552,-66.3767452506295
1580423619.47304,153.71938658732,-219.638361181048,-65.5222400244145
1580423619.47703,160.55542839704,-219.516289005875,-64.1794460975052
1580423619.48102,154.024567025253,-219.211108567941,-63.9963378347447
1580423619.48502,134.859235523003,-216.830701152056,-66.3767452506295
1580423619.48901,105.745021744106,-209.567406729229,-69.062333104448
1580423619.493,66.4377813382166,-202.059967956054,-66.9871061264973
1580423619.497,17.4258030060273,-201.083390554665,-57.8927290760662
1580423619.50099,-32.6848249027239,-205.233844510567,-43.6713206683453
1580423619.50498,-72.6024261844816,-211.581597619592,-30.3654535744258
1580423619.50897,-97.6272220950639,-218.234531166552,-21.3321126115816
1580423619.51296,-112.214847028305,-224.15503166247,-15.6557564660104
1580423619.51696,-121.309224078737,-230.563820859083,-12.1766994735638
1580423619.52095,-128.511482413977,-239.047837033646,-9.85732814526591
1580423619.52495,-135.774776836805,-247.592889295796,-8.51453421835663
1580423619.52894,-141.268024719615,-252.658884565499,-9.67421988250544
1580423619.53293,-142.366674296178,-252.658884565499,-13.3363851377126
1580423619.53693,-136.324101625086,-247.837033646143,-19.9282825970854
1580423619.54092,-122.224765392538,-240.634775310903,-27.3136491950866
1580423619.54491,-102.082856488899,-233.066300450141,-33.5393301289389
1580423619.54891,-80.170901045243,-226.840619516289,-37.3846036469063
1580423619.5529,-59.9069199664302,-222.812237735561,-39.0325780117496
1580423619.55689,-41.2909132524605,-221.103227283131,-40.2532997634853
1580423619.56089,-22.9800869764247,-222.018768596933,-41.8402380407417
1580423619.56488,-3.57061112382689,-225.070572976272,-43.4882124055848
1580423619.56887,16.2050812542916,-228.73273823148,-44.586861982147
1580423619.57287,34.7600518806744,-231.235217822538,-44.1596093690396
1580423619.57686,50.8125429159991,-231.723506523232,-41.5960936903946
1580423619.58085,63.6911573968109,-230.014496070802,-36.8352788586253
1580423619.58485,73.3958953231099,-226.840619516289,-30.2433813992523
1580423619.58887,80.7202258335242,-221.957732509346,-22.7969787136644
1580423619.59286,86.6407263294423,-217.31898985275,-13.8857099259938
1580423619.59685,91.0353246356908,-214.633401998932,-7.23277637903402
1580423619.60085,92.9274433508813,-211.459525444419,-3.20439459830618
1580423619.60484,92.0729381246665,-208.346684977493,-2.04470893415737
1580423619.60883,88.8380254825665,-205.416952773327,-5.21858548867021
1580423619.61283,83.1616693369956,-201.022354467079,-10.7118333714809
1580423619.61682,75.1659418631266,-194.308384832532,-17.2426947432668
1580423619.62082,65.1560234988938,-187.411306935225,-23.7125200274661
1580423619.62481,52.8877698939496,-181.979095140002,-29.8161287861446
1580423619.6288,38.1170366979475,-177.157244220645,-34.8210879682613
1580423619.63279,20.5996795605402,-172.51850156405,-38.6663614862289
1580423619.63679,0.51880674448762,-167.818722819867,-41.7792019531548
1580423619.64078,-20.9658960860609,-162.935835812925,-44.037537193866
1580423619.64478,-43.183031967651,-158.052948805982,-45.9296559090562
1580423619.64877,-65.5832761120012,-153.047989623865,-47.3945220111391
1580423619.65276,-87.4952315556573,-147.737850003815,-48.4321355001146
1580423619.65676,-107.75921263447,-141.451132982376,-49.0424963759824
1580423619.66075,-126.009002822919,-134.187838559548,-49.164568551156
1580423619.66474,-141.878385595483,-126.070038910506,-48.7983520256353
1580423619.66873,-155.672541390097,-116.914625772488,-47.6997024490731
1580423619.67272,-167.025253681239,-106.721599145495,-46.4179446097505
1580423619.67672,-175.75341420615,-95.2468146791791,-45.0751506828412
1580423619.68071,-181.612878614481,-82.3682001983673,-43.4271763179981
1580423619.68471,-184.969863431754,-67.8416113527123,-41.168841077287
1580423619.6887,-186.739909971771,-51.8501564049745,-38.1170366979477
1580423619.69269,-186.007476920729,-34.6990157930877,-34.3938353551539
1580423619.69669,-182.406347753109,-17.2426947432668,-29.1447318226901
1580423619.70068,-175.387197680629,-0.335698481727377,-22.3697261005568
1580423619.70467,-164.644846265355,15.5947203784237,-13.3363851377126
1580423619.70867,-150.179293507286,31.1589227130539,-2.10574502174404
1580423619.71266,-131.441214618143,48.4321355001143,11.0780498970016
1580423619.71665,-109.163042648966,68.7571526665142,25.4215304798961
1580423619.72065,-85.3589684901197,93.7209124895094,38.5442893110551
1580423619.72464,-61.0055695429924,119.661249713894,47.7607385366596
1580423619.72863,-32.7458609903106,141.329060807202,52.7046616311891
1580423619.73263,0.274662394140478,157.015335317006,55.9395742732891
1580423619.73662,38.3611810482946,169.64980544747,62.5314717326623
1580423619.74061,84.0772106507975,182.894636453803,75.1659418631266
1580423619.74461,135.10337987335,198.092622262913,92.2560463874265
1580423619.74863,183.443961242084,212.0088502327,109.773403524834
1580423619.75262,224.704356450752,223.666742961776,125.520714122225
1580423619.75661,260.227359426261,232.578011749447,139.070725566491
1580423619.76061,296.665903715572,238.071259632258,150.179293507286
1580423619.7646,336.76661326009,241.611352712291,158.297093156329
1580423619.76859,376.195925841153,243.503471427482,161.837186236362
1580423619.77259,403.662165255207,242.77103837644,160.616464484626
1580423619.77658,404.760814831769,236.179140917067,155.42839703975
1580423619.78057,368.322270542458,220.431830319676,148.226138704509
1580423619.78457,290.745403219653,191.622796978714,140.901808194095
1580423619.78856,180.148012512398,147.188525215533,133.699549858854
1580423619.79255,54.8409246967267,91.5236133363851,126.436255436026
1580423619.79655,-59.9679560540169,27.3746852826732,118.928816662852
1580423619.80054,-142.061493858244,-37.6897840848403,110.872053101396
1580423619.80453,-178.439002059968,-92.6832990005339,102.388036926833
1580423619.80853,-173.250934615091,-128.206301976043,95.0637064164189
1580423619.81252,-146.150911726558,-145.17433432517,88.5938811322194
1580423619.81652,-119.90539406424,-150.179293507286,81.6968032349127
1580423619.82051,-106.355382619974,-142.183566033417,72.6634622720685
1580423619.8245,-108.735790035859,-117.036697947662,60.8834973678186
1580423619.82849,-127.656977187762,-79.865720607309,46.9672693980315
1580423619.83248,-163.851377126726,-33.9665827420463,31.7692835889218
1580423619.83648,-211.520561532006,15.1064316777295,17.4258030060273
1580423619.84047,-254.306858930343,57.5265125505452,5.58480201419093
1580423619.84447,-276.462958724346,84.6875715266651,-2.22781719691761
1580423619.84846,-262.851911192492,90.9742885481041,-7.04966811627378
1580423619.85245,-203.341725795377,82.3682001983675,-10.7118333714809
1580423619.85644,-105.806057831693,69.0012970168614,-14.2519264515145
1580423619.86044,10.650797283894,52.7656977187762,-17.1206225680933
1580423619.86443,125.764858472572,32.2575722896161,-19.5620660715647
1580423619.86843,218.112458991379,3.81475547417404,-22.1866178377966
1580423619.87242,266.941329060807,-35.187304493782,-22.5528343633173
1580423619.87641,264.438849469749,-74.9217975127794,-8.39246204318306
1580423619.88041,178.805218585489,-96.162355992981,27.5577935454337
1580423619.8844,-46.9062333104448,-121.004043640803,16.3881895170518
1580423619.88839,-252.170595864805,-138.826581216144,-42.6947432669567
1580423619.89239,-293.430991073472,-104.34119172961,-47.5165941863127
1580423619.89638,-269.748989089799,-69.1233691920347,-19.5620660715647
1580423619.90037,-211.154345006485,-31.769283588922,-5.95101853971164
1580423619.90437,-120.881971465629,-18.5244525825894,-9.18593118181116
1580423619.90835,-15.1674677653161,-11.2611581597619,-25.9708552681773
1580423619.91235,84.6875715266651,-1.0070954451819,-48.1879911497674
1580423619.91634,160.128175783932,3.93682764934761,-67.7195391775388
1580423619.92034,192.660410467689,-0.640878919661191,-80.2929732204166
1580423619.92433,163.546196688792,-9.67421988250544,-84.2603189135575
1580423619.92832,91.5846494239722,-13.6415655756466,-79.4995040817882
1580423619.93232,12.1766994735638,-7.7821011673152,-69.1233691920347
1580423619.93631,-45.3803311207753,5.52376592660403,-56.3057907988098
1580423619.9403,-62.4093995574883,22.4917982757304,-42.877851529717
1580423619.9443,-37.201495384146,46.0517280842296,-27.2526131074997
1580423619.94829,10.8339055466545,75.1659418631266,-9.55214770733187
1580423619.95228,49.4087129015029,96.8337529564355,6.80552376592664
1580423619.95628,61.5548943312733,101.411459525445,21.0269321736475
1580423619.96027,58.2589456015867,94.2702372777908,33.0510414282444
1580423619.96426,54.77988860914,88.0445563439384,40.6195162890058
1580423619.96826,57.7096208133057,88.8990615701537,41.1078049897001
1580423619.97225,64.4846265354395,91.889829861906,35.3093766689553
1580423619.97624,66.3767452506295,90.2418554970627,27.0084687571525
1580423619.98024,59.0524147402148,87.5562676432442,18.0971999694818
1580423619.98423,47.3945220111389,90.3639276722365,10.2845807583733
1580423619.98825,40.0701915007246,97.2610055695432,4.97444113832307
1580423619.99224,41.5960936903944,102.693217364767,2.22781719691761
1580423619.99624,51.7280842298005,105.86709391928,0.335698481727377
1580423620.00023,64.7898069733733,109.28511482414,-3.02128633554594
1580423620.00422,71.4427405203328,112.825207904174,-9.00282291905091
1580423620.00822,64.2404821850923,113.313496604868,-17.1206225680933
1580423620.01221,42.4505989166094,109.163042648966,-25.6046387426566
1580423620.0162,13.3974212252995,103.303578240635,-33.7224383916991
1580423620.0202,-12.0546272983902,99.8245212481879,-40.5584802014191
1580423620.02419,-26.7643244068054,101.655603875792,-44.4647898069734
1580423620.02818,-32.6848249027239,106.965743495842,-43.183031967651
1580423620.03218,-36.6521705958648,112.703135729,-36.9573510337989
1580423620.03617,-42.9999237048905,118.135347524224,-27.4357213702601
1580423620.04017,-51.4229037918669,124.299992370489,-16.937514305333
1580423620.04416,-58.8082703898681,131.136034180209,-6.31723506523235
1580423620.04815,-61.4938582436866,138.216220340276,4.11993591210808
1580423620.05215,-58.0148012512398,145.235370412756,14.1298542763409
1580423620.05614,-49.7749294270238,152.803845273518,24.7501335164416
1580423620.06013,-39.765011062791,160.372320134279,35.7976653696496
1580423620.06413,-29.6940566109711,166.598001068131,47.089341573205
1580423620.06815,-20.4776073853666,172.213321126116,58.5030899519338
1580423620.07214,-13.0312046997788,177.157244220645,69.6726939803161
