Timestamp_seconds,Gyro_X_s,Gyro_Y_s,Gyro_Z_s
1580423613.18016,1.0681315327688,0.274662394140478,1.9226367589838
1580423613.18416,0.640878919661191,0.51880674448762,1.98367284657047
1580423613.18817,1.0681315327688,0.274662394140478,1.98367284657047
1580423613.19217,1.19020370794237,0.274662394140478,2.10574502174404
1580423613.19617,0.946059357595232,0.213626306553806,1.98367284657047
1580423613.20017,0.762951094834762,0.0305180437933359,1.98367284657047
1580423613.20417,1.0681315327688,0.091554131380235,2.04470893415737
1580423613.20816,1.43434805828952,0.213626306553806,2.04470893415737
1580423613.21216,1.49538414587619,0.396734569314049,2.10574502174404
1580423613.21616,1.31227588311594,0.213626306553806,2.16678110933094
1580423613.22016,0.885023270008332,0.091554131380235,2.22781719691761
1580423613.22416,1.0070954451819,-0.0305180437933359,2.34988937209118
1580423613.22816,1.0681315327688,0.152590218966907,2.22781719691761
1580423613.23216,1.25123979552905,0.152590218966907,2.22781719691761
1580423613.23616,1.73952849622333,0.0305180437933359,2.16678110933094
1580423613.24015,1.8616006713969,0.091554131380235,2.22781719691761
1580423613.24415,1.80056458381023,0.091554131380235,2.28885328450451
1580423613.24815,1.73952849622333,0.0305180437933359,2.16678110933094
1580423613.25215,1.61745632104976,0.0305180437933359,2.22781719691761
1580423613.25615,1.61745632104976,0.152590218966907,2.28885328450451
1580423613.26015,1.55642023346309,0.091554131380235,2.16678110933094
1580423613.26415,1.49538414587619,0.152590218966907,2.16678110933094
1580423613.26813,1.49538414587619,-0.091554131380235,2.16678110933094
1580423613.27213,1.55642023346309,-0.0305180437933359,2.16678110933094
1580423613.27612,1.67849240863666,0.091554131380235,2.04470893415737
1580423613.28012,1.80056458381023,0.0305180437933359,1.8616006713969
1580423613.28412,1.67849240863666,0.274662394140478,1.80056458381023
1580423613.28812,1.37331197070262,0.396734569314049,1.73952849622333
1580423613.29212,1.67849240863666,0.274662394140478,1.61745632104976
1580423613.29612,1.49538414587619,0.152590218966907,1.55642023346309
1580423613.30012,1.0070954451819,0.0305180437933359,1.61745632104976
1580423613.30412,0.640878919661191,0.0305180437933359,1.37331197070262
1580423613.30812,0.274662394140478,0.213626306553806,1.37331197070262
1580423613.31211,0.396734569314049,0.213626306553806,1.25123979552905
1580423613.31611,0.457770656900948,0.152590218966907,1.19020370794237
1580423613.32011,0.091554131380235,0.0305180437933359,1.25123979552905
1580423613.32411,-0.0305180437933359,-0.0305180437933359,1.12916762035547
1580423613.32811,0.091554131380235,-0.0305180437933359,1.12916762035547
1580423613.33211,-0.0305180437933359,0.091554131380235,1.0681315327688
1580423613.33611,-0.152590218966907,0.213626306553806,0.885023270008332
1580423613.3401,0.091554131380235,0.213626306553806,1.0681315327688
1580423613.3441,0.396734569314049,0.091554131380235,1.12916762035547
1580423613.34811,0.51880674448762,-0.091554131380235,1.0681315327688
1580423613.35211,0.335698481727377,0.0305180437933359,1.19020370794237
1580423613.35611,0.335698481727377,0.0305180437933359,1.25123979552905
1580423613.36011,0.70191500724809,0.0305180437933359,1.25123979552905
1580423613.36411,0.70191500724809,0.0305180437933359,1.31227588311594
1580423613.36811,0.885023270008332,0.091554131380235,1.37331197070262
1580423613.37211,0.885023270008332,-0.091554131380235,1.37331197070262
1580423613.3761,0.885023270008332,-0.152590218966907,1.55642023346309
1580423613.3801,1.12916762035547,-0.152590218966907,1.49538414587619
1580423613.3841,1.55642023346309,-0.213626306553806,1.61745632104976
1580423613.3881,1.55642023346309,0.0305180437933359,1.49538414587619
1580423613.3921,1.61745632104976,-0.213626306553806,1.49538414587619
1580423613.3961,1.67849240863666,-0.274662394140478,1.61745632104976
1580423613.4001,1.31227588311594,-0.213626306553806,1.61745632104976
1580423613.4041,1.0681315327688,-0.396734569314049,1.55642023346309
1580423613.40809,0.823987182421661,-0.274662394140478,1.43434805828952
1580423613.41209,0.823987182421661,-0.274662394140478,1.43434805828952
1580423613.41609,1.0681315327688,-0.335698481727377,1.55642023346309
1580423613.42009,0.885023270008332,-0.091554131380235,1.55642023346309
1580423613.42409,0.70191500724809,-0.274662394140478,1.55642023346309
1580423613.42807,0.823987182421661,-0.457770656900948,1.43434805828952
1580423613.43207,0.762951094834762,-0.335698481727377,1.37331197070262
1580423613.43607,0.640878919661191,-0.335698481727377,1.31227588311594
1580423613.44007,0.823987182421661,-0.457770656900948,1.37331197070262
1580423613.44406,0.762951094834762,-0.51880674448762,1.31227588311594
1580423613.44806,0.640878919661191,-0.396734569314049,1.37331197070262
1580423613.45206,0.640878919661191,-0.396734569314049,1.31227588311594
1580423613.45606,0.640878919661191,-0.335698481727377,1.19020370794237
1580423613.46006,0.579842832074519,-0.396734569314049,1.25123979552905
1580423613.46406,0.823987182421661,-0.457770656900948,1.19020370794237
1580423613.46806,0.946059357595232,-0.51880674448762,1.12916762035547
1580423613.47206,0.946059357595232,-0.70191500724809,1.0681315327688
1580423613.47605,1.12916762035547,-0.579842832074519,0.885023270008332
1580423613.48005,1.0681315327688,-0.396734569314049,0.70191500724809
1580423613.48405,1.19020370794237,-0.396734569314049,0.946059357595232
1580423613.48805,1.0070954451819,-0.457770656900948,0.885023270008332
1580423613.49205,0.51880674448762,-0.457770656900948,0.823987182421661
1580423613.49605,0.213626306553806,-0.640878919661191,0.885023270008332
1580423613.50005,0.457770656900948,-0.823987182421661,0.762951094834762
1580423613.50405,0.70191500724809,-0.70191500724809,0.70191500724809
1580423613.50806,1.0070954451819,-0.823987182421661,0.70191500724809
1580423613.51205,1.0681315327688,-0.762951094834762,0.70191500724809
1580423613.51605,1.0070954451819,-0.70191500724809,0.762951094834762
1580423613.52005,0.823987182421661,-0.885023270008332,0.579842832074519
1580423613.52405,0.51880674448762,-0.823987182421661,0.51880674448762
1580423613.52805,0.335698481727377,-0.762951094834762,0.396734569314049
1580423613.53205,0.823987182421661,-0.823987182421661,0.396734569314049
1580423613.53605,0.885023270008332,-0.457770656900948,0.396734569314049
1580423613.54005,0.640878919661191,-0.335698481727377,0.335698481727377
1580423613.54404,0.70191500724809,-0.640878919661191,0.335698481727377
1580423613.54804,0.51880674448762,-0.640878919661191,0.335698481727377
1580423613.55204,0.335698481727377,-0.823987182421661,0.335698481727377
1580423613.55604,-0.152590218966907,-0.762951094834762,0.335698481727377
1580423613.56004,-0.51880674448762,-0.579842832074519,0.152590218966907
1580423613.56404,-0.274662394140478,-0.579842832074519,0.091554131380235
1580423613.56804,-0.51880674448762,-0.51880674448762,0.091554131380235
1580423613.57204,-0.946059357595232,-0.457770656900948,0.0305180437933359
1580423613.57604,-1.0681315327688,-0.640878919661191,-0.091554131380235
1580423613.58003,-0.946059357595232,-0.823987182421661,-0.091554131380235
1580423613.58403,-0.762951094834762,-0.762951094834762,-0.091554131380235
1580423613.58801,-0.640878919661191,-0.70191500724809,-0.213626306553806
1580423613.59201,-0.51880674448762,-0.762951094834762,-0.091554131380235
1580423613.59601,-0.152590218966907,-0.762951094834762,0.152590218966907
1580423613.60001,0.51880674448762,-0.885023270008332,0.213626306553806
1580423613.60401,0.457770656900948,-0.946059357595232,0.274662394140478
1580423613.60801,0.213626306553806,-1.0681315327688,0.274662394140478
1580423613.612,-0.152590218966907,-0.823987182421661,0.213626306553806
1580423613.616,-0.335698481727377,-1.0681315327688,0.335698481727377
1580423613.62,-0.152590218966907,-1.0681315327688,0.457770656900948
1580423613.624,-0.579842832074519,-1.0681315327688,0.51880674448762
1580423613.628,-0.457770656900948,-1.0070954451819,0.51880674448762
1580423613.632,-0.213626306553806,-0.823987182421661,0.579842832074519
1580423613.636,-0.0305180437933359,-0.762951094834762,0.640878919661191
1580423613.64,0.091554131380235,-0.885023270008332,0.70191500724809
1580423613.644,0.274662394140478,-1.0681315327688,0.762951094834762
1580423613.64799,0.152590218966907,-1.0681315327688,0.762951094834762
1580423613.65199,0.274662394140478,-1.0070954451819,1.0070954451819
1580423613.65599,0.213626306553806,-0.885023270008332,0.946059357595232
1580423613.65999,0.274662394140478,-0.946059357595232,1.0070954451819
1580423613.66399,0.335698481727377,-0.946059357595232,1.0681315327688
1580423613.668,0.335698481727377,-0.946059357595232,1.12916762035547
1580423613.672,0.152590218966907,-1.0681315327688,1.37331197070262
1580423613.676,0.091554131380235,-1.0681315327688,1.31227588311594
1580423613.67999,0.274662394140478,-1.0681315327688,1.25123979552905
1580423613.68399,0.70191500724809,-0.885023270008332,1.19020370794237
1580423613.68799,1.19020370794237,-0.823987182421661,1.49538414587619
1580423613.69199,1.12916762035547,-0.762951094834762,1.49538414587619
1580423613.69599,1.19020370794237,-1.0681315327688,1.55642023346309
1580423613.69999,1.31227588311594,-1.12916762035547,1.61745632104976
1580423613.70399,1.19020370794237,-1.12916762035547,1.61745632104976
1580423613.70799,0.762951094834762,-1.0070954451819,1.61745632104976
1580423613.71198,0.823987182421661,-0.946059357595232,1.55642023346309
1580423613.71598,1.0681315327688,-0.885023270008332,1.61745632104976
1580423613.71998,1.43434805828952,-0.823987182421661,1.80056458381023
1580423613.72398,1.98367284657047,-1.12916762035547,1.9226367589838
1580423613.72798,2.16678110933094,-1.25123979552905,2.04470893415737
1580423613.73198,2.83817807278547,-1.37331197070262,2.04470893415737
1580423613.73598,3.75371938658736,-1.25123979552905,2.10574502174404
1580423613.73998,4.48615243762879,-1.12916762035547,2.22781719691761
1580423613.74397,4.60822461280236,-1.25123979552905,2.47196154726475
1580423613.74795,4.24200808728165,-1.0681315327688,2.7771419851988
1580423613.75195,3.44853894865332,-1.0681315327688,2.59403372243833
1580423613.75595,3.50957503624022,-1.25123979552905,2.34988937209118
1580423613.75995,3.75371938658736,-1.19020370794237,2.41092545967808
1580423613.76395,4.36408026245522,-1.0681315327688,2.41092545967808
1580423613.76795,4.97444113832307,-1.0681315327688,2.47196154726475
1580423613.77195,5.15754940108332,-1.25123979552905,2.7161058976119
1580423613.77595,4.48615243762879,-1.49538414587619,2.65506981002522
1580423613.77994,3.32646677347975,-1.37331197070262,2.47196154726475
1580423613.78394,2.65506981002522,-1.0681315327688,2.28885328450451
1580423613.78794,3.26543068589308,-1.0681315327688,2.10574502174404
1580423613.79194,3.87579156176093,-1.19020370794237,1.98367284657047
1580423613.79594,3.69268329900046,-1.12916762035547,1.98367284657047
1580423613.79994,3.38750286106665,-1.31227588311594,2.10574502174404
1580423613.80394,2.96025024795904,-1.31227588311594,2.16678110933094
1580423613.80794,2.7161058976119,-1.31227588311594,2.04470893415737
1580423613.81193,2.59403372243833,-0.946059357595232,1.98367284657047
1580423613.81593,2.16678110933094,-0.823987182421661,1.98367284657047
1580423613.81993,1.55642023346309,-0.70191500724809,2.04470893415737
1580423613.82393,1.73952849622333,-0.762951094834762,2.04470893415737
1580423613.82794,2.16678110933094,-0.762951094834762,2.16678110933094
1580423613.83194,2.53299763485165,-0.70191500724809,2.10574502174404
1580423613.83594,3.02128633554594,-0.946059357595232,2.34988937209118
1580423613.83994,2.89921416037237,-0.885023270008332,2.28885328450451
1580423613.84394,2.53299763485165,-0.885023270008332,2.41092545967808
1580423613.84793,1.9226367589838,-0.762951094834762,2.16678110933094
1580423613.85193,1.80056458381023,-0.762951094834762,1.80056458381023
1580423613.85593,1.9226367589838,-0.70191500724809,1.8616006713969
1580423613.85993,2.28885328450451,-0.640878919661191,1.8616006713969
1580423613.86393,2.34988937209118,-0.640878919661191,1.98367284657047
1580423613.86793,2.41092545967808,-0.640878919661191,2.10574502174404
1580423613.87193,2.22781719691761,-0.70191500724809,2.16678110933094
1580423613.87593,2.16678110933094,-0.70191500724809,2.16678110933094
1580423613.87993,1.98367284657047,-0.70191500724809,2.16678110933094
1580423613.88392,1.67849240863666,-0.70191500724809,2.10574502174404
1580423613.88792,1.67849240863666,-0.579842832074519,1.9226367589838
1580423613.89192,1.9226367589838,-0.579842832074519,1.80056458381023
1580423613.89592,2.04470893415737,-0.70191500724809,1.80056458381023
1580423613.89992,2.22781719691761,-0.885023270008332,1.8616006713969
1580423613.90392,1.98367284657047,-0.823987182421661,1.73952849622333
1580423613.9079,1.98367284657047,-0.762951094834762,1.8616006713969
1580423613.9119,1.55642023346309,-0.51880674448762,1.73952849622333
1580423613.91589,1.80056458381023,-0.51880674448762,1.67849240863666
1580423613.91989,1.9226367589838,-0.579842832074519,1.67849240863666
1580423613.92389,1.98367284657047,-0.640878919661191,1.55642023346309
1580423613.92789,2.34988937209118,-0.579842832074519,1.49538414587619
1580423613.93189,2.53299763485165,-0.51880674448762,1.37331197070262
1580423613.93589,2.89921416037237,-0.51880674448762,1.37331197070262
1580423613.93989,2.89921416037237,-0.457770656900948,1.31227588311594
1580423613.94389,2.41092545967808,-0.335698481727377,1.12916762035547
1580423613.94789,1.8616006713969,-0.51880674448762,1.12916762035547
1580423613.95188,1.43434805828952,-0.579842832074519,0.946059357595232
1580423613.95588,0.823987182421661,-0.51880674448762,0.762951094834762
1580423613.95988,0.70191500724809,-0.457770656900948,0.457770656900948
1580423613.96388,0.823987182421661,-0.579842832074519,0.457770656900948
1580423613.96788,0.885023270008332,-0.579842832074519,0.396734569314049
1580423613.97188,0.640878919661191,-0.579842832074519,0.213626306553806
1580423613.97588,0.335698481727377,-0.457770656900948,0.0305180437933359
1580423613.97987,0.0305180437933359,-0.51880674448762,-0.091554131380235
1580423613.98387,0.091554131380235,-0.640878919661191,-0.091554131380235
1580423613.98788,0.274662394140478,-0.396734569314049,-0.091554131380235
1580423613.99188,0.396734569314049,-0.213626306553806,-0.213626306553806
1580423613.99588,0.396734569314049,-0.335698481727377,-0.091554131380235
1580423613.99988,0.396734569314049,-0.396734569314049,0.0305180437933359
1580423614.00388,0.51880674448762,-0.396734569314049,0.091554131380235
1580423614.00788,0.823987182421661,-0.457770656900948,-0.0305180437933359
1580423614.01188,0.762951094834762,-0.579842832074519,0.091554131380235
1580423614.01587,0.946059357595232,-0.70191500724809,-0.152590218966907
1580423614.01987,1.0681315327688,-0.823987182421661,-0.152590218966907
1580423614.02387,1.25123979552905,-0.70191500724809,-0.091554131380235
1580423614.02787,1.25123979552905,-0.762951094834762,-0.152590218966907
1580423614.03187,1.61745632104976,-0.762951094834762,-0.152590218966907
1580423614.03587,2.22781719691761,-0.70191500724809,-0.091554131380235
1580423614.03987,2.83817807278547,-0.823987182421661,-0.0305180437933359
1580423614.04387,3.32646677347975,-0.823987182421661,0.213626306553806
1580423614.04786,3.20439459830618,-0.885023270008332,0.457770656900948
1580423614.05186,3.32646677347975,-0.823987182421661,0.579842832074519
1580423614.05586,3.75371938658736,-0.885023270008332,0.579842832074519
1580423614.05986,4.30304417486832,-0.885023270008332,0.51880674448762
1580423614.06386,4.54718852521546,-1.0070954451819,0.457770656900948
1580423614.06787,4.8523689631495,-1.19020370794237,0.640878919661191
1580423614.07187,4.97444113832307,-1.31227588311594,0.885023270008332
1580423614.07587,4.97444113832307,-1.0681315327688,1.12916762035547
1580423614.07987,4.91340505073617,-1.0070954451819,1.31227588311594
1580423614.08387,4.8523689631495,-0.823987182421661,1.31227588311594
1580423614.08786,5.15754940108332,-0.946059357595232,1.43434805828952
1580423614.09186,5.27962157625689,-0.823987182421661,1.61745632104976
1580423614.09586,5.34065766384379,-0.762951094834762,1.98367284657047
1580423614.09986,4.91340505073617,-0.70191500724809,1.8616006713969
1580423614.10386,4.73029678797593,-0.885023270008332,1.8616006713969
1580423614.10786,5.21858548867021,-1.25123979552905,1.80056458381023
1580423614.11186,5.27962157625689,-1.12916762035547,1.98367284657047
1580423614.11586,5.21858548867021,-1.12916762035547,2.16678110933094
1580423614.11985,4.7913328755626,-1.12916762035547,2.28885328450451
1580423614.12385,4.30304417486832,-1.0070954451819,2.28885328450451
1580423614.12785,3.57061112382689,-1.0070954451819,2.34988937209118
1580423614.13185,3.38750286106665,-1.0070954451819,2.22781719691761
1580423614.13585,3.26543068589308,-1.12916762035547,2.34988937209118
1580423614.13985,3.99786373693451,-1.0681315327688,2.41092545967808
1580423614.14385,4.66926070038903,-1.19020370794237,2.53299763485165
1580423614.14783,5.21858548867021,-1.19020370794237,2.47196154726475
1580423614.15183,5.7068741893645,-1.25123979552905,2.59403372243833
1580423614.15582,5.95101853971164,-1.19020370794237,2.65506981002522
1580423614.15982,6.01205462729831,-1.12916762035547,2.65506981002522
1580423614.16382,6.01205462729831,-1.12916762035547,2.7161058976119
1580423614.16782,6.01205462729831,-0.885023270008332,2.59403372243833
1580423614.17182,5.7068741893645,-0.946059357595232,2.7161058976119
1580423614.17582,5.7068741893645,-1.0681315327688,2.7161058976119
1580423614.17982,5.40169375143046,-0.946059357595232,2.7771419851988
1580423614.18382,5.21858548867021,-0.762951094834762,2.7161058976119
1580423614.18781,5.27962157625689,-0.762951094834762,2.7161058976119
1580423614.19181,5.58480201419093,-0.640878919661191,2.7771419851988
1580423614.19581,5.40169375143046,-0.823987182421661,2.96025024795904
1580423614.19981,5.46272983901736,-0.885023270008332,2.89921416037237
1580423614.20381,5.34065766384379,-0.885023270008332,2.96025024795904
1580423614.20781,5.52376592660403,-0.885023270008332,3.08232242313261
1580423614.21181,5.88998245212474,-0.885023270008332,3.26543068589308
1580423614.21581,6.19516289005878,-0.885023270008332,3.32646677347975
1580423614.2198,6.37827115281902,-0.885023270008332,3.38750286106665
1580423614.2238,6.5003433279926,-0.946059357595232,3.44853894865332
1580423614.22781,6.43930724040592,-0.946059357595232,3.57061112382689
1580423614.23181,6.56137941557949,-1.12916762035547,3.63164721141379
1580423614.23581,7.66002899214163,-1.19020370794237,3.57061112382689
1580423614.23981,8.81971465629044,-1.31227588311594,3.63164721141379
1580423614.24381,9.67421988250544,-1.37331197070262,3.87579156176093
1580423614.24781,9.85732814526591,-1.43434805828952,4.18097199969475
1580423614.25181,9.55214770733187,-1.25123979552905,4.11993591210808
1580423614.25581,9.36903944457163,-1.25123979552905,3.93682764934761
1580423614.2598,9.06385900663759,-1.31227588311594,3.81475547417404
1580423614.2638,9.00282291905091,-1.37331197070262,3.63164721141379
1580423614.2678,9.36903944457163,-1.67849240863666,3.50957503624022
1580423614.2718,9.97940032043948,-1.8616006713969,3.32646677347975
1580423614.2758,10.0404364080262,-1.98367284657047,3.38750286106665
1580423614.2798,9.73525597009234,-2.04470893415737,3.14335851071951
1580423614.2838,9.12489509422448,-1.73952849622333,3.08232242313261
1580423614.28779,8.45349813076973,-1.67849240863666,3.08232242313261
1580423614.29179,7.96520943007545,-1.8616006713969,2.83817807278547
1580423614.29579,7.72106507972831,-2.04470893415737,2.7161058976119
1580423614.29979,7.59899290455473,-2.10574502174404,2.59403372243833
1580423614.30379,7.72106507972831,-2.16678110933094,2.47196154726475
1580423614.30777,7.53795681696806,-1.98367284657047,2.28885328450451
1580423614.31177,7.66002899214163,-1.8616006713969,2.22781719691761
1580423614.31577,7.35484855420759,-1.9226367589838,2.16678110933094
1580423614.31977,6.68345159075307,-1.80056458381023,2.16678110933094
1580423614.32376,6.07309071488521,-1.8616006713969,1.98367284657047
1580423614.32776,5.6458381017776,-1.80056458381023,1.98367284657047
1580423614.33176,5.40169375143046,-1.67849240863666,1.73952849622333
1580423614.33576,5.34065766384379,-1.61745632104976,1.49538414587619
1580423614.33976,4.97444113832307,-1.43434805828952,1.25123979552905
1580423614.34376,4.42511635004189,-1.49538414587619,1.0681315327688
1580423614.34776,4.11993591210808,-1.61745632104976,0.946059357595232
1580423614.35176,3.50957503624022,-1.55642023346309,0.823987182421661
1580423614.35575,2.7771419851988,-1.49538414587619,0.762951094834762
1580423614.35975,2.47196154726475,-1.49538414587619,0.640878919661191
1580423614.36375,2.41092545967808,-1.37331197070262,0.457770656900948
1580423614.36775,2.28885328450451,-1.37331197070262,0.274662394140478
1580423614.37175,2.10574502174404,-1.37331197070262,0.213626306553806
1580423614.37575,1.98367284657047,-1.43434805828952,0.091554131380235
1580423614.37975,1.73952849622333,-1.55642023346309,0.0305180437933359
1580423614.38375,1.43434805828952,-1.43434805828952,-0.091554131380235
1580423614.38776,0.762951094834762,-1.37331197070262,-0.091554131380235
1580423614.39175,0.640878919661191,-1.43434805828952,-0.396734569314049
1580423614.39575,0.762951094834762,-1.37331197070262,-0.396734569314049
1580423614.39975,0.579842832074519,-1.25123979552905,-0.274662394140478
1580423614.40375,0.213626306553806,-1.25123979552905,-0.51880674448762
1580423614.40775,-0.0305180437933359,-1.12916762035547,-0.457770656900948
1580423614.41175,-0.51880674448762,-1.0070954451819,-0.51880674448762
1580423614.41575,-0.396734569314049,-1.12916762035547,-0.51880674448762
1580423614.41975,-0.51880674448762,-0.946059357595232,-0.51880674448762
1580423614.42374,-0.946059357595232,-1.0070954451819,-0.51880674448762
1580423614.42774,-0.762951094834762,-1.12916762035547,-0.51880674448762
1580423614.43174,-0.946059357595232,-1.12916762035547,-0.640878919661191
1580423614.43574,-0.885023270008332,-1.19020370794237,-0.70191500724809
1580423614.43974,-0.640878919661191,-1.12916762035547,-0.51880674448762
1580423614.44374,-0.823987182421661,-1.0070954451819,-0.579842832074519
1580423614.44774,-1.0070954451819,-1.0070954451819,-0.70191500724809
1580423614.45174,-0.885023270008332,-1.0070954451819,-0.70191500724809
1580423614.45573,-0.946059357595232,-0.885023270008332,-0.762951094834762
1580423614.45973,-1.12916762035547,-0.823987182421661,-0.70191500724809
1580423614.46373,-0.579842832074519,-0.762951094834762,-0.762951094834762
1580423614.46771,-0.396734569314049,-0.823987182421661,-0.640878919661191
1580423614.47171,-0.274662394140478,-1.0681315327688,-0.579842832074519
1580423614.47571,-0.579842832074519,-0.885023270008332,-0.579842832074519
1580423614.47971,-0.457770656900948,-0.640878919661191,-0.396734569314049
1580423614.48371,0.0305180437933359,-0.823987182421661,-0.335698481727377
1580423614.48771,0.213626306553806,-0.640878919661191,-0.274662394140478
1580423614.4917,0.152590218966907,-0.579842832074519,-0.091554131380235
1580423614.4957,0.579842832074519,-0.70191500724809,-0.0305180437933359
1580423614.4997,0.579842832074519,-0.51880674448762,0.0305180437933359
1580423614.5037,0.396734569314049,-0.51880674448762,-0.091554131380235
1580423614.5077,0.335698481727377,-0.579842832074519,-0.213626306553806
1580423614.5117,0.335698481727377,-0.396734569314049,-0.091554131380235
1580423614.5157,0.213626306553806,-0.457770656900948,-0.152590218966907
1580423614.5197,0.152590218966907,-0.335698481727377,-0.213626306553806
1580423614.52369,-0.274662394140478,-0.274662394140478,-0.335698481727377
1580423614.52769,-0.457770656900948,-0.152590218966907,-0.274662394140478
1580423614.53169,-0.335698481727377,-0.091554131380235,-0.213626306553806
1580423614.53569,-0.51880674448762,0.091554131380235,-0.274662394140478
1580423614.53969,-0.274662394140478,0.0305180437933359,-0.335698481727377
1580423614.54369,-0.213626306553806,0.152590218966907,-0.152590218966907
1580423614.5477,-0.396734569314049,0.274662394140478,-0.0305180437933359
1580423614.5517,-0.51880674448762,0.213626306553806,-0.0305180437933359
1580423614.5557,-0.457770656900948,0.213626306553806,-0.152590218966907
1580423614.5597,-0.640878919661191,0.457770656900948,-0.0305180437933359
1580423614.56369,-0.51880674448762,0.457770656900948,-0.152590218966907
1580423614.56769,-0.335698481727377,0.51880674448762,-0.152590218966907
1580423614.57169,-0.152590218966907,0.51880674448762,-0.091554131380235
1580423614.57569,-0.457770656900948,0.640878919661191,-0.152590218966907
1580423614.57969,-0.457770656900948,0.640878919661191,-0.091554131380235
1580423614.58369,-0.213626306553806,0.579842832074519,-0.091554131380235
1580423614.58769,-0.0305180437933359,0.51880674448762,-0.274662394140478
1580423614.59168,0.091554131380235,0.640878919661191,-0.274662394140478
1580423614.59568,0.091554131380235,0.70191500724809,-0.274662394140478
1580423614.59968,0.274662394140478,0.51880674448762,-0.335698481727377
1580423614.60368,0.274662394140478,0.579842832074519,-0.213626306553806
1580423614.60768,0.396734569314049,0.457770656900948,-0.335698481727377
1580423614.61168,0.457770656900948,0.396734569314049,-0.274662394140478
1580423614.61568,0.579842832074519,0.396734569314049,-0.274662394140478
1580423614.61968,0.70191500724809,0.152590218966907,-0.396734569314049
1580423614.62367,0.579842832074519,0.274662394140478,-0.396734569314049
1580423614.62766,0.457770656900948,0.396734569314049,-0.457770656900948
1580423614.63165,0.579842832074519,0.274662394140478,-0.640878919661191
1580423614.63565,0.51880674448762,0.396734569314049,-0.70191500724809
1580423614.63965,-0.0305180437933359,0.396734569314049,-0.823987182421661
1580423614.64365,-0.396734569314049,0.457770656900948,-0.70191500724809
1580423614.64765,-1.0070954451819,0.762951094834762,-0.885023270008332
1580423614.65165,-1.9226367589838,0.885023270008332,-0.946059357595232
1580423614.65565,-2.41092545967808,0.51880674448762,-1.12916762035547
1580423614.65964,-3.02128633554594,0.335698481727377,-1.25123979552905
1580423614.66364,-3.50957503624022,0.396734569314049,-1.37331197070262
1580423614.66764,-3.87579156176093,0.213626306553806,-1.55642023346309
1580423614.67164,-4.11993591210808,0.152590218966907,-1.49538414587619
1580423614.67564,-3.75371938658736,0.0305180437933359,-1.49538414587619
1580423614.67964,-3.38750286106665,0.091554131380235,-1.61745632104976
1580423614.68364,-3.26543068589308,0.0305180437933359,-1.55642023346309
1580423614.68764,-3.38750286106665,-0.152590218966907,-1.67849240863666
1580423614.69163,-4.05889982452118,-0.152590218966907,-1.73952849622333
1580423614.69563,-5.7068741893645,0.0305180437933359,-1.73952849622333
1580423614.69963,-6.86655985351331,-0.0305180437933359,-1.9226367589838
1580423614.70363,-7.90417334248878,0.091554131380235,-1.80056458381023
1580423614.70764,-8.39246204318306,0.274662394140478,-1.67849240863666
1580423614.71164,-8.14831769283592,0.091554131380235,-1.49538414587619
1580423614.71564,-7.41588464179449,-0.0305180437933359,-1.37331197070262
1580423614.71964,-6.37827115281902,-0.274662394140478,-1.43434805828952
1580423614.72364,-5.15754940108332,-0.51880674448762,-1.37331197070262
1580423614.72763,-4.30304417486832,-0.457770656900948,-1.31227588311594
1580423614.73163,-3.93682764934761,-0.457770656900948,-1.19020370794237
1580423614.73563,-3.32646677347975,-0.335698481727377,-1.12916762035547
1580423614.73963,-2.83817807278547,-0.51880674448762,-1.0681315327688
1580423614.74363,-1.9226367589838,-0.762951094834762,-1.0070954451819
1580423614.74763,-0.091554131380235,-0.579842832074519,-0.885023270008332
1580423614.75163,1.73952849622333,-0.457770656900948,-0.579842832074519
1580423614.75563,2.7161058976119,-0.51880674448762,-0.579842832074519
1580423614.75962,1.9226367589838,-0.51880674448762,-0.70191500724809
1580423614.76362,-0.152590218966907,-0.213626306553806,-1.12916762035547
1580423614.76762,-1.55642023346309,-0.152590218966907,-1.73952849622333
1580423614.77162,-1.73952849622333,-0.0305180437933359,-2.04470893415737
1580423614.77562,-1.55642023346309,-0.091554131380235,-2.7161058976119
1580423614.77962,-1.0070954451819,-0.457770656900948,-3.14335851071951
1580423614.78362,-0.640878919661191,-0.274662394140478,-3.63164721141379
1580423614.7876,-0.579842832074519,-0.0305180437933359,-4.36408026245522
1580423614.7916,-1.9226367589838,-0.0305180437933359,-4.97444113832307
1580423614.79559,-5.21858548867021,0.091554131380235,-5.6458381017776
1580423614.79959,-8.81971465629044,0.091554131380235,-6.5003433279926
1580423614.80359,-11.0780498970016,0.0305180437933359,-7.41588464179449
1580423614.80759,-11.9325551232166,0.091554131380235,-8.27038986800949
1580423614.81159,-11.8715190356297,-0.152590218966907,-9.36903944457163
1580423614.81559,-11.505302510109,-0.396734569314049,-10.1625085831997
1580423614.81959,-11.7494468604561,-0.213626306553806,-10.7728694590676
1580423614.82359,-11.9935912108033,-0.152590218966907,-11.2611581597619
1580423614.82758,-12.2987716487373,-0.274662394140478,-11.5663385976959
1580423614.83158,-13.214312962539,-0.457770656900948,-11.9325551232166
1580423614.83558,-14.0077821011673,-1.19020370794237,-12.4818799114976
1580423614.83958,-14.7402151522087,-1.25123979552905,-12.664988174258
1580423614.84358,-14.9843595025559,-1.12916762035547,-12.9701686121919
1580423614.84758,-14.7402151522087,-1.19020370794237,-13.2753490501259
1580423614.85158,-14.5571068894483,-0.579842832074519,-13.519493400473
1580423614.85558,-14.5571068894483,-0.762951094834762,-13.8857099259938
1580423614.85958,-14.373998626688,-1.12916762035547,-14.1908903639276
1580423614.86357,-14.5571068894483,-1.25123979552905,-14.4350347142747
1580423614.86758,-14.4960708018616,-1.49538414587619,-14.7402151522087
1580423614.87158,-13.8246738384069,-1.8616006713969,-14.9843595025559
1580423614.87558,-13.1532768749523,-1.98367284657047,-15.1064316777295
1580423614.87958,-12.4818799114976,-2.22781719691761,-15.3505760280766
1580423614.88358,-12.1156633859769,-2.10574502174404,-15.3505760280766
1580423614.88758,-12.359807736324,-1.98367284657047,-15.3505760280766
1580423614.89158,-12.2377355611504,-2.04470893415737,-15.4726482032502
1580423614.89558,-12.2377355611504,-1.80056458381023,-15.4726482032502
1580423614.89957,-12.4818799114976,-1.80056458381023,-15.6557564660104
1580423614.90357,-12.359807736324,-1.98367284657047,-15.5336842908368
1580423614.90757,-12.1156633859769,-1.61745632104976,-15.4116121156633
1580423614.91157,-11.505302510109,-1.73952849622333,-15.1674677653161
1580423614.91557,-10.8949416342411,-1.9226367589838,-14.923323414969
1580423614.91957,-10.650797283894,-1.8616006713969,-14.8622873273823
1580423614.92357,-10.5897611963073,-1.98367284657047,-14.7402151522087
1580423614.92756,-9.85732814526591,-2.34988937209118,-14.5571068894483
1580423614.93156,-9.36903944457163,-2.22781719691761,-14.1298542763409
1580423614.93556,-8.88075074387734,-2.10574502174404,-14.0077821011673
1580423614.93956,-8.20935378042259,-2.10574502174404,-13.8246738384069
1580423614.94356,-7.84313725490188,-2.10574502174404,-13.4584573128861
1580423614.94754,-7.72106507972831,-2.22781719691761,-13.214312962539
1580423614.95154,-8.08728160524902,-2.10574502174404,-13.0312046997788
1580423614.95554,-8.5755703059433,-2.04470893415737,-12.7870603494316
1580423614.95954,-8.51453421835663,-2.34988937209118,-12.5429159990845
1580423614.96353,-8.6366063935302,-2.16678110933094,-12.1156633859769
1580423614.96753,-8.94178683146401,-1.80056458381023,-11.810482948043
1580423614.97153,-9.30800335698473,-1.8616006713969,-11.5663385976959
1580423614.97553,-9.73525597009234,-1.9226367589838,-11.2001220721752
1580423614.97953,-9.61318379491877,-1.80056458381023,-10.955977721828
1580423614.98353,-9.24696726939806,-1.98367284657047,-10.5287251087204
1580423614.98753,-9.00282291905091,-1.80056458381023,-10.0404364080262
1580423614.99153,-7.90417334248878,-1.98367284657047,-9.67421988250544
1580423614.99552,-6.74448767833974,-1.73952849622333,-9.18593118181116
1580423614.99952,-6.25619897764545,-1.55642023346309,-8.75867856870377
1580423615.00352,-5.7068741893645,-1.73952849622333,-8.27038986800949
1580423615.00752,-5.40169375143046,-1.67849240863666,-7.7821011673152
1580423615.01152,-5.15754940108332,-1.67849240863666,-7.41588464179449
1580423615.01552,-4.66926070038903,-1.8616006713969,-6.86655985351331
1580423615.01952,-4.24200808728165,-1.67849240863666,-6.37827115281902
1580423615.02352,-3.99786373693451,-1.61745632104976,-6.19516289005878
1580423615.02753,-3.50957503624022,-1.31227588311594,-5.82894636453807
1580423615.03152,-3.08232242313261,-0.946059357595232,-5.58480201419093
1580423615.03552,-3.08232242313261,-1.0681315327688,-5.21858548867021
1580423615.03952,-3.20439459830618,-1.31227588311594,-4.91340505073617
1580423615.04352,-3.50957503624022,-1.25123979552905,-4.73029678797593
1580423615.04752,-3.32646677347975,-1.37331197070262,-4.36408026245522
1580423615.05152,-2.96025024795904,-1.25123979552905,-4.05889982452118
1580423615.05552,-2.53299763485165,-1.25123979552905,-3.99786373693451
1580423615.05952,-1.8616006713969,-1.31227588311594,-3.69268329900046
1580423615.06351,-1.67849240863666,-1.25123979552905,-3.63164721141379
1580423615.06751,-1.37331197070262,-1.31227588311594,-3.50957503624022
1580423615.07151,-0.885023270008332,-1.55642023346309,-3.38750286106665
1580423615.07551,-0.457770656900948,-1.61745632104976,-3.32646677347975
1580423615.07951,0.091554131380235,-1.43434805828952,-3.14335851071951
1580423615.08351,0.457770656900948,-1.55642023346309,-3.08232242313261
1580423615.08751,0.640878919661191,-1.49538414587619,-2.83817807278547
1580423615.09151,0.51880674448762,-1.55642023346309,-2.7161058976119
1580423615.0955,0.396734569314049,-1.61745632104976,-2.7161058976119
1580423615.0995,0.274662394140478,-1.67849240863666,-2.53299763485165
1580423615.1035,0.0305180437933359,-1.49538414587619,-2.65506981002522
1580423615.10748,0.213626306553806,-1.43434805828952,-2.59403372243833
1580423615.11148,0.274662394140478,-1.61745632104976,-2.53299763485165
1580423615.11548,0.579842832074519,-1.80056458381023,-2.47196154726475
1580423615.11948,0.51880674448762,-1.98367284657047,-2.41092545967808
1580423615.12348,0.579842832074519,-1.80056458381023,-2.41092545967808
1580423615.12748,0.823987182421661,-1.67849240863666,-2.47196154726475
1580423615.13147,0.885023270008332,-1.49538414587619,-2.34988937209118
1580423615.13547,0.885023270008332,-1.49538414587619,-2.34988937209118
1580423615.13947,0.335698481727377,-1.37331197070262,-2.41092545967808
1580423615.14347,0.152590218966907,-1.49538414587619,-2.47196154726475
1580423615.14747,0.274662394140478,-1.49538414587619,-2.59403372243833
1580423615.15147,0.274662394140478,-1.67849240863666,-2.7161058976119
1580423615.15547,0.213626306553806,-1.73952849622333,-2.7771419851988
1580423615.15947,-0.091554131380235,-1.49538414587619,-2.96025024795904
1580423615.16347,-0.396734569314049,-1.31227588311594,-3.02128633554594
1580423615.16746,-0.457770656900948,-1.31227588311594,-3.20439459830618
1580423615.17146,-0.762951094834762,-1.19020370794237,-3.38750286106665
1580423615.17546,-0.946059357595232,-1.19020370794237,-3.38750286106665
1580423615.17946,-1.12916762035547,-1.19020370794237,-3.57061112382689
1580423615.18346,-1.55642023346309,-1.19020370794237,-3.75371938658736
1580423615.18747,-1.98367284657047,-1.0070954451819,-3.93682764934761
1580423615.19147,-2.22781719691761,-0.946059357595232,-4.18097199969475
1580423615.19547,-2.47196154726475,-0.762951094834762,-4.30304417486832
1580423615.19947,-2.53299763485165,-0.823987182421661,-4.54718852521546
1580423615.20346,-2.7161058976119,-0.70191500724809,-4.73029678797593
1580423615.20746,-2.59403372243833,-0.640878919661191,-4.8523689631495
1580423615.21146,-2.83817807278547,-0.70191500724809,-4.91340505073617
1580423615.21546,-3.50957503624022,-0.579842832074519,-4.97444113832307
1580423615.21946,-3.99786373693451,-0.640878919661191,-5.21858548867021
1580423615.22346,-3.93682764934761,-0.70191500724809,-5.34065766384379
1580423615.22746,-3.87579156176093,-0.640878919661191,-5.34065766384379
1580423615.23145,-4.11993591210808,-0.762951094834762,-5.46272983901736
1580423615.23545,-3.93682764934761,-0.885023270008332,-5.52376592660403
1580423615.23945,-3.99786373693451,-1.0070954451819,-5.40169375143046
1580423615.24345,-4.11993591210808,-0.885023270008332,-5.6458381017776
1580423615.24745,-3.99786373693451,-0.885023270008332,-5.76791027695117
1580423615.25145,-3.81475547417404,-1.0070954451819,-5.95101853971164
1580423615.25545,-3.87579156176093,-1.0070954451819,-6.13412680247188
1580423615.25945,-3.99786373693451,-1.0070954451819,-6.25619897764545
1580423615.26344,-4.30304417486832,-0.823987182421661,-6.25619897764545
1580423615.26742,-4.54718852521546,-0.823987182421661,-6.37827115281902
1580423615.27142,-4.73029678797593,-1.0070954451819,-6.5003433279926
1580423615.27542,-5.09651331349664,-1.12916762035547,-6.68345159075307
1580423615.27942,-5.03547722590974,-1.31227588311594,-6.74448767833974
1580423615.28342,-4.73029678797593,-1.37331197070262,-6.86655985351331
1580423615.28742,-4.54718852521546,-1.25123979552905,-6.86655985351331
1580423615.29142,-4.11993591210808,-1.37331197070262,-7.11070420386045
1580423615.29542,-3.87579156176093,-1.0681315327688,-7.04966811627378
1580423615.29941,-3.75371938658736,-0.762951094834762,-6.98863202868688
1580423615.30341,-3.81475547417404,-0.70191500724809,-6.98863202868688
1580423615.30741,-4.73029678797593,-0.51880674448762,-6.92759594110021
1580423615.31141,-5.58480201419093,-0.762951094834762,-7.04966811627378
1580423615.31541,-6.01205462729831,-0.885023270008332,-7.35484855420759
1580423615.31941,-5.95101853971164,-1.0070954451819,-7.72106507972831
1580423615.32341,-5.7068741893645,-0.946059357595232,-7.90417334248878
1580423615.32741,-5.52376592660403,-1.12916762035547,-8.02624551766235
1580423615.3314,-5.34065766384379,-1.12916762035547,-8.14831769283592
1580423615.3354,-5.21858548867021,-1.12916762035547,-8.02624551766235
1580423615.3394,-5.34065766384379,-1.0070954451819,-7.96520943007545
1580423615.3434,-5.7068741893645,-0.885023270008332,-8.14831769283592
1580423615.34741,-5.6458381017776,-1.0070954451819,-8.20935378042259
1580423615.35141,-5.52376592660403,-1.0681315327688,-8.14831769283592
1580423615.35541,-5.88998245212474,-1.12916762035547,-8.27038986800949
1580423615.35941,-5.88998245212474,-1.0681315327688,-8.27038986800949
1580423615.36341,-5.95101853971164,-0.70191500724809,-8.27038986800949
1580423615.36741,-6.13412680247188,-0.579842832074519,-8.39246204318306
1580423615.3714,-6.07309071488521,-0.70191500724809,-8.33142595559616
1580423615.3754,-6.31723506523235,-0.762951094834762,-8.39246204318306
1580423615.3794,-6.68345159075307,-0.762951094834762,-8.6366063935302
1580423615.3834,-6.74448767833974,-0.885023270008332,-8.81971465629044
1580423615.3874,-6.86655985351331,-0.70191500724809,-9.00282291905091
1580423615.3914,-7.11070420386045,-0.762951094834762,-9.30800335698473
1580423615.3954,-7.66002899214163,-0.946059357595232,-9.73525597009234
1580423615.3994,-8.51453421835663,-1.0681315327688,-10.0404364080262
1580423615.40339,-9.06385900663759,-1.19020370794237,-10.3456168459602
1580423615.40739,-9.4300755321583,-1.49538414587619,-10.3456168459602
1580423615.41139,-9.55214770733187,-1.55642023346309,-10.3456168459602
1580423615.41539,-9.00282291905091,-1.37331197070262,-10.7118333714809
1580423615.41939,-8.45349813076973,-1.25123979552905,-10.650797283894
1580423615.42339,-7.96520943007545,-1.19020370794237,-10.7118333714809
1580423615.42737,-7.35484855420759,-1.31227588311594,-10.7118333714809
1580423615.43137,-7.23277637903402,-1.25123979552905,-10.7728694590676
1580423615.43536,-7.66002899214163,-1.43434805828952,-10.8339055466545
1580423615.43936,-7.90417334248878,-1.19020370794237,-10.8339055466545
1580423615.44336,-8.33142595559616,-1.25123979552905,-10.955977721828
1580423615.44736,-8.20935378042259,-1.31227588311594,-11.0780498970016
1580423615.45136,-7.72106507972831,-1.49538414587619,-11.2611581597619
1580423615.45536,-7.29381246662092,-1.61745632104976,-11.2001220721752
1580423615.45936,-6.92759594110021,-1.73952849622333,-11.2611581597619
1580423615.46336,-6.68345159075307,-1.9226367589838,-11.3832303349354
1580423615.46736,-6.31723506523235,-1.98367284657047,-11.3832303349354
1580423615.47135,-6.07309071488521,-1.98367284657047,-11.3832303349354
1580423615.47535,-5.76791027695117,-2.10574502174404,-11.3832303349354
1580423615.47935,-5.82894636453807,-2.28885328450451,-11.4442664225223
1580423615.48335,-6.13412680247188,-2.41092545967808,-11.6273746852826
1580423615.48735,-6.5003433279926,-2.16678110933094,-11.7494468604561
1580423615.49135,-6.92759594110021,-2.22781719691761,-12.0546272983902
1580423615.49535,-7.29381246662092,-2.22781719691761,-12.4208438239109
1580423615.49934,-7.66002899214163,-2.16678110933094,-12.664988174258
1580423615.50334,-7.96520943007545,-2.16678110933094,-12.8480964370183
1580423615.50735,-8.27038986800949,-2.28885328450451,-13.214312962539
1580423615.51135,-8.6366063935302,-2.22781719691761,-13.7026016632333
1580423615.51535,-8.75867856870377,-2.16678110933094,-14.2519264515145
1580423615.51935,-8.75867856870377,-2.28885328450451,-14.5571068894483
1580423615.52335,-8.94178683146401,-2.22781719691761,-14.8622873273823
1580423615.52735,-9.36903944457163,-2.04470893415737,-15.4116121156633
1580423615.53135,-9.91836423285258,-2.04470893415737,-15.777828641184
1580423615.53535,-10.0404364080262,-1.8616006713969,-16.3271534294652
1580423615.53934,-10.0404364080262,-1.80056458381023,-16.7544060425726
1580423615.54334,-10.0404364080262,-1.80056458381023,-17.4258030060273
1580423615.54734,-9.61318379491877,-1.98367284657047,-17.9140917067216
1580423615.55134,-9.67421988250544,-2.04470893415737,-18.5244525825894
1580423615.55534,-9.85732814526591,-1.8616006713969,-18.8296330205233
1580423615.55934,-10.3456168459602,-1.61745632104976,-19.1348134584573
1580423615.56334,-11.0780498970016,-1.31227588311594,-19.6841382467383
1580423615.56734,-11.4442664225223,-1.37331197070262,-20.4165712977797
1580423615.57133,-11.9325551232166,-1.37331197070262,-21.0269321736475
1580423615.57533,-11.9325551232166,-1.55642023346309,-21.6372930495154
1580423615.57933,-11.505302510109,-1.55642023346309,-22.3086900129701
1580423615.58333,-10.8339055466545,-1.49538414587619,-22.919050888838
1580423615.58731,-10.4676890211338,-1.25123979552905,-23.6514839398794
1580423615.59131,-10.2845807583733,-1.0681315327688,-24.1397726405737
1580423615.59531,-10.4066529335469,-0.823987182421661,-24.8111696040282
1580423615.59931,-10.7728694590676,-0.213626306553806,-25.4215304798961
1580423615.6033,-10.4676890211338,0.152590218966907,-26.5812161440451
1580423615.6073,-9.73525597009234,-0.091554131380235,-27.6188296330204
1580423615.6113,-9.55214770733187,-0.152590218966907,-28.6564431219958
1580423615.6153,-9.4300755321583,-0.213626306553806,-29.6940566109711
1580423615.6193,-9.97940032043948,0.335698481727377,-30.9147783627068
1580423615.6233,-10.955977721828,0.885023270008332,-32.4406805523768
1580423615.6273,-12.4208438239109,1.37331197070262,-33.9055466544596
1580423615.6313,-13.7636377508202,1.67849240863666,-35.6145571068896
1580423615.63529,-14.8012512397954,1.55642023346309,-37.6897840848403
1580423615.63929,-15.228503852903,1.55642023346309,-39.8260471503777
1580423615.64329,-15.2895399404897,1.9226367589838,-41.7181658655682
1580423615.64729,-15.228503852903,2.22781719691761,-43.8544289311055
1580423615.65129,-14.923323414969,2.7771419851988,-46.0517280842298
1580423615.65529,-14.8622873273823,3.26543068589308,-48.4321355001146
1580423615.65929,-15.1064316777295,3.75371938658736,-50.9346150911726
1580423615.66329,-15.4726482032502,4.42511635004189,-53.4981307698176
1580423615.6673,-15.5947203784237,5.34065766384379,-56.2447547112231
1580423615.6713,-15.8388647287709,6.5003433279926,-58.6861982146945
1580423615.67529,-16.8764782177461,7.53795681696806,-61.1886778057526
1580423615.67929,-19.0737773708704,8.69764248111687,-63.7521934843976
1580423615.68329,-22.064545662623,10.1014724956131,-65.7663843747616
1580423615.68729,-26.1539635309375,11.9935912108033,-67.5974670023652
1580423615.69129,-31.3420309758146,13.7026016632333,-69.7947661554895
1580423615.69529,-35.6755931944763,15.0453955901426,-72.2972457465476
1580423615.69929,-37.8728923476006,16.1440451667047,-75.1049057755397
1580423615.70329,-39.6429388876174,16.4492256046387,-77.6684214541847
1580423615.70728,-41.2909132524605,16.2661173418783,-79.316395819028
1580423615.71128,-43.4271763179981,16.5712977798123,-79.6826123445487
1580423615.71528,-48.0048828870069,18.0361638818952,-79.8046845197223
1580423615.71928,-52.8267338063631,19.2568856336309,-80.5981536583504
1580423615.72328,-55.3902494850081,19.8062104219118,-81.6357671473259
1580423615.72728,-54.4136720836195,19.6841382467383,-82.0019836728466
1580423615.73128,-52.2774090180819,19.2568856336309,-81.3916227969787
1580423615.73528,-50.0801098649576,18.7685969329366,-79.6215762569618
1580423615.73927,-48.6762798504617,19.4399938963911,-76.752880140383
1580423615.74327,-49.7749294270238,20.9658960860609,-73.334859235523
1580423615.74725,-51.6060120546274,22.7969787136644,-70.466163118944
1580423615.75125,-52.7046616311895,24.2008087281604,-68.1467917906461
1580423615.75525,-52.582589456016,24.8722056916151,-65.9494926375219
1580423615.75925,-49.0424963759824,24.322880903334,-63.5080491340505
1580423615.76325,-41.9012741283284,23.2242313267718,-59.9679560540169
1580423615.76725,-33.478294041352,22.7359426260775,-55.2071412222476
1580423615.77125,-24.2618448157473,23.3463035019454,-49.8970016021974
1580423615.77524,-13.3974212252995,25.2384222171358,-44.0985732814527
1580423615.77924,-3.08232242313261,27.9240100709544,-38.7884336614025
1580423615.78324,6.19516289005878,30.3654535744258,-33.783474479286
1580423615.78724,11.6273746852826,32.6848249027237,-29.1447318226901
1580423615.79124,11.9325551232166,33.6614023041122,-24.8111696040282
1580423615.79524,10.5897611963073,34.2107270923932,-21.0269321736475
1580423615.79924,9.61318379491877,34.6379797055008,-17.8530556191347
1580423615.80324,9.12489509422448,35.3093766689553,-15.2895399404897
1580423615.80723,8.75867856870377,36.0418097199968,-13.5805294880597
1580423615.81123,7.84313725490188,36.2859540703439,-12.9091325246052
1580423615.81523,6.62241550316617,36.6521705958646,-12.6039520866711
1580423615.81923,4.42511635004189,36.5911345082779,-12.8480964370183
1580423615.82323,1.55642023346309,35.9197375448232,-13.4584573128861
1580423615.82724,-1.67849240863666,34.8210879682611,-13.9467460135804
1580423615.83124,-4.66926070038903,32.8679331654839,-14.373998626688
1580423615.83524,-7.35484855420759,31.4030670634011,-14.4350347142747
1580423615.83924,-10.1625085831997,30.5485618371861,-14.068818188754
1580423615.84324,-12.9701686121919,30.1823453116654,-13.9467460135804
1580423615.84723,-14.7402151522087,29.9382009613182,-13.7026016632333
1580423615.85123,-14.923323414969,29.2668039978637,-13.5805294880597
1580423615.85523,-12.7870603494316,28.4122987716487,-13.5805294880597
1580423615.85923,-9.79629205767901,27.6798657206073,-13.1532768749523
1580423615.86323,-6.68345159075307,26.6422522316318,-12.9701686121919
1580423615.86723,-4.42511635004189,25.7267109178301,-12.8480964370183
1580423615.87123,-3.26543068589308,25.482566567483,-13.0312046997788
1580423615.87522,-2.53299763485165,25.1773861295489,-13.2753490501259
1580423615.87922,-2.10574502174404,24.628061341268,-13.6415655756466
1580423615.88322,-1.8616006713969,24.0177004654001,-13.9467460135804
1580423615.88722,-1.61745632104976,22.6749065384909,-14.1908903639276
1580423615.89122,-1.73952849622333,21.0879682612344,-14.373998626688
1580423615.89522,-3.08232242313261,19.5620660715647,-14.5571068894483
1580423615.89922,-5.27962157625689,17.6699473563745,-14.9843595025559
1580423615.90322,-8.39246204318306,15.9609369039445,-15.3505760280766
1580423615.9072,-11.8715190356297,14.1298542763409,-15.5947203784237
1580423615.91119,-15.4726482032502,12.1766994735638,-15.7167925535973
1580423615.91519,-18.5854886701761,10.2845807583733,-15.5336842908368
1580423615.91919,-21.2710765239947,8.27038986800949,-14.9843595025559
1580423615.92319,-23.4073395895323,6.43930724040592,-14.0077821011673
1580423615.92719,-25.1773861295489,4.73029678797593,-12.9091325246052
1580423615.93119,-26.0929274433508,3.26543068589308,-11.505302510109
1580423615.93519,-26.2760357061111,1.80056458381023,-9.79629205767901
1580423615.93919,-25.7267109178301,0.640878919661191,-8.02624551766235
1580423615.94318,-24.5059891660944,-0.579842832074519,-6.07309071488521
1580423615.94718,-22.613870450904,-1.73952849622333,-3.99786373693451
1580423615.95118,-20.4776073853666,-2.7771419851988,-2.04470893415737
1580423615.95518,-18.7075608453497,-3.50957503624022,-0.396734569314049
1580423615.95918,-16.8764782177461,-3.93682764934761,0.946059357595232
1580423615.96318,-14.8012512397954,-4.60822461280236,2.34988937209118
1580423615.96718,-12.8480964370183,-5.46272983901736,3.32646677347975
1580423615.97118,-11.1390859845883,-6.43930724040592,4.05889982452118
1580423615.97517,-9.55214770733187,-7.35484855420759,4.66926070038903
1580423615.97917,-7.90417334248878,-8.14831769283592,5.09651331349664
1580423615.98317,-6.43930724040592,-8.81971465629044,5.40169375143046
1580423615.98718,-4.60822461280236,-9.30800335698473,5.76791027695117
1580423615.99118,-2.65506981002522,-9.91836423285258,6.07309071488521
1580423615.99518,-0.70191500724809,-10.5287251087204,6.31723506523235
1580423615.99918,1.43434805828952,-10.3456168459602,6.5003433279926
1580423616.00318,3.38750286106665,-10.2235446707866,6.74448767833974
1580423616.00718,5.03547722590974,-10.1625085831997,6.92759594110021
1580423616.01117,6.5003433279926,-10.2845807583733,6.98863202868688
1580423616.01517,8.27038986800949,-10.2845807583733,7.04966811627378
1580423616.01917,9.67421988250544,-9.55214770733187,7.41588464179449
1580423616.02317,9.97940032043948,-9.18593118181116,7.47692072938116
1580423616.02717,10.2235446707866,-9.12489509422448,7.53795681696806
1580423616.03117,10.955977721828,-9.18593118181116,7.59899290455473
1580423616.03517,11.8715190356297,-9.4911116197452,7.66002899214163
1580423616.03917,13.0312046997788,-9.61318379491877,7.47692072938116
1580423616.04316,14.1908903639276,-9.55214770733187,7.41588464179449
1580423616.04716,15.2895399404897,-9.73525597009234,7.17174029144735
1580423616.05116,16.3881895170518,-9.79629205767901,6.80552376592664
1580423616.05516,16.7544060425726,-10.4066529335469,6.62241550316617
1580423616.05916,16.3271534294652,-10.7728694590676,6.37827115281902
1580423616.06316,14.9843595025559,-11.2611581597619,6.19516289005878
1580423616.06714,12.7260242618447,-11.6884107728695,5.88998245212474
1580423616.07114,9.79629205767901,-12.0546272983902,5.40169375143046
1580423616.07514,6.92759594110021,-12.4818799114976,4.7913328755626
1580423616.07913,3.69268329900046,-12.8480964370183,4.36408026245522
1580423616.08313,1.0070954451819,-13.214312962539,4.11993591210808
1580423616.08713,-1.31227588311594,-13.214312962539,3.87579156176093
1580423616.09113,-3.69268329900046,-13.0922407873654,3.81475547417404
1580423616.09513,-5.6458381017776,-12.8480964370183,3.50957503624022
1580423616.09913,-6.98863202868688,-12.7260242618447,3.50957503624022
1580423616.10313,-8.33142595559616,-12.664988174258,3.32646677347975
1580423616.10713,-9.18593118181116,-12.664988174258,3.63164721141379
1580423616.11112,-8.88075074387734,-12.4208438239109,4.18097199969475
1580423616.11512,-9.06385900663759,-11.8715190356297,4.97444113832307
1580423616.11912,-9.79629205767901,-11.505302510109,5.09651331349664
1580423616.12312,-10.8949416342411,-11.2611581597619,5.03547722590974
1580423616.12712,-11.3221942473488,-11.6884107728695,5.15754940108332
1580423616.13112,-10.1014724956131,-12.2377355611504,5.7068741893645
1580423616.13512,-7.17174029144735,-12.2377355611504,6.62241550316617
1580423616.13912,-3.50957503624022,-12.2987716487373,7.84313725490188
1580423616.14312,0.091554131380235,-11.8715190356297,9.24696726939806
1580423616.14713,3.63164721141379,-11.2611581597619,10.3456168459602
1580423616.15112,6.25619897764545,-10.7728694590676,11.3221942473488
1580423616.15512,7.7821011673152,-10.1014724956131,12.4818799114976
1580423616.15912,8.45349813076973,-9.61318379491877,13.2753490501259
1580423616.16312,8.88075074387734,-9.24696726939806,14.068818188754
1580423616.16712,9.4300755321583,-8.94178683146401,14.8622873273823
1580423616.17112,9.79629205767901,-8.5755703059433,15.1674677653161
1580423616.17512,10.4676890211338,-8.33142595559616,15.5947203784237
1580423616.17911,11.6273746852826,-8.02624551766235,15.9609369039445
1580423616.18311,13.214312962539,-7.90417334248878,16.3271534294652
1580423616.18711,14.4960708018616,-7.66002899214163,16.6933699549859
1580423616.19111,15.2895399404897,-7.41588464179449,16.8764782177461
1580423616.19511,16.2050812542916,-7.29381246662092,16.7544060425726
1580423616.19911,17.3037308308537,-7.29381246662092,16.5102616922254
1580423616.20311,18.0971999694818,-7.11070420386045,16.2661173418783
1580423616.20711,18.646524757763,-6.74448767833974,16.0219729915311
1580423616.2111,18.5244525825894,-6.25619897764545,15.5947203784237
1580423616.2151,18.2803082322423,-6.07309071488521,15.228503852903
1580423616.2191,17.3647669184404,-5.76791027695117,14.7402151522087
1580423616.2231,16.6933699549859,-5.40169375143046,14.3129625391011
1580423616.22708,16.4492256046387,-5.15754940108332,13.9467460135804
1580423616.23108,16.3271534294652,-4.91340505073617,13.7026016632333
1580423616.23508,15.777828641184,-4.54718852521546,13.5805294880597
1580423616.23908,15.1674677653161,-4.54718852521546,13.4584573128861
1580423616.24308,14.5571068894483,-4.42511635004189,13.0922407873654
1580423616.24707,13.8857099259938,-4.48615243762879,12.6039520866711
1580423616.25107,13.0312046997788,-4.48615243762879,12.2987716487373
1580423616.25507,11.9325551232166,-4.66926070038903,11.9325551232166
1580423616.25907,10.5287251087204,-5.15754940108332,11.3832303349354
1580423616.26307,9.00282291905091,-5.7068741893645,11.0170138094147
1580423616.26707,7.35484855420759,-5.52376592660403,10.4676890211338
1580423616.27107,5.7068741893645,-5.03547722590974,9.67421988250544
1580423616.27507,4.48615243762879,-4.73029678797593,8.94178683146401
1580423616.27906,3.99786373693451,-4.66926070038903,8.39246204318306
1580423616.28306,3.63164721141379,-4.54718852521546,8.14831769283592
1580423616.28706,3.08232242313261,-4.48615243762879,8.02624551766235
1580423616.29106,2.10574502174404,-4.42511635004189,7.7821011673152
1580423616.29506,1.31227588311594,-4.36408026245522,7.66002899214163
1580423616.29906,1.0681315327688,-4.24200808728165,7.59899290455473
1580423616.30306,0.51880674448762,-4.05889982452118,7.66002899214163
1580423616.30707,-0.396734569314049,-3.75371938658736,7.41588464179449
1580423616.31107,-1.43434805828952,-3.50957503624022,7.29381246662092
1580423616.31506,-1.80056458381023,-3.38750286106665,7.29381246662092
1580423616.31906,-0.946059357595232,-3.08232242313261,7.47692072938116
1580423616.32306,0.640878919661191,-2.7771419851988,7.7821011673152
1580423616.32706,2.22781719691761,-2.41092545967808,8.33142595559616
1580423616.33106,2.96025024795904,-2.04470893415737,8.69764248111687
1580423616.33506,2.83817807278547,-1.73952849622333,8.88075074387734
1580423616.33906,2.7161058976119,-1.25123979552905,8.88075074387734
1580423616.34306,3.75371938658736,-1.0681315327688,8.88075074387734
1580423616.34705,5.52376592660403,-1.19020370794237,9.06385900663759
1580423616.35105,7.53795681696806,-1.25123979552905,9.30800335698473
1580423616.35505,8.81971465629044,-1.25123979552905,9.55214770733187
1580423616.35905,9.4300755321583,-1.31227588311594,9.85732814526591
1580423616.36305,9.61318379491877,-1.55642023346309,10.0404364080262
1580423616.36705,10.4066529335469,-1.73952849622333,10.0404364080262
1580423616.37105,12.2377355611504,-2.22781719691761,10.0404364080262
1580423616.37505,13.519493400473,-2.65506981002522,10.1625085831997
1580423616.37905,12.9701686121919,-2.96025024795904,10.0404364080262
1580423616.38304,11.3221942473488,-2.96025024795904,9.91836423285258
1580423616.38702,9.24696726939806,-2.83817807278547,9.4911116197452
1580423616.39102,7.41588464179449,-3.02128633554594,8.94178683146401
1580423616.39502,5.7068741893645,-3.38750286106665,8.33142595559616
1580423616.39902,4.91340505073617,-3.99786373693451,7.90417334248878
1580423616.40302,4.05889982452118,-4.60822461280236,7.96520943007545
1580423616.40702,2.96025024795904,-4.97444113832307,8.02624551766235
1580423616.41102,1.9226367589838,-5.09651331349664,7.90417334248878
1580423616.41501,1.49538414587619,-5.09651331349664,7.72106507972831
1580423616.41901,2.04470893415737,-5.03547722590974,7.53795681696806
1580423616.42301,3.81475547417404,-5.15754940108332,7.53795681696806
1580423616.42701,5.58480201419093,-5.34065766384379,7.72106507972831
1580423616.43101,6.62241550316617,-6.01205462729831,8.45349813076973
1580423616.43501,5.6458381017776,-6.43930724040592,9.06385900663759
1580423616.43901,3.08232242313261,-6.19516289005878,9.73525597009234
1580423616.44301,-0.274662394140478,-6.13412680247188,9.79629205767901
1580423616.44701,-2.53299763485165,-6.13412680247188,9.4911116197452
1580423616.451,-0.946059357595232,-6.37827115281902,9.00282291905091
1580423616.455,2.41092545967808,-7.17174029144735,8.94178683146401
1580423616.459,5.09651331349664,-8.75867856870377,9.36903944457163
1580423616.463,6.5003433279926,-9.67421988250544,10.3456168459602
1580423616.46701,7.72106507972831,-9.79629205767901,11.6884107728695
1580423616.47101,9.12489509422448,-9.18593118181116,12.6039520866711
1580423616.47501,9.06385900663759,-8.45349813076973,13.214312962539
1580423616.47901,3.75371938658736,-7.7821011673152,12.7870603494316
1580423616.48301,-6.68345159075307,-8.33142595559616,11.9935912108033
1580423616.487,-17.5478751812009,-9.36903944457163,11.505302510109
1580423616.491,-27.6188296330204,-10.1014724956131,10.5897611963073
1580423616.495,-38.4832532234684,-11.6884107728695,8.94178683146401
1580423616.499,-46.7841611352712,-15.0453955901426,6.80552376592664
1580423616.503,-49.5918211642634,-17.6089112687876,5.46272983901736
1580423616.507,-46.0517280842298,-19.2568856336309,6.01205462729831
1580423616.511,-37.9949645227741,-19.7451743343252,8.69764248111687
1580423616.51499,-28.1071183337147,-19.9282825970854,12.7260242618447
1580423616.51899,-17.6089112687876,-21.5152208743418,17.486839093614
1580423616.52299,-8.88075074387734,-24.322880903334,21.9424734874494
1580423616.52699,-3.93682764934761,-26.0318913557639,25.7877470054168
1580423616.53099,-1.49538414587619,-25.3604943923094,29.0836957351032
1580423616.53499,0.213626306553806,-23.9566643778132,32.0134279392689
1580423616.53899,2.7771419851988,-23.5904478522925,34.6379797055008
1580423616.54299,5.15754940108332,-24.1397726405737,36.7132066834515
1580423616.54697,4.66926070038903,-25.2994583047225,38.239108873121
1580423616.55096,0.457770656900948,-26.337071793698,38.7273975738153
1580423616.55496,-4.97444113832307,-27.0084687571525,37.9949645227739
1580423616.55896,-8.51453421835663,-26.8863965819789,36.2249179827572
1580423616.56296,-9.4300755321583,-24.628061341268,33.6614023041122
1580423616.56696,-9.12489509422448,-20.4165712977797,30.7927061875332
1580423616.57096,-11.3832303349354,-14.8622873273823,27.6798657206073
1580423616.57496,-15.9609369039445,-9.30800335698473,23.8956282902266
1580423616.57896,-18.5854886701761,-7.11070420386045,19.7451743343252
1580423616.58295,-16.5712977798123,-6.80552376592664,15.777828641184
1580423616.58695,-14.068818188754,-4.7913328755626,12.4208438239109
1580423616.59095,-15.5947203784237,-1.55642023346309,8.5755703059433
1580423616.59495,-18.9517051956968,2.83817807278547,5.6458381017776
1580423616.59895,-20.8438239108873,7.90417334248878,3.99786373693451
1580423616.60295,-17.4258030060273,13.6415655756466,2.83817807278547
1580423616.60695,-9.12489509422448,20.050354772259,0.274662394140478
1580423616.61095,2.96025024795904,25.9708552681773,-3.69268329900046
1580423616.61494,18.5244525825894,31.1589227130539,-7.72106507972831
1580423616.61894,35.7366292820629,35.8587014572365,-11.0780498970016
1580423616.62294,53.0098420691234,41.1078049897001,-12.9701686121919
1580423616.62695,68.4519722285804,46.7231250476843,-14.0077821011673
1580423616.63095,82.0630197604337,52.1553368429081,-14.1298542763409
1580423616.63495,95.7351033798736,56.6109712367434,-12.4818799114976
1580423616.63895,110.017547875181,58.747234302281,-9.24696726939806
1580423616.64295,123.323414969101,54.5967803463795,-5.27962157625689
1580423616.64695,133.150225070573,48.7983520256348,-0.579842832074519
1580423616.65094,130.952925917449,53.3150225070572,2.22781719691761
1580423616.65494,116.12115663386,68.6350804913409,-0.213626306553806
1580423616.65894,99.3972686350808,82.734416723888,-6.43930724040592
1580423616.66294,90.8522163729308,91.5846494239722,-11.505302510109
1580423616.66694,87.5562676432442,98.0544747081713,-13.519493400473
1580423616.67094,79.4995040817885,103.181506065461,-14.1298542763409
1580423616.67494,60.6393530174714,105.622949568933,-15.2895399404897
1580423616.67894,32.0134279392689,104.890516517891,-18.5854886701761
1580423616.68293,-0.152590218966907,102.876325627527,-24.2618448157473
1580423616.68693,-30.0602731364918,100.495918211643,-31.6472114137484
1580423616.69093,-55.0240329594874,98.2986190585184,-39.0936140993363
1580423616.69493,-74.5555809872587,96.1623559929808,-45.441367208362
1580423616.69893,-89.6925307087815,94.2702372777908,-49.9580376897841
1580423616.70293,-101.533531700618,93.0495155260551,-52.8877698939498
1580423616.70691,-109.895475700008,93.0495155260551,-54.2305638208591
1580423616.71091,-115.266651407645,94.0871290150303,-53.9864194705119
1580423616.71491,-117.952239261463,95.857175555047,-52.582589456016
1580423616.7189,-118.135347524224,97.7492942702374,-50.4463263904784
1580423616.7229,-116.182192721447,98.6037994964522,-47.2114137483788
1580423616.7269,-114.22903791867,99.2141603723203,-43.2440680552377
1580423616.7309,-111.787594415198,98.4206912336922,-40.0701915007248
1580423616.7349,-106.660563057908,94.9416342412451,-37.3846036469063
1580423616.7389,-97.4441138323034,90.730144197757,-34.3938353551539
1580423616.7429,-87.4952315556573,87.312123292897,-31.1589227130539
1580423616.7469,-78.7060349431601,85.0537880521861,-28.2291905088882
1580423616.7509,-70.466163118944,84.3823910887313,-25.6656748302432
1580423616.75489,-62.1042191195545,84.443427176318,-23.6514839398794
1580423616.75889,-54.0474555580988,84.5044632639051,-21.5762569619287
1580423616.76289,-46.4179446097505,84.1382467383842,-18.8296330205233
1580423616.76689,-38.1780727855346,83.4668497749294,-15.5947203784237
1580423616.77089,-29.6940566109711,81.9409475852599,-12.0546272983902
1580423616.77489,-21.3931486991683,79.8046845197223,-8.33142595559616
1580423616.77889,-13.3363851377126,77.4853131914247,-4.73029678797593
1580423616.78288,-5.40169375143046,75.0438696879532,-1.25123979552905
1580423616.7869,1.61745632104976,72.9076066224156,2.10574502174404
1580423616.79089,7.7821011673152,71.0154879072252,5.46272983901736
1580423616.79489,12.7260242618447,69.4895857175557,8.69764248111687
1580423616.79889,15.777828641184,67.9026474402995,11.8715190356297
1580423616.80289,17.0595864805066,66.4988174258033,14.6791790646218
1580423616.80689,16.6933699549859,64.6677347981995,17.6089112687876
1580423616.81089,15.1674677653161,62.7756160830095,20.2334630350194
1580423616.81489,12.5429159990845,60.9445334554052,22.4917982757304
1580423616.81888,8.88075074387734,58.9913786526281,24.4449530785075
1580423616.82288,3.99786373693451,57.1602960250248,26.1539635309375
1580423616.82688,-2.10574502174404,54.9019607843134,27.4967574578468
1580423616.83088,-8.5755703059433,52.4605172808419,28.5954070344089
1580423616.83488,-14.923323414969,49.9580376897839,29.8161287861446
1580423616.83888,-21.4541847867551,47.2724498359653,31.2809948882275
1580423616.84288,-27.3136491950866,44.4037537193865,33.1120775158311
1580423616.84688,-32.4406805523768,41.5350576028075,35.1262684061951
1580423616.85087,-37.1404592965591,38.4222171358815,37.4456397344929
1580423616.85487,-41.8402380407417,35.7366292820629,40.2532997634851
1580423616.85887,-45.8075837338827,33.2951857785915,43.1219958800639
1580423616.86287,-48.9204242008088,30.9147783627068,46.1738002594032
1580423616.86685,-51.0566872663462,28.6564431219958,49.4087129015029
1580423616.87085,-52.582589456016,26.2760357061111,52.8267338063629
1580423616.87485,-53.6812390325781,23.8956282902266,56.1226825360491
1580423616.87885,-54.6578164339667,21.8204013122759,59.4796673533224
1580423616.88285,-55.8785381857024,19.7451743343252,62.6535439078357
1580423616.88684,-57.5265125505455,17.6089112687876,65.5222400244147
1580423616.89084,-59.6017395284962,15.5336842908368,67.9636835278861
1580423616.89484,-61.8600747692074,13.7026016632333,70.2830548561838
1580423616.89884,-64.1794460975052,12.1156633859769,72.1751735713742
1580423616.90284,-66.5598535133897,10.8339055466545,73.9452201113909
1580423616.90684,-69.0012970168611,9.97940032043948,75.9594110017551
1580423616.91084,-71.625848783093,9.12489509422448,77.9125658045323
1580423616.91484,-74.1283283741511,8.6366063935302,79.9267566948961
1580423616.91883,-76.447699702449,8.75867856870377,81.8799114976732
1580423616.92283,-78.0346379797054,8.75867856870377,84.1382467383842
1580423616.92683,-78.5839627679866,9.06385900663759,86.5186541542689
1580423616.93083,-78.7670710307468,9.30800335698473,89.2042420080875
1580423616.93483,-78.5839627679866,9.67421988250544,92.1339742122532
1580423616.93883,-78.0956740672923,10.1014724956131,94.6974898908979
1580423616.94283,-77.607385366598,10.5897611963073,97.1389333943694
1580423616.94684,-76.6308079652094,11.0780498970016,99.5803768978408
1580423616.95084,-74.9828336003661,11.6273746852826,101.594567788205
1580423616.95484,-72.3582818341345,11.9935912108033,103.364614328222
1580423616.95883,-69.1233691920347,12.1766994735638,105.378805218586
1580423616.96283,-65.7053482871747,12.4818799114976,107.148851758602
1580423616.96683,-62.2873273823147,12.5429159990845,108.735790035859
1580423616.97083,-58.6251621271076,12.4208438239109,110.017547875181
1580423616.97483,-54.7188525215533,11.9325551232166,111.299305714504
1580423616.97883,-50.2632181277181,11.5663385976959,112.520027466239
1580423616.98283,-45.6244754711224,11.1390859845883,113.618677042802
1580423616.98683,-40.5584802014191,10.7118333714809,114.534218356604
1580423616.99082,-35.0652323186084,10.3456168459602,115.205615320058
1580423616.99482,-29.2057679102768,9.55214770733187,115.815976195926
1580423616.99882,-23.7125200274661,8.69764248111687,116.670481422141
1580423617.00282,-18.8906691081102,7.96520943007545,117.341878385595
1580423617.00682,-14.1908903639276,7.23277637903402,117.891203173876
1580423617.01082,-9.97940032043948,6.62241550316617,118.562600137331
1580423617.01482,-5.82894636453807,6.01205462729831,119.356069275959
1580423617.01882,-1.67849240863666,5.09651331349664,120.454718852522
1580423617.02281,2.28885328450451,3.99786373693451,121.980621042191
1580423617.02679,5.52376592660403,3.20439459830618,124.116884107729
1580423617.03079,7.35484855420759,3.02128633554594,126.009002822919
1580423617.03479,8.75867856870377,2.65506981002522,127.473868925002
1580423617.03879,10.5287251087204,1.55642023346309,128.08422980087
1580423617.04279,13.6415655756466,-0.091554131380235,128.26733806363
1580423617.04679,17.5478751812009,-1.67849240863666,128.08422980087
1580423617.05079,21.5152208743418,-2.7771419851988,127.412832837415
1580423617.05479,24.8722056916151,-3.81475547417404,126.497291523614
1580423617.05878,27.9240100709544,-5.03547722590974,125.459678034638
1580423617.06278,30.7316700999465,-6.68345159075307,123.872739757382
1580423617.06678,31.6472114137482,-8.27038986800949,122.224765392538
1580423617.07078,28.900587472343,-10.0404364080262,120.027466239414
1580423617.07478,22.4307621881437,-11.9325551232166,117.036697947662
1580423617.07878,12.9701686121919,-13.8246738384069,113.313496604868
1580423617.08278,1.80056458381023,-14.8622873273823,109.040970473793
1580423617.08677,-9.30800335698473,-15.0453955901426,104.524299992371
1580423617.09077,-19.195849546044,-14.6791790646218,100.373846036469
1580423617.09477,-27.191577019913,-13.4584573128861,96.3454642557413
1580423617.09877,-33.1120775158313,-11.8715190356297,92.6222629129475
1580423617.10277,-36.7132066834517,-10.8949416342411,89.3873502708479
1580423617.10678,-38.1780727855346,-9.97940032043948,86.0303654535746
1580423617.11078,-37.750820172427,-8.88075074387734,82.4902723735408
1580423617.11478,-35.5535210193027,-7.90417334248878,79.133287556268
1580423617.11878,-31.5861753261618,-6.86655985351331,76.264591439689
1580423617.12278,-26.0929274433508,-6.07309071488521,73.8231479362175
1580423617.12677,-19.6231021591516,-5.21858548867021,71.1985961699856
1580423617.13077,-12.7260242618447,-4.11993591210808,68.2688639658199
1580423617.13477,-5.7068741893645,-3.08232242313261,64.9729152361338
1580423617.13877,0.457770656900948,-2.7771419851988,61.249713893339
1580423617.14277,5.95101853971164,-2.65506981002522,56.9161516746776
1580423617.14677,10.7118333714809,-2.7161058976119,52.0332646677348
1580423617.15077,14.9843595025559,-3.20439459830618,46.4179446097503
1580423617.15477,19.1348134584573,-4.24200808728165,40.6195162890058
1580423617.15876,22.919050888838,-5.6458381017776,34.3938353551537
1580423617.16276,25.7877470054168,-6.68345159075307,27.9240100709544
1580423617.16676,27.3136491950866,-7.11070420386045,20.8438239108873
1580423617.17076,27.191577019913,-7.47692072938116,13.2753490501259
1580423617.17476,25.5436026550697,-7.29381246662092,5.03547722590974
1580423617.17876,22.7359426260775,-6.07309071488521,-3.99786373693451
1580423617.18276,19.4399938963911,-4.24200808728165,-13.4584573128861
1580423617.18674,15.8999008163576,-2.10574502174404,-23.5904478522925
1580423617.19073,13.0312046997788,0.457770656900948,-34.3938353551539
1580423617.19473,10.5897611963073,2.53299763485165,-45.2582589456017
1580423617.19873,8.14831769283592,3.99786373693451,-56.0616464484626
1580423617.20273,4.66926070038903,5.09651331349664,-66.3157091630426
1580423617.20673,-0.274662394140478,5.58480201419093,-75.7763027389944
1580423617.21073,-6.25619897764545,6.25619897764545,-84.443427176318
1580423617.21473,-13.3974212252995,7.17174029144735,-93.0495155260546
1580423617.21873,-21.2710765239947,7.72106507972831,-101.777676050965
1580423617.22272,-28.9616235599296,8.02624551766235,-110.444800488289
1580423617.22672,-35.7976653696498,8.14831769283592,-119.478141451133
1580423617.23072,-39.765011062791,8.5755703059433,-128.694590676738
1580423617.23472,-39.5208667124439,9.30800335698473,-137.911039902342
1580423617.23872,-35.1262684061953,10.0404364080262,-146.639200427252
1580423617.24272,-27.5577935454337,10.4066529335469,-154.451819638361
1580423617.24672,-18.4023804074159,10.955977721828,-161.043717097734
1580423617.25072,-9.61318379491877,11.2001220721752,-166.536964980545
1580423617.25472,-3.57061112382689,11.6273746852826,-171.053635461967
1580423617.25871,-0.457770656900948,12.7870603494316,-174.715800717174
1580423617.26271,0.213626306553806,14.5571068894483,-178.01174944686
1580423617.26672,-0.51880674448762,16.3881895170518,-181.24666208896
1580423617.27072,-1.31227588311594,17.9751277943083,-184.359502555886
1580423617.27472,-1.67849240863666,19.3179217212175,-187.106126497292
1580423617.27872,-2.59403372243833,20.6607156481268,-189.60860608835
1580423617.28272,-4.54718852521546,21.5152208743418,-191.927977416648
1580423617.28672,-7.11070420386045,21.6983291371023,-194.125276569772
1580423617.29072,-9.73525597009234,21.8814373998625,-195.956359197375
1580423617.29471,-11.6884107728695,22.5528343633173,-198.092622262913
1580423617.29871,-12.6039520866711,23.468375677119,-199.740596627756
1580423617.30271,-12.4818799114976,24.6890974288547,-200.839246204318
1580423617.30671,-11.505302510109,25.482566567483,-201.327534905012
1580423617.31071,-9.67421988250544,26.0318913557639,-201.57167925536
1580423617.31471,-7.47692072938116,26.3981078812847,-201.205462729839
1580423617.31871,-5.21858548867021,26.7643244068054,-200.04577706569
1580423617.32271,-3.38750286106665,27.191577019913,-198.458838788434
1580423617.3267,-1.49538414587619,27.1305409323261,-196.566720073243
1580423617.3307,0.885023270008332,27.191577019913,-194.125276569772
1580423617.3347,3.75371938658736,27.1305409323261,-191.378652628367
1580423617.3387,6.68345159075307,27.1305409323261,-187.960631723507
1580423617.3427,10.3456168459602,26.4591439688716,-183.566033417258
1580423617.34668,14.6791790646218,25.6046387426566,-178.500038147555
1580423617.35068,18.7075608453497,25.4215304798961,-173.189898527505
1580423617.35468,22.3086900129701,25.3604943923094,-167.696650644694
1580423617.35868,25.7267109178301,25.6046387426566,-162.08133058671
1580423617.36267,28.7785152971694,25.5436026550697,-156.466010528725
1580423617.36667,30.2433813992523,25.6046387426566,-150.423437857633
1580423617.37067,30.3654535744258,25.5436026550697,-144.136720836194
1580423617.37467,29.2668039978637,25.1773861295489,-137.483787289235
1580423617.37867,27.4357213702601,24.1397726405737,-130.586709391928
1580423617.38267,25.1773861295489,22.3086900129701,-123.445487144274
1580423617.38667,22.5528343633173,20.2944991226061,-115.877012283513
1580423617.39067,19.5620660715647,18.2803082322423,-107.820248722057
1580423617.39466,16.632333867399,16.0219729915311,-99.2141603723203
1580423617.39866,14.3129625391011,14.0077821011673,-89.9366750591287
1580423617.40266,10.8339055466545,15.777828641184,-81.8188754100861
1580423617.40666,5.82894636453807,35.9807736324101,-76.6918440527961
1580423617.41066,3.50957503624022,66.4988174258033,-69.4285496299688
1580423617.41466,8.02624551766235,91.9508659494927,-59.357595178149
1580423617.41866,25.8487830930037,123.994811932555,-50.0801098649576
1580423617.42266,37.2014953841458,139.253833829252,-43.5492484931717
1580423617.42667,49.4697489890896,125.764858472572,-41.1078049897003
1580423617.43067,31.2809948882275,72.1141374837875,-38.910505836576
1580423617.43466,-36.8352788586253,-9.73525597009234,-41.2298771648739
1580423617.43866,-118.318455786984,-42.9388876173039,-80.4760814831768
1580423617.44266,-233.798733501183,-17.1816586556802,-198.092622262913
1580423617.44666,-303.196765087358,-9.18593118181116,-318.760967421988
1580423617.45066,-137.544823376822,19.195849546044,-265.781643396658
1580423617.45466,78.4618905928132,16.8764782177461,-174.532692454414
1580423617.45866,154.512855725948,17.3037308308537,-133.699549858854
1580423617.46265,157.381551842527,27.8019378957808,-125.215533684291
1580423617.46665,159.151598382543,26.9474326695658,-122.896162355993
1580423617.47065,155.489433127336,19.9893186846723,-119.600213626307
1580423617.47465,134.493018997482,23.7125200274661,-114.168001831083
1580423617.47865,88.1666285191122,27.9240100709544,-111.787594415198
1580423617.48265,27.3136491950866,31.464103150988,-114.839398794537
1580423617.48665,-28.9616235599296,31.5861753261615,-119.295033188373
1580423617.49065,-68.207827878233,27.3136491950866,-125.093461509117
1580423617.49464,-90.7301441977568,21.5152208743418,-139.192797741665
1580423617.49864,-92.133974212253,15.4726482032502,-157.564660105287
1580423617.50264,-74.1283283741511,8.33142595559616,-164.339665827421
1580423617.50662,-46.4179446097505,4.8523689631495,-156.404974441138
1580423617.51062,-13.1532768749523,2.89921416037237,-141.93942168307
1580423617.51462,12.4208438239109,4.24200808728165,-127.656977187762
1580423617.51862,18.2192721446554,7.66002899214163,-115.693904020752
1580423617.52262,9.00282291905091,10.650797283894,-105.073624780652
1580423617.52662,-0.213626306553806,8.5755703059433,-93.7819485770963
1580423617.53061,-5.46272983901736,2.7771419851988,-81.574731059739
1580423617.53461,-6.07309071488521,-1.8616006713969,-70.0389105058366
1580423617.53861,-1.8616006713969,-2.34988937209118,-61.921110856794
1580423617.54261,5.6458381017776,-2.28885328450451,-59.7848477912567
1580423617.54661,20.050354772259,-4.66926070038903,-62.0431830319676
1580423617.55061,40.7415884641794,-6.86655985351331,-64.2404821850919
1580423617.55461,62.2262912947276,-8.20935378042259,-63.0807965209431
1580423617.55861,78.0956740672923,-10.7728694590676,-57.7706569008926
1580423617.5626,87.9835202563518,-13.7636377508202,-49.6528572518503
1580423617.5666,90.4249637598232,-15.8999008163576,-40.9857328145267
1580423617.5706,85.2368963149465,-17.6089112687876,-34.9431601434349
1580423617.5746,73.7621118486309,-21.210040436408,-32.7458609903106
1580423617.5786,58.6861982146943,-27.0695048447394,-33.9665827420463
1580423617.5826,41.4129854276339,-32.5627527275503,-37.3235675593196
1580423617.58661,19.0737773708704,-37.201495384146,-42.5116350041963
1580423617.59061,-7.66002899214163,-41.9623102159153,-49.9580376897841
1580423617.59461,-31.4030670634013,-47.6997024490731,-58.3199816891738
1580423617.5986,-44.3427176317998,-52.3384451056688,-63.8132295719845
1580423617.6026,-44.9530785076677,-53.9253833829252,-63.7521934843976
1580423617.6066,-37.4456397344932,-51.1787594415198,-59.0524147402152
1580423617.6106,-20.7217517357137,-46.6620889600977,-52.5215533684291
1580423617.6146,2.10574502174404,-42.6947432669567,-44.9530785076677
1580423617.6186,26.337071793698,-37.4456397344932,-36.896314946212
1580423617.6226,46.5400167849239,-30.4875257495994,-31.2199588006408
1580423617.6266,61.3717860685128,-24.6890974288547,-30.0602731364918
1580423617.63059,71.8699931334404,-21.8814373998625,-32.3186083772032
1580423617.63459,81.025406271458,-21.0879682612344,-34.9431601434349
1580423617.63859,85.1148241397727,-20.050354772259,-36.2859540703441
1580423617.64259,80.4150453955904,-19.195849546044,-37.750820172427
1580423617.64659,74.7386892500194,-19.3789578088044,-39.1546501869232
1580423617.65059,73.3958953231099,-20.2944991226061,-39.9481193255513
1580423617.65459,72.7244983596552,-20.5386434729533,-39.6429388876174
1580423617.65859,72.1141374837875,-18.5244525825894,-39.6429388876174
1580423617.66259,75.2269779507137,-16.9985503929197,-40.1922636758984
1580423617.66656,78.8281071183337,-15.8388647287709,-41.4129854276341
1580423617.67056,85.1758602273594,-14.3129625391011,-42.9388876173039
1580423617.67456,91.2184328984513,-12.1766994735638,-44.6478980697339
1580423617.67856,95.1247425040056,-10.2235446707866,-46.6620889600977
1580423617.68256,98.5427634088655,-9.4911116197452,-49.164568551156
1580423617.68656,102.510109102006,-8.51453421835663,-52.7046616311895
1580423617.69056,104.585336079957,-6.07309071488521,-57.9537651636531
1580423617.69456,102.265964751659,-2.7771419851988,-65.6443121995881
1580423617.69855,97.7492942702374,-0.885023270008332,-75.043869687953
1580423617.70255,96.5285725185017,-0.946059357595232,-85.0537880521858
1580423617.70655,97.5051499198903,-1.49538414587619,-94.0871290150303
1580423617.71055,96.1013199053941,-1.0681315327688,-102.510109102007
1580423617.71455,88.8990615701537,0.335698481727377,-111.482413977264
1580423617.71855,82.4902723735408,-0.457770656900948,-120.820935378042
1580423617.72255,81.025406271458,-1.12916762035547,-129.97634851606
1580423617.72655,81.6968032349127,-0.213626306553806,-139.864194705119
1580423617.73055,77.3022049286642,1.12916762035547,-150.179293507286
1580423617.73454,66.8650339513238,1.37331197070262,-159.945067521172
1580423617.73854,54.9019607843134,-0.0305180437933359,-168.429083695735
1580423617.74254,41.657129777981,-1.61745632104976,-175.570305943389
1580423617.74655,25.4215304798961,-3.26543068589308,-182.223239490349
1580423617.75055,7.17174029144735,-4.91340505073617,-189.059281300069
1580423617.75455,-8.81971465629044,-6.25619897764545,-196.078431372549
1580423617.75855,-16.2050812542916,-6.80552376592664,-202.792401007095
1580423617.76255,-13.0312046997788,-7.96520943007545,-209.079118028534
1580423617.76654,-2.34988937209118,-9.79629205767901,-214.999618524452
1580423617.77054,11.6273746852826,-12.4818799114976,-220.248722056916
1580423617.77454,25.3604943923094,-16.3271534294652,-224.277103837644
1580423617.77854,33.9055466544594,-21.0879682612344,-227.512016479744
1580423617.78254,34.1496910048065,-21.8814373998625,-232.211795223926
1580423617.78654,30.1823453116654,-14.373998626688,-239.597161821927
1580423617.79054,31.2809948882275,-4.8523689631495,-248.264286259251
1580423617.79454,42.2064545662622,-1.25123979552905,-255.100328068971
1580423617.79853,59.357595178149,-2.10574502174404,-257.419699397269
1580423617.80253,75.6542305638209,-2.22781719691761,-255.405508506905
1580423617.80653,85.3589684901199,-1.9226367589838,-249.362935835813
1580423617.81053,87.861448081178,-2.04470893415737,-241.306172274357
1580423617.81453,86.7627985046161,-1.55642023346309,-233.188372625315
1580423617.81853,85.8472571908142,-0.335698481727377,-225.558861676967
1580423617.82253,85.7862211032275,1.12916762035547,-218.356603341726
1580423617.82651,84.5044632639051,2.16678110933094,-211.337453269245
1580423617.83051,80.842298008698,1.9226367589838,-204.928664072633
1580423617.8345,75.1659418631266,1.0070954451819,-198.702983138781
1580423617.8385,68.6350804913409,0.152590218966907,-192.294193942168
1580423617.8425,61.9211108567938,-0.396734569314049,-185.519188220035
1580423617.8465,54.9629968719005,-0.70191500724809,-178.316929884794
1580423617.8505,48.493171587701,-1.0070954451819,-170.870527199207
1580423617.8545,43.8544289311053,-1.0681315327688,-163.118944075685
1580423617.8585,40.3143358510717,-0.091554131380235,-154.757000076295
1580423617.8625,36.7132066834515,1.37331197070262,-145.906767376211
1580423617.86649,32.0134279392689,3.57061112382689,-136.873426413367
1580423617.87049,26.5812161440451,5.88998245212474,-127.229724574655
1580423617.87449,21.2710765239947,7.96520943007545,-116.426337071794
1580423617.87849,16.3881895170518,10.1014724956131,-104.585336079957
1580423617.88249,11.4442664225223,11.810482948043,-91.8287937743189
1580423617.88649,5.27962157625689,13.3974212252995,-78.5229266803997
1580423617.89049,-2.28885328450451,15.228503852903,-64.6066987106126
1580423617.89449,-10.2235446707866,16.8154421301595,-49.9580376897841
1580423617.89848,-16.8154421301595,18.2803082322423,-34.5159075303275
1580423617.90248,-22.3697261005568,19.2568856336309,-18.646524757763
1580423617.90649,-27.3746852826732,19.0127412832837,-2.16678110933094
1580423617.91049,-32.6848249027239,18.2192721446554,14.4960708018616
1580423617.91449,-39.459830624857,17.1816586556802,31.0978866254673
1580423617.91849,-47.6386663614862,16.4492256046387,47.5776302738993
1580423617.92249,-54.7798886091402,16.1440451667047,64.1794460975052
1580423617.92649,-60.6393530174716,16.2661173418783,81.2695506218051
1580423617.93049,-64.9118791485466,16.5102616922254,99.0920881971465
1580423617.93448,-66.6819256885633,16.8764782177461,117.891203173876
1580423617.93848,-65.4612039368276,17.4258030060273,136.934462500953
1580423617.94248,-60.7614251926452,18.5854886701761,155.916685740444
1580423617.94648,-53.0708781567103,19.1348134584573,174.715800717174
1580423617.95048,-46.6620889600977,19.2568856336309,193.02662699321
1580423617.95448,-43.9765011062791,20.4776073853666,210.605020218204
1580423617.95848,-42.4505989166096,22.5528343633173,226.901655603876
1580423617.96248,-43.1219958800641,24.0787365529868,242.282749675746
1580423617.96648,-45.6244754711224,24.6890974288547,256.015869382773
1580423617.97047,-48.4321355001146,24.9942778667887,268.589303425651
1580423617.97447,-50.6294346532388,25.6656748302432,280.491340505073
1580423617.97847,-51.5449759670405,26.4591439688716,292.14923323415
1580423617.98247,-51.9722285801481,26.8253604943923,304.051270313573
1580423617.98645,-52.7046616311895,28.2902265964751,315.953307392997
1580423617.99045,-54.9629968719005,30.609597924773,327.733272297246
1580423617.99445,-58.9303425650417,32.9900053406575,339.818417639429
1580423617.99845,-63.5080491340505,34.8210879682611,352.025635156786
1580423618.00244,-66.5598535133897,36.530098420691,363.988708323796
1580423618.00644,-66.7429617761502,38.0560006103608,375.829709315633
1580423618.01044,-63.2639047837033,39.2156862745096,386.755168993668
1580423618.01444,-57.0992599374381,40.2532997634851,396.7650873579
1580423618.01844,-50.019073777371,41.3519493400472,405.859464408331
1580423618.02244,-44.586861982147,42.511635004196,414.03830014496
1580423618.02644,-42.2064545662624,43.9765011062789,421.362630655375
1580423618.03044,-42.1454184786755,46.0517280842296,427.771419851988
1580423618.03444,-43.4882124055848,48.1879911497672,433.752956435492
1580423618.03843,-46.4179446097505,50.0190737773705,439.30724040589
1580423618.04243,-52.0332646677348,51.7891203173876,444.25116350042
1580423618.04643,-61.066605630579,53.1929503318834,448.462653543908
1580423618.05043,-71.8089570458533,54.2915999084457,452.002746623942
1580423618.05443,-81.9409475852597,54.2305638208591,455.420767528802
1580423618.05843,-89.6314946211946,53.1929503318834,459.021896696422
1580423618.06243,-94.453345540551,52.3384451056686,462.012664988174
1580423618.06644,-97.1389333943696,51.6670481422138,463.843747615778
1580423618.07044,-100.617990386816,50.7515068284119,464.087891966125
1580423618.07443,-107.026779583429,50.6904707408253,462.623025864042
1580423618.07843,-115.9380483711,50.0190737773705,458.960860608835
1580423618.08243,-127.718013275349,46.9062333104446,453.711757076372
1580423618.08643,-137.788967727169,42.5726710917829,447.608148317693
1580423618.09043,-142.977035172045,34.3327992675668,440.650034332799
1580423618.09443,-144.075684748608,21.9424734874494,433.447775997558
1580423618.09843,-145.845731288624,9.18593118181116,425.207904173342
1580423618.10242,-150.240329594873,-1.61745632104976,414.648661020829
1580423618.10642,-158.785381857023,-10.955977721828,401.52590218967
1580423618.11042,-169.28358892195,-18.7075608453497,387.121385519188
1580423618.11442,-179.72075989929,-25.7877470054168,372.411688410773
1580423618.11842,-187.777523460746,-32.7458609903106,357.885099565118
1580423618.12242,-188.998245212482,-39.0325780117496,342.687113756008
1580423618.12642,-182.040131227588,-44.6478980697339,326.32944228275
1580423618.13042,-167.696650644694,-49.0424963759824,308.140688181888
1580423618.13441,-148.836499580377,-52.2163729304953,287.998779278248
1580423618.13841,-128.572518501564,-54.4747081712062,266.025787747005
1580423618.14241,-111.848630502785,-55.0850690470741,242.710002288854
1580423618.14639,-102.998397802701,-53.6812390325781,218.783855954834
1580423618.15039,-101.167315175097,-50.3852903028917,194.247348744946
1580423618.15439,-101.777676050965,-45.6855115587091,168.429083695735
1580423618.15839,-99.580376897841,-40.8026245517663,141.145952544442
1580423618.16239,-91.8287937743189,-36.1638818951706,112.581063553826
1580423618.16639,-78.2177462424659,-31.3420309758146,83.5278858625165
1580423618.17038,-62.1042191195545,-26.9474326695658,54.9629968719005
1580423618.17438,-45.2582589456017,-22.7359426260775,27.4357213702601
1580423618.17838,-29.2668039978637,-18.1582360570687,1.37331197070262
1580423618.18238,-14.4350347142747,-13.3363851377126,-23.1631952391851
1580423618.18638,-1.55642023346309,-8.02624551766235,-46.4789806973374
1580423618.19038,7.17174029144735,-2.10574502174404,-69.3064774547952
1580423618.19438,12.2987716487373,3.63164721141379,-91.6456855115587
1580423618.19838,16.6933699549859,7.72106507972831,-112.947280079347
1580423618.20237,21.9424734874494,9.97940032043948,-132.478828107118
1580423618.20637,28.4122987716487,13.0312046997788,-151.827267872129
1580423618.21037,45.6244754711222,33.6614023041122,-172.213321126116
1580423618.21437,85.3589684901199,48.1879911497672,-178.377965972381
1580423618.21837,103.364614328222,35.9197375448232,-169.954985885405
1580423618.22237,128.389410238804,23.773556115053,-163.302052338445
1580423618.22638,167.57457846952,-0.579842832074519,-151.216906996262
1580423618.23038,187.228198672465,-45.746547646296,-132.356755931945
1580423618.23438,146.578164339666,-76.6918440527961,-113.313496604868
1580423618.23837,40.8636606393529,-48.4931715877012,-127.656977187762
1580423618.24237,-38.8494697489891,11.0780498970016,-172.396429388876
1580423618.24637,-89.8756389715418,51.4229037918667,-219.028000305181
1580423618.25037,-137.361715114061,68.6961165789276,-254.795147631037
1580423618.25437,-196.322575722896,62.4704356450748,-280.430304417487
1580423618.25837,-271.64110780499,43.4882124055846,-305.577172503243
1580423618.26237,-333.714808880751,32.8068970778972,-357.763027389944
1580423618.26637,-331.761654077974,12.2377355611504,-411.77996490425
1580423618.27036,-252.964065003433,2.53299763485165,-385.717555504692
1580423618.27436,-161.959258411536,11.2611581597619,-350.865949492638
1580423618.27836,-73.2127870603495,36.7132066834515,-317.662317845426
1580423618.28236,-14.6181429770352,62.592507820249,-291.721980621042
1580423618.28636,9.55214770733187,60.9445334554052,-273.35011825742
1580423618.29036,-6.62241550316617,50.5683985656519,-262.363622491798
1580423618.29436,-45.3192950331884,49.65285725185,-255.039291981384
1580423618.29836,-64.6066987106126,49.2866407263291,-246.1890592813
1580423618.30235,-43.4271763179981,51.8501564049743,-234.103913939117
1580423618.30633,8.51453421835663,51.7280842298005,-217.624170290684
1580423618.31033,55.1461051346605,50.0190737773705,-204.684519722286
1580423618.31433,87.1290150301365,48.6152437628748,-198.51987487602
1580423618.31833,110.688944838636,45.8686198214693,-195.10185397116
1580423618.32233,125.459678034638,46.3569085221636,-190.096894789044
1580423618.32633,123.567559319448,46.784161135271,-184.786755168994
1580423618.33033,109.346150911726,41.2909132524603,-181.0635538262
1580423618.33433,79.4995040817885,35.0041962310215,-179.35454337377
1580423618.33833,40.3143358510717,30.1823453116654,-178.500038147555
1580423618.34232,9.85732814526591,30.4264896620125,-176.424811169604
1580423618.34632,-7.90417334248878,31.4030670634011,-173.800259403372
1580423618.35032,-16.083009079118,28.9616235599296,-171.847104600595
1580423618.35432,-17.3647669184404,22.3697261005568,-170.077058060578
1580423618.35832,-12.1156633859769,17.486839093614,-165.987640192264
1580423618.36232,0.274662394140478,15.6557564660104,-159.212634470131
1580423618.36632,10.7118333714809,14.8622873273823,-151.583123521782
1580423618.37031,19.1348134584573,14.1298542763409,-144.258793011368
1580423618.37431,20.2944991226061,14.1908903639276,-138.765545128557
1580423618.37831,16.3271534294652,13.8857099259938,-135.774776836805
1580423618.38231,8.45349813076973,12.0546272983902,-134.248874647135
1580423618.38632,2.53299763485165,9.24696726939806,-132.600900282292
1580423618.39032,-1.61745632104976,7.29381246662092,-128.694590676738
1580423618.39432,-4.91340505073617,6.13412680247188,-123.628595407034
1580423618.39832,-8.27038986800949,2.53299763485165,-117.402914473182
1580423618.40232,-3.57061112382689,-2.53299763485165,-108.796826123445
1580423618.40631,10.1625085831997,-4.42511635004189,-95.9792477302205
1580423618.41031,25.2384222171358,-2.04470893415737,-82.7954528114747
1580423618.41431,35.9807736324101,-0.70191500724809,-72.9076066224154
1580423618.41831,42.6947432669565,-3.20439459830618,-65.7053482871747
1580423618.42231,47.4555580987258,-6.68345159075307,-58.9913786526283
1580423618.42631,49.4697489890896,-7.96520943007545,-52.7656977187762
1580423618.43031,48.493171587701,-9.12489509422448,-48.4321355001146
1580423618.43431,45.4413672083617,-11.6884107728695,-45.2582589456017
1580423618.4383,43.4271763179979,-14.9843595025559,-41.474021515221
1580423618.4423,40.3753719386586,-16.937514305333,-37.0183871213856
1580423618.4463,36.1638818951703,-18.1582360570687,-33.783474479286
1580423618.4503,33.3562218661782,-19.8672465094987,-31.769283588922
1580423618.4543,37.5677119096665,-21.3931486991683,-28.7785152971694
1580423618.4583,47.3945220111389,-20.2944991226061,-23.468375677119
1580423618.4623,55.5733577477681,-19.501029983978,-17.9140917067216
1580423618.46628,57.4654764629586,-20.7827878233004,-14.7402151522087
1580423618.47028,58.747234302281,-22.9800869764247,-14.0077821011673
1580423618.47427,60.5172808422976,-22.9800869764247,-13.7026016632333
1580423618.47827,62.3483634699014,-20.6607156481268,-13.7026016632333
1580423618.48227,68.3909361409937,-17.6699473563745,-13.9467460135804
1580423618.48627,80.3540093080037,-14.6791790646218,-12.7870603494316
1580423618.49027,96.2233920805679,-10.4066529335469,-8.02624551766235
1580423618.49427,112.642099641413,-4.30304417486832,-1.19020370794237
1580423618.49827,126.802471961547,1.67849240863666,4.11993591210808
1580423618.50227,137.239642938888,5.34065766384379,6.19516289005878
1580423618.50626,146.150911726558,7.23277637903402,5.40169375143046
1580423618.51026,153.109025711452,8.51453421835663,2.59403372243833
1580423618.51426,157.686732280461,10.5897611963073,-1.55642023346309
1580423618.51826,159.273670557717,12.1156633859769,-6.68345159075307
1580423618.52226,164.950026703288,12.6039520866711,-10.650797283894
1580423618.52626,175.082017242695,12.664988174258,-11.8715190356297
1580423618.53026,183.016708628977,13.214312962539,-12.4818799114976
1580423618.53426,185.641260395209,13.6415655756466,-14.8012512397954
1580423618.53825,183.382925154498,12.4208438239109,-18.646524757763
1580423618.54225,180.392156862745,9.36903944457163,-22.7359426260775
1580423618.54626,178.19485770962,6.80552376592664,-27.0084687571525
1580423618.55026,172.152285038529,5.88998245212474,-32.5627527275503
1580423618.55426,160.494392309453,5.95101853971164,-40.2532997634853
1580423618.55826,146.334019989319,6.31723506523235,-50.3242542153048
1580423618.56226,132.600900282292,6.07309071488521,-62.5925078202488
1580423618.56626,117.402914473182,4.36408026245522,-77.2411688410773
1580423618.57026,100.556954299229,0.885023270008332,-93.9650568398567
1580423618.57426,85.8472571908142,-3.20439459830618,-111.726558327611
1580423618.57825,73.8231479362175,-5.46272983901736,-128.755626764324
1580423618.58225,62.9587243457695,-4.11993591210808,-145.052262149996
1580423618.58625,52.0943007553215,-1.19020370794237,-161.409933623255
1580423618.59025,39.948119325551,-3.50957503624022,-177.218280308232
1580423618.59425,23.8956282902266,-7.53795681696806,-194.247348744945
1580423618.59825,-0.885023270008332,-9.79629205767901,-212.497138933394
1580423618.60225,-34.2717631799803,-8.75867856870377,-230.62485694667
1580423618.60625,-66.4377813382162,-6.07309071488521,-247.531853208209
1580423618.61024,-85.5420767528801,-2.89921416037237,-261.997405966277
1580423618.61424,-87.3121232928968,-0.70191500724809,-272.983901731899
1580423618.61824,-72.6634622720683,-0.762951094834762,-279.270618753338
1580423618.62224,-45.6244754711224,-1.73952849622333,-279.880979629206
1580423618.62622,-22.1866178377966,-5.34065766384379,-277.012283512627
1580423618.63022,-13.519493400473,-6.62241550316617,-275.120164797436
1580423618.63422,-11.4442664225223,0.885023270008332,-276.95124742504
1580423618.63822,-3.26543068589308,12.1156633859769,-282.139314869917
1580423618.64222,14.4350347142747,17.3647669184404,-287.327382314794
1580423618.64621,38.3611810482946,16.4492256046387,-288.670176241703
1580423618.65021,62.9587243457695,13.5805294880597,-283.726253147173
1580423618.65421,84.9317158770123,9.4911116197452,-272.922865644312
1580423618.65821,100.373846036469,7.17174029144735,-259.006637674525
1580423618.66221,108.735790035859,6.98863202868688,-244.541084916457
1580423618.66621,111.848630502785,9.4911116197452,-230.685893034257
1580423618.67021,110.933089188983,13.8857099259938,-217.929350728618
1580423618.6742,105.012588693065,18.4023804074159,-205.783169298848
1580423618.6782,93.4157320515756,22.7359426260775,-194.9187457084
1580423618.6822,76.3866636148623,27.9850461585411,-185.641260395209
1580423618.6862,54.0474555580986,33.7834744792858,-177.096208133059
1580423618.6902,30.609597924773,38.4222171358815,-168.490119783322
1580423618.6942,11.6273746852826,41.2298771648736,-158.358129243916
1580423618.6982,-0.335698481727377,42.511635004196,-145.601586938277
1580423618.7022,-4.97444113832307,42.4505989166094,-129.365987640192
1580423618.70621,-4.60822461280236,41.3519493400472,-110.99412527657
1580423618.71021,-1.61745632104976,40.0091554131379,-91.7067215991453
1580423618.7142,0.640878919661191,38.3611810482946,-72.7244983596552
1580423618.7182,0.51880674448762,36.5911345082779,-55.146105134661
1580423618.7222,-1.80056458381023,35.3704127565422,-38.8494697489891
1580423618.7262,-5.52376592660403,34.2717631799801,-23.8345922026397
1580423618.7302,-9.97940032043948,33.2951857785915,-9.55214770733187
1580423618.7342,-14.5571068894483,32.5017166399632,4.60822461280236
1580423618.7382,-20.1724269474325,31.1589227130539,19.0737773708704
1580423618.7422,-26.7032883192187,28.7785152971694,34.882124055848
1580423618.74619,-32.928969253071,25.3604943923094,52.5215533684291
1580423618.75019,-38.5442893110553,21.5762569619287,72.9686427100023
1580423618.75419,-43.7933928435189,18.0971999694818,95.7351033798736
1580423618.75819,-48.6152437628748,14.6791790646218,120.393682764935
1580423618.76219,-51.6060120546274,11.4442664225223,145.662623025864
1580423618.76619,-52.5215533684291,8.39246204318306,170.626382848859
1580423618.77019,-52.1553368429084,5.82894636453807,194.125276569772
1580423618.77419,-51.1787594415198,3.93682764934761,215.609979400321
1580423618.77818,-49.9580376897841,2.65506981002522,234.775310902571
1580423618.78218,-48.5542076752881,2.16678110933094,252.170595864805
1580423618.78616,-47.2114137483788,2.47196154726475,268.162050812543
1580423618.79016,-47.2724498359655,3.26543068589308,283.299000534066
1580423618.79416,-48.4931715877012,4.11993591210808,298.252841992828
1580423618.79816,-50.2632181277181,5.15754940108332,312.718394750897
1580423618.80216,-52.8877698939498,5.6458381017776,326.878767071031
1580423618.80616,-56.4888990615702,5.82894636453807,340.00152590219
1580423618.81015,-60.5172808422981,6.07309071488521,352.269779507134
1580423618.81415,-64.8508430609597,6.74448767833974,363.561455710689
1580423618.81815,-68.8181887541009,7.90417334248878,374.059662775616
1580423618.82215,-71.320668345159,9.36903944457163,384.130617227436
1580423618.82615,-72.6024261844816,10.8949416342411,393.530174715801
1580423618.83015,-73.4569314106966,11.810482948043,402.502479591058
1580423618.83415,-75.2880140383002,12.4818799114976,410.925459678035
1580423618.83815,-80.8422980086975,12.664988174258,418.860151064317
1580423618.84215,-87.2510872053101,13.3974212252995,426.855878538186
1580423618.84614,-95.0637064164189,12.5429159990845,435.339894712749
1580423618.85014,-102.937361715114,10.4066529335469,444.556343938354
1580423618.85414,-112.336919203479,8.14831769283592,453.833829251545
1580423618.85814,-120.210574502174,7.35484855420759,462.806134126803
1580423618.86214,-123.994811932555,5.95101853971164,471.534294651713
1580423618.86615,-122.835126268406,4.24200808728165,480.079346913863
1580423618.87015,-119.72228580148,5.76791027695117,486.488136110475
1580423618.87415,-116.243228809033,9.97940032043948,489.600976577402
1580423618.87815,-115.815976195926,14.4960708018616,489.539940489815
1580423618.88214,-121.309224078737,17.9751277943083,486.793316548409
1580423618.88614,-127.107652399481,21.210040436408,481.788357366293
1580423618.89014,-129.121843289845,21.4541847867551,474.891279468986
1580423618.89414,-128.328374151217,17.9751277943083,467.750057221332
1580423618.89814,-127.351796749828,12.9091325246052,459.81536583505
1580423618.90214,-129.182879377432,7.04966811627378,450.598916609445
1580423618.90614,-137.178606851301,1.25123979552905,439.795529106585
1580423618.91014,-148.104066529335,-3.75371938658736,427.588311589227
1580423618.91413,-159.945067521172,-7.66002899214163,414.404516670481
1580423618.91813,-172.396429388876,-11.0780498970016,401.159685664149
1580423618.92213,-181.979095140002,-13.5805294880597,387.914854657816
1580423618.92613,-186.434729533837,-15.6557564660104,374.18173495079
1580423618.93013,-184.84779125658,-18.0361638818952,359.533073929961
1580423618.93413,-176.668955519951,-20.904859998474,343.297474631876
1580423618.93813,-162.996871900511,-24.2618448157473,325.169756618601
1580423618.94213,-148.470283054856,-27.6798657206073,304.783703364614
1580423618.94611,-137.850003814755,-30.7927061875332,282.322423132677
1580423618.9501,-132.784008545052,-33.5393301289389,257.724879835203
1580423618.9541,-131.746395056077,-36.5911345082782,230.869001297017
1580423618.9581,-130.403601129168,-40.4974441138324,202.121004043641
1580423618.9621,-124.299992370489,-43.2440680552377,171.969176775769
1580423618.9661,-109.040970473793,-42.9999237048905,141.512169069963
1580423618.9701,-83.9551384756237,-39.8870832379646,112.153810940719
1580423618.9741,-52.7046616311895,-34.332799267567,84.5044632639051
1580423618.9781,-21.5152208743418,-26.8253604943923,59.2355230029752
1580423618.98209,5.34065766384379,-18.1582360570687,35.6145571068894
1580423618.98609,25.1773861295489,-10.2235446707866,12.0546272983902
1580423618.99009,38.1170366979475,-4.24200808728165,-12.5429159990845
1580423618.99409,44.6478980697336,-0.396734569314049,-38.7273975738156
1580423618.99809,45.0141145952543,2.89921416037237,-65.6443121995881
1580423619.00209,40.6195162890058,5.58480201419093,-92.7443350881208
1580423619.00609,35.3093766689553,7.04966811627378,-118.379491874571
1580423619.01009,32.8068970778972,8.02624551766235,-141.145952544442
1580423619.01408,35.4314488441289,16.5102616922254,-163.546196688792
1580423619.01808,50.3242542153048,29.5109483482108,-182.284275577935
1580423619.02208,71.5037766079195,34.027618829633,-193.698023956664
1580423619.02609,91.1573968108646,35.5535210193025,-194.674601358053
1580423619.03009,96.1623559929808,27.6188296330204,-189.60860608835
1580423619.03409,123.018234531166,26.2149996185244,-180.575265125505
1580423619.03809,153.170061799039,9.24696726939806,-170.016021972992
1580423619.04209,172.640573739223,-18.2803082322423,-156.466010528725
1580423619.04609,133.943694209201,-37.6287479972534,-137.666895551995
1580423619.05008,48.7983520256348,-22.8580148012511,-134.187838559548
1580423619.05408,-15.8388647287709,19.9893186846723,-154.207675288014
1580423619.05808,-64.8508430609597,52.3994811932553,-184.420538643473
1580423619.06208,-120.332646677348,71.2596322575723,-218.112458991379
1580423619.06608,-182.406347753109,74.9217975127794,-250.766765850309
1580423619.07008,-249.301899748226,57.8927290760662,-284.702830548562
1580423619.07408,-321.56862745098,40.1312275883115,-333.897917143511
1580423619.07808,-357.45784695201,29.3888761730373,-409.033340962844
1580423619.08207,-260.654612039368,16.5712977798123,-397.436484321355
1580423619.08607,-101.655603875792,19.1348134584573,-352.086671244373
1580423619.09007,37.0183871213853,32.3796444647896,-307.53032730602
1580423619.09407,113.374532692455,49.8970016021972,-278.233005264362
1580423619.09807,133.882658121614,62.6535439078357,-257.96902418555
1580423619.10207,118.379491874571,70.0389105058366,-240.695811398489
1580423619.10605,71.5648126955066,64.7287708857866,-225.31471732662
1580423619.11005,-3.44853894865332,48.8593881132219,-220.798046845197
1580423619.11405,-75.593194476234,38.1780727855344,-223.056382085908
1580423619.11804,-111.116197451743,42.9999237048903,-218.478675516899
1580423619.12204,-96.8947890440224,57.5875486381319,-207.125963225757
1580423619.12604,-44.1596093690396,65.6443121995881,-198.092622262913
1580423619.13004,19.6841382467383,59.8458838788433,-195.10185397116
1580423619.13404,59.8458838788433,48.0048828870067,-194.979781795987
1580423619.13804,79.5605401693751,41.2298771648736,-193.575951781491
1580423619.14204,74.3114366369118,43.0609597924772,-190.829327840085
1580423619.14604,50.5073624780648,43.366140230411,-188.937209124895
1580423619.15003,21.0269321736475,44.2816815442129,-186.55680170901
1580423619.15403,-2.10574502174404,45.2582589456015,-181.185626001373
1580423619.15803,-14.0077821011673,45.9906919966429,-172.762645914397
1580423619.16203,-14.5571068894483,42.0843823910886,-163.79034103914
1580423619.16603,-7.53795681696806,32.9289692530708,-153.414206149386
1580423619.17003,6.43930724040592,25.1773861295489,-139.253833829252
1580423619.17403,24.4449530785075,25.2994583047225,-122.407873655299
1580423619.17803,43.6102845807582,29.3278400854504,-108.003356984817
1580423619.18202,58.0758373388262,31.9523918516823,-99.1531242847334
1580423619.186,63.3249408712904,33.173113603418,-96.6506446936753
1580423619.19,61.9211108567938,31.0978866254673,-97.871366445411
1580423619.194,56.1226825360491,27.0084687571525,-100.862134737163
1580423619.198,45.0141145952543,22.1866178377966,-104.768444342718
1580423619.202,29.5109483482108,15.777828641184,-108.064393072404
1580423619.206,16.083009079118,7.23277637903402,-107.270923933776
1580423619.21,11.0170138094147,1.12916762035547,-100.434882124056
1580423619.214,13.6415655756466,0.457770656900948,-90.2418554970625
1580423619.21799,17.792019531548,0.823987182421661,-80.8422980086975
1580423619.22199,24.1397726405737,-3.26543068589308,-72.2972457465476
1580423619.22599,32.6848249027237,-7.7821011673152,-62.6535439078355
1580423619.22999,39.7650110627908,-8.02624551766235,-53.437094682231
1580423619.23399,39.5208667124436,-7.47692072938116,-47.9438467994203
1580423619.23799,33.7224383916989,-12.4208438239109,-45.746547646296
1580423619.24199,29.6940566109711,-19.6231021591516,-42.8168154421303
1580423619.24599,29.755092698558,-22.7359426260775,-37.201495384146
1580423619.24998,29.2057679102768,-22.2476539253832,-32.2575722896163
1580423619.25398,30.7316700999465,-24.2008087281604,-29.2057679102768
1580423619.25798,38.4832532234682,-28.2291905088882,-24.2618448157473
1580423619.26198,52.7046616311891,-28.7785152971694,-15.1064316777295
1580423619.26599,65.5222400244147,-25.4215304798961,-5.09651331349664
1580423619.26999,69.7337300679028,-24.2008087281604,1.67849240863666
1580423619.27399,70.0389105058366,-27.1305409323261,4.42511635004189
1580423619.27799,70.8323796444652,-30.1823453116654,5.40169375143046
1580423619.28199,71.8699931334404,-29.9382009613182,6.01205462729831
1580423619.28598,73.1517509727628,-28.1071183337147,5.03547722590974
1580423619.28998,78.7060349431604,-27.4357213702601,2.89921416037237
1580423619.29398,88.8380254825665,-27.0695048447394,2.83817807278547
1580423619.29798,100.068665598535,-24.8722056916151,6.07309071488521
1580423619.30198,108.308537422751,-20.4776073853666,10.1625085831997
1580423619.30598,112.275883115892,-17.1206225680933,12.1766994735638
1580423619.30998,114.351110093843,-16.632333867399,11.810482948043
1580423619.31398,116.365300984207,-17.0595864805066,10.7728694590676
1580423619.31798,119.172961013199,-16.5102616922254,9.30800335698473
1580423619.32197,122.041657129778,-16.0219729915311,7.29381246662092
1580423619.32597,123.323414969101,-15.8388647287709,4.54718852521546
1580423619.32997,124.483100633249,-15.7167925535973,1.67849240863666
1580423619.33397,126.741435873961,-14.9843595025559,-0.457770656900948
1580423619.33797,128.755626764324,-13.9467460135804,-1.98367284657047
1580423619.34197,130.342565041581,-13.3974212252995,-3.63164721141379
1580423619.34598,131.746395056077,-14.1298542763409,-5.15754940108332
1580423619.34998,133.455405508507,-15.9609369039445,-6.13412680247188
1580423619.35397,134.676127260243,-17.3647669184404,-6.43930724040592
1580423619.35797,134.493018997482,-17.4258030060273,-7.04966811627378
1580423619.36197,132.539864194705,-17.2426947432668,-9.00282291905091
1580423619.36597,128.938735027085,-17.1206225680933,-12.7870603494316
1580423619.36997,123.262378881514,-16.5712977798123,-19.0737773708704
1580423619.37397,113.984893568322,-16.4492256046387,-28.5954070344089
1580423619.37797,102.571145189594,-17.6699473563745,-41.0467689021134
1580423619.38197,92.8053711757079,-21.0879682612344,-55.6343938353552
1580423619.38596,85.1148241397727,-24.4449530785075,-70.9544518196383
1580423619.38996,77.4853131914247,-26.7032883192187,-87.861448081178
1580423619.39396,70.588235294118,-27.7409018081939,-106.233310444801
1580423619.39796,66.0715648126957,-27.6798657206073,-125.154497596704
1580423619.40196,64.6677347981995,-25.6656748302432,-143.587396047913
1580423619.40596,63.14183260853,-23.468375677119,-160.189211871519
1580423619.40996,55.2681773098343,-21.9424734874494,-174.22751201648
1580423619.41396,38.7273975738153,-19.9282825970854,-186.312657358663
1580423619.41795,17.0595864805066,-17.2426947432668,-196.688792248417
1580423619.42195,-6.07309071488521,-14.6791790646218,-205.050736247807
1580423619.42593,-26.2149996185244,-13.7026016632333,-212.436102845807
1580423619.42993,-41.9012741283284,-12.7870603494316,-220.126649881743
1580423619.43393,-54.1695277332724,-11.1390859845883,-229.770351720455
1580423619.43793,-59.2965590905624,-10.0404364080262,-240.695811398489
1580423619.44193,-58.0758373388267,-10.1014724956131,-251.49919890135
1580423619.44593,-53.7422751201648,-8.45349813076973,-260.288395513847
1580423619.44993,-46.7231250476846,-5.76791027695117,-265.781643396658
1580423619.45392,-37.4456397344932,-3.87579156176093,-268.650339513237
1580423619.45792,-30.3044174868389,-0.091554131380235,-271.457999542229
1580423619.46192,-27.9850461585411,7.59899290455473,-275.486381322957
1580423619.46592,-25.7267109178301,16.937514305333,-280.979629205768
1580423619.46992,-17.6089112687876,22.9800869764247,-286.900129701686
1580423619.47392,-5.15754940108332,22.919050888838,-290.80643930724
1580423619.47792,4.97444113832307,17.2426947432668,-290.745403219654
1580423619.48192,10.4066529335469,7.90417334248878,-287.083237964447
1580423619.48591,12.359807736324,-2.59403372243833,-280.491340505074
1580423619.48991,13.214312962539,-11.9325551232166,-271.64110780499
1580423619.49391,14.8622873273823,-17.486839093614,-260.959792477302
1580423619.49791,18.4634164950025,-19.6841382467383,-248.508430609598
1580423619.50191,23.4073395895323,-19.2568856336309,-234.592202639811
1580423619.50592,28.7785152971694,-16.8154421301595,-219.333180743115
1580423619.50992,34.5159075303272,-12.4818799114976,-203.097581445029
1580423619.51392,39.5208667124436,-7.29381246662092,-186.068513008316
1580423619.51792,43.2440680552374,-3.08232242313261,-169.832913710231
1580423619.52191,43.9765011062789,-0.091554131380235,-154.08560311284
1580423619.52591,40.802624551766,1.98367284657047,-138.33829251545
1580423619.52991,33.8445105668725,4.24200808728165,-122.163729304952
1580423619.53391,22.919050888838,7.72106507972831,-105.745021744106
1580423619.53791,7.23277637903402,10.5897611963073,-89.1432059205003
1580423619.54191,-7.7821011673152,12.359807736324,-72.3582818341345
1580423619.54591,-21.5152208743418,16.0219729915311,-55.6343938353552
1580423619.54991,-33.5393301289389,19.2568856336309,-38.8494697489891
1580423619.55391,-41.1078049897003,19.1348134584573,-22.0035095750361
1580423619.5579,-43.2440680552377,17.792019531548,-4.66926070038903
1580423619.5619,-42.023346303502,17.6089112687876,12.5429159990845
1580423619.5659,-40.4974441138324,17.9751277943083,29.5719844357975
1580423619.5699,-40.5584802014191,18.0971999694818,46.1738002594032
1580423619.5739,-43.2440680552377,17.9751277943083,62.5314717326623
1580423619.5779,-47.2114137483788,17.2426947432668,78.2177462424661
1580423619.5819,-48.4321355001146,15.5947203784237,93.7819485770965
1580423619.58588,-44.6478980697339,13.3363851377126,109.895475700008
1580423619.58987,-36.8352788586253,9.55214770733187,126.37521934844
1580423619.59387,-25.7267109178301,4.91340505073617,143.709468223087
1580423619.59787,-13.8246738384069,0.0305180437933359,161.898222323949
1580423619.60187,-5.09651331349664,-4.54718852521546,181.42977035172
1580423619.60587,0.579842832074519,-8.69764248111687,201.876859693294
1580423619.60987,4.7913328755626,-11.9935912108033,223.422598611429
1580423619.61387,7.53795681696806,-14.6181429770352,245.395590142672
1580423619.61787,8.27038986800949,-16.3881895170518,266.69718471046
1580423619.62187,6.86655985351331,-16.9985503929197,286.350804913405
1580423619.62586,2.7771419851988,-16.8764782177461,303.685053788052
1580423619.62986,-3.44853894865332,-15.8388647287709,319.310292210269
1580423619.63386,-10.8949416342411,-13.9467460135804,333.531700617991
1580423619.63786,-18.9517051956968,-11.2001220721752,346.593423361563
1580423619.64186,-26.9474326695658,-7.7821011673152,358.922713054093
1580423619.64586,-32.928969253071,-4.48615243762879,370.214389257649
1580423619.64986,-35.4314488441291,-1.61745632104976,380.956740672923
1580423619.65385,-34.4548714427406,1.25123979552905,391.27183947509
1580423619.65785,-30.4875257495994,3.20439459830618,401.159685664149
1580423619.66185,-24.9942778667887,4.8523689631495,410.25406271458
1580423619.66586,-20.7217517357137,6.92759594110021,418.371862363622
1580423619.66986,-19.8672465094987,9.24696726939806,425.696192874037
1580423619.67386,-21.5152208743418,12.1156633859769,432.532234683757
1580423619.67786,-24.8722056916151,14.6791790646218,439.12413214313
1580423619.68186,-29.5719844357975,16.4492256046387,445.838101777676
1580423619.68586,-37.0794232089725,18.1582360570687,452.368963149462
1580423619.68985,-45.0141145952546,22.4917982757304,458.045319295034
1580423619.69385,-54.291599908446,26.5812161440451,462.867170214389
1580423619.69785,-61.1276417181659,27.0084687571525,466.834515907531
1580423619.70185,-69.4285496299688,29.755092698558,469.520103761349
1580423619.70585,-80.2319371328297,33.173113603418,469.092851148242
1580423619.70985,-92.7443350881208,35.7366292820629,465.674830243382
1580423619.71385,-104.890516517891,38.4222171358815,459.876401922637
1580423619.71785,-113.313496604868,40.1922636758982,452.124818799115
1580423619.72184,-119.478141451133,37.1404592965589,442.175936522469
1580423619.72584,-125.337605859464,33.2341496910046,430.090791180285
1580423619.72984,-131.441214618143,30.3044174868389,415.991454947738
1580423619.73384,-142.061493858244,23.2242313267718,401.403830014496
1580423619.73784,-157.503624017701,17.0595864805066,387.182421606775
1580423619.74184,-175.387197680629,12.7260242618447,373.144121461814
1580423619.74582,-192.904554818036,8.5755703059433,359.655146105135
1580423619.74982,-206.759746700237,5.40169375143046,346.471351186389
1580423619.75382,-214.511329823758,2.83817807278547,333.16548409247
1580423619.75781,-215.42687113756,-0.091554131380235,319.432364385443
1580423619.76181,-206.515602349889,-2.89921416037237,304.29541466392
1580423619.76581,-188.021667811093,-5.46272983901736,287.57152666514
1580423619.76981,-163.241016250858,-9.4300755321583,269.748989089799
1580423619.77381,-134.798199435416,-13.8246738384069,251.13298237583
1580423619.77781,-106.172274357214,-17.5478751812009,232.51697566186
1580423619.78181,-81.4526588845654,-20.8438239108873,213.229571984436
1580423619.78581,-59.357595178149,-23.8345922026397,192.050049591821
1580423619.7898,-40.9857328145267,-25.6046387426566,168.062867170214
1580423619.7938,-28.4122987716487,-26.337071793698,141.878385595483
1580423619.7978,-17.1816586556802,-26.2149996185244,115.327687495232
1580423619.8018,-6.01205462729831,-24.2008087281604,89.8756389715422
1580423619.8058,3.44853894865332,-19.0127412832837,64.9118791485466
1580423619.8098,14.068818188754,-11.9325551232166,40.2532997634851
1580423619.8138,25.7877470054168,-4.8523689631495,15.9609369039445
1580423619.8178,34.2717631799801,-0.335698481727377,-8.20935378042259
1580423619.82179,34.5769436179139,1.0070954451819,-32.2575722896163
1580423619.8258,24.9332417792018,0.274662394140478,-56.1226825360495
1580423619.8298,9.18593118181116,-1.80056458381023,-79.2553597314411
1580423619.8338,-7.23277637903402,-3.57061112382689,-100.55695429923
1580423619.8378,-20.1113908598459,2.16678110933094,-121.980621042191
1580423619.8418,-25.5436026550697,17.6089112687876,-141.817349507897
1580423619.8458,-27.191577019913,23.9566643778132,-156.527046616312
1580423619.8498,-32.9900053406577,33.0510414282444,-167.57457846952
1580423619.8538,-68.4519722285802,38.1780727855344,-181.795986877241
1580423619.8578,-77.4242771038375,55.6343938353548,-199.008163576715
1580423619.86179,-28.7174792095825,43.9154650186922,-200.411993591211
1580423619.86579,39.3377584496832,3.93682764934761,-186.739909971771
1580423619.86979,97.9934386205846,-13.6415655756466,-172.88471808957
1580423619.87379,115.449759670405,-3.63164721141379,-163.363088426032
1580423619.87779,88.2276646066989,9.73525597009234,-162.26443884947
1580423619.88179,37.9339284351872,24.2008087281604,-171.236743724727
1580423619.88579,-18.0971999694818,48.2490272373539,-186.251621271077
1580423619.88978,-81.6357671473259,74.4335088120852,-205.905241474022
1580423619.89378,-160.982681010147,92.9884794384679,-241.977569237812
1580423619.89778,-252.658884565499,97.2610055695432,-299.229419394217
1580423619.90178,-312.291142137789,81.5747310597394,-369.726100556954
1580423619.90576,-262.546730754559,44.9530785076674,-418.371862363623
1580423619.90976,-102.754253452354,14.9843595025559,-355.016403448539
1580423619.91376,36.8352788586251,24.3839169909209,-284.214541847868
1580423619.91776,99.2141603723203,46.5400167849239,-249.057755397879
1580423619.92176,102.754253452354,67.5974670023652,-233.432516975662
1580423619.92576,89.2042420080875,76.6308079652094,-228.000305180438
1580423619.92975,73.4569314106966,64.4846265354395,-226.596475165942
1580423619.93375,48.9204242008086,41.0467689021132,-223.78881513695
1580423619.93775,9.4300755321583,30.5485618371861,-215.2437628748
1580423619.94175,-17.1206225680933,42.0843823910886,-203.341725795377
1580423619.94575,-16.632333867399,60.0289921416033,-191.989013504234
1580423619.94975,-2.16678110933094,65.0949874113071,-183.993286030365
1580423619.95375,25.8487830930037,61.9821469443805,-179.842832074464
1580423619.95774,59.2355230029752,59.4796673533224,-177.584496833753
1580423619.96174,76.1425192645152,57.2213321126114,-178.072785534447
1580423619.96574,72.480354009308,52.5825894560157,-181.0635538262
1580423619.96974,58.0758373388262,49.1645685511558,-184.66468299382
1580423619.97374,44.8920424200808,46.6010528725108,-185.030899519341
1580423619.97774,36.3469901579308,42.9388876173036,-181.612878614481
1580423619.98174,33.173113603418,40.4364080262453,-176.058594644083
1580423619.98575,27.8629739833675,39.2767223620965,-169.710841535058
1580423619.98975,16.5712977798123,36.1638818951703,-163.607232776379
1580423619.99374,5.88998245212474,30.3654535744258,-156.404974441138
1580423619.99774,-0.335698481727377,24.0177004654001,-146.517128252079
1580423620.00174,2.28885328450451,19.9282825970854,-135.225452048524
1580423620.00574,11.3832303349354,17.486839093614,-124.544136720836
1580423620.00974,21.0879682612344,16.1440451667047,-116.12115663386
1580423620.01374,30.4264896620125,15.777828641184,-110.139620050355
1580423620.01774,36.1638818951703,16.2661173418783,-106.416418707561
1580423620.02174,37.9949645227739,15.7167925535973,-104.951552605478
1580423620.02573,34.5769436179139,12.2377355611504,-104.524299992371
1580423620.02973,32.1965362020294,6.43930724040592,-102.26596475166
1580423620.03373,33.2951857785915,2.28885328450451,-97.2610055695432
1580423620.03773,35.5535210193025,-0.152590218966907,-90.9132524605172
1580423620.04173,36.3469901579308,-1.80056458381023,-83.8941023880368
1580423620.04573,36.6521705958646,-3.26543068589308,-76.8749523155566
1580423620.04973,34.882124055848,-5.09651331349664,-70.5882352941176
1580423620.05373,31.1589227130539,-7.59899290455473,-66.3157091630426
1580423620.05773,26.6422522316318,-11.0170138094147,-63.8132295719845
1580423620.06172,24.0177004654001,-14.923323414969,-61.921110856794
1580423620.0657,22.0035095750361,-18.341344319829,-59.6627756160831
