Timestamp_seconds,Accel_X_g,Accel_Y_g,Accel_Z_g
1580423750.45029,-0.88014038300145,0.343511100938429,-0.272709239337759
1580423750.48268,-0.891371023117419,0.33228046082246,-0.278080415045396
1580423750.51507,-0.879163805600061,0.347905699244677,-0.299076829175251
1580423750.54745,-0.882093537804227,0.337651636530097,-0.288822766460671
1580423750.57984,-0.89039444571603,0.338628213931486,-0.273685816739148
1580423750.61223,-0.887464713511864,0.338628213931486,-0.288334477759976
1580423750.64461,-0.881605249103533,0.336675059128709,-0.277103837644008
1580423750.677,-0.885511558709087,0.33569848172732,-0.287846189059282
1580423750.70938,-0.891371023117419,0.326420996414129,-0.280033569848174
1580423750.74167,-0.887464713511864,0.343022812237734,-0.285404745555811
1580423750.77406,-0.886488136110476,0.323979552910657,-0.272220950637065
1580423750.80644,-0.893324177920196,0.343511100938429,-0.273197528038454
1580423750.83883,-0.879163805600061,0.338139925230792,-0.294682230869002
1580423750.87121,-0.873792629892424,0.330327306019683,-0.289799343862059
1580423750.9036,-0.88355840390631,0.376226443884946,-0.290775921263448
1580423750.93599,-0.886488136110476,0.341069657434957,-0.278568703746091
1580423750.96837,-0.88355840390631,0.333257038223849,-0.271732661936371
1580423751.00076,-0.885511558709087,0.341557946135651,-0.269779507133594
1580423751.03314,-0.893324177920196,0.340093080033569,-0.296147096971085
1580423751.06553,-0.888441290913253,0.3459525444419,-0.320561532005799
1580423751.09792,-0.899671931029221,0.313725490196077,-0.296147096971085
1580423751.1303,-0.895765621423667,0.2775921263447,-0.291264209964142
1580423751.16269,-0.889417868314641,0.310307469291217,-0.303471427481499
1580423751.19508,-0.887464713511864,0.343511100938429,-0.306889448386359
1580423751.22746,-0.89039444571603,0.343022812237734,-0.302006561379416
1580423751.25985,-0.893324177920196,0.329839017318989,-0.310795757991913
1580423751.29223,-0.895765621423667,0.296635385671777,-0.312260624093996
1580423751.32462,-0.900160219729916,0.342046234836346,-0.317143511100939
1580423751.35701,-0.89381246662089,0.321049820706492,-0.331303883421073
1580423751.38939,-0.936293583581293,0.309330891889829,-0.358648050659953
1580423751.42178,-0.98268101014725,0.246341649500266,-0.44605172808423
1580423751.45417,-0.921644922560464,0.298588540474555,-0.284916456855116
1580423751.48655,-0.910414282444496,0.556893263141834,-0.226810101472495
1580423751.51894,-0.875745784695201,0.554940108339057,-0.42554360265507
1580423751.55133,-0.900160219729916,0.221927214465552,-0.379644464789807
1580423751.58371,-0.71168078126192,0.321049820706492,-0.134523537041275
1580423751.6161,-0.830823224231327,0.234134431982909,0.000244144350347142
1580423751.64848,-0.740978103303577,0.569588769359886,-0.140383001449607
1580423751.68087,-0.834241245136187,0.894300755321584,-0.149172198062104
1580423751.71326,-0.672617685206378,0.51538872358282,0.153566796368352
1580423751.74564,-0.808850232700085,0.464118410009917,0.53931486991684
1580423751.77803,-0.82887006942855,0.524666208896011,0.266849774929426
1580423751.81042,-1.00123598077363,0.565682459754331,0.24682993820096
1580423751.8428,-0.88697642481117,0.264408331425955,0.475349050125885
1580423751.87519,-0.825940337224385,0.162355992980849,0.363530937666894
1580423751.90757,-0.896253910124361,0.45532921339742,0.367437247272449
1580423751.93996,-0.857679102769513,0.419684138246737,0.354741741054397
1580423751.97235,-0.773693446250096,0.628671702143894,0.250736247806515
1580423752.00473,-0.879163805600061,0.610116731517511,0.129152361333638
1580423752.03699,-0.785900663767453,0.381597619592583,0.196536202029449
1580423752.06937,-0.829846646829939,0.279545281147477,0.285404745555809
1580423752.10176,-0.90406652933547,0.201907377737086,0.251712825207903
1580423752.13414,-1.00318913557641,0.396246280613411,0.129152361333638
1580423752.16653,-0.869398031586176,0.402594033722437,0.280521858548866
1580423752.19892,-0.771740291447319,0.409918364232851,0.232181277180132
1580423752.2313,-0.901136797131304,0.331792172121766,0.347905699244677
1580423752.26369,-0.822522316319525,0.366948958571754,0.286381322957197
1580423752.29607,-0.97584496833753,0.28784618905928,0.340581368734263
1580423752.32846,-0.984145876249332,0.198001068131532,0.28784618905928
1580423752.36084,-0.816662851911193,0.429938200961317,0.35620660715648
1580423752.39323,-0.851819638361182,0.327397573815517,0.331303883421072
1580423752.42562,-0.826916914625773,0.405523765926603,0.269291218432897
1580423752.458,-1.00709544518196,0.380621042191194,0.302494850080109
1580423752.49039,-0.719981689173723,0.394781414511328,0.350835431448843
1580423752.52277,-0.777111467154956,0.79468986037995,0.188235294117646
1580423752.55516,-0.825940337224385,0.640390630960557,0.0505378805218584
1580423752.58755,-0.948012512397955,0.567147325856414,-0.103273060196841
1580423752.61993,-0.864515144579233,0.601327534905014,-0.110109102006561
1580423752.65232,-0.857679102769513,0.350835431448843,0.01196307316701
1580423752.6847,-0.933363851377127,0.34253452353704,0.0461432822156098
1580423752.71709,-0.911390859845884,0.427008468757151,-0.0290531776913099
1580423752.74948,-0.919691767757687,0.3459525444419,-0.0588387884336612
1580423752.78186,-0.933852140077821,0.269779507133592,-0.0515144579232469
1580423752.81425,-0.991958495460441,0.324467841611352,-0.128664072632944
1580423752.84663,-0.877698939497979,0.342046234836346,-0.0515144579232469
1580423752.87902,-0.876234073395896,0.304448004882886,-0.0588387884336612
1580423752.9114,-0.962661173418784,0.286381322957197,0.0173342488746471
1580423752.94379,-0.878675516899367,0.603280689707791,0.324956130312046
1580423752.97618,-0.90406652933547,0.416754406042571,0.274662394140535
1580423753.00856,-1.07936217288472,0.554940108339057,0.516853589684903
1580423753.04095,-1.21168841077287,0.308842603189134,0.438727397573814
1580423753.07333,-1.73122758831159,0.206301976043335,0.121828030823224
1580423753.10572,-1.8928511482414,-0.581307698176547,-0.362554360265507
1580423753.1381,-1.59450675211719,-0.854749370565347,0.0358892195010299
1580423753.17049,-1.05885404745556,0.191165026321812,0.386480506599526
1580423753.20288,-0.421637293049516,1.34694438086519,-0.509040970473793
1580423753.23526,-0.499763485160601,0.58374914168002,-0.0422369726100555
1580423753.26765,-0.389410238803693,-0.543709468223087,-0.221927214465552
1580423753.30003,-0.589608606088349,-0.358648050659953,0.330815594720377
1580423753.33237,-0.646738384069581,0.545174334325171,0.584237430380714
1580423753.36475,-0.796154726482033,1.17653162432288,-0.00268558785381856
1580423753.39714,-0.92457465476463,1.46755168993667,-0.159914549477378
1580423753.42952,-0.699961852445258,1.20729381246662,0.396246280613411
1580423753.46191,-1.23366140230411,0.93141069657435,0.35962462806134
1580423753.4943,-1.25075150682841,0.494392309452962,0.317143511100937
1580423753.52668,-0.91432059205005,0.067139696345464,0.469489585717554
1580423753.55907,-0.823010605020219,0.653086137178608,0.41773098344396
1580423753.59145,-0.772716868848708,0.906507972838941,0.242923628595406
1580423753.62384,-0.698985275043869,0.80494392309453,0.537361715114063
1580423753.65622,-1.96609445334554,0.554940108339057,-0.0676279850461583
1580423753.68861,-1.7390402075227,-0.968520637827115,1.24000915541314
1580423753.721,-1.3542687113756,3.37578393224994,-0.647226672770275
1580423753.75338,-0.102784771496147,-0.397711146715496,0.793224994277868
1580423753.78577,-0.672129396505683,0.876234073395896,1.10963607232776
1580423753.81815,-1.06178377965972,0.442145418478674,0.610116731517511
1580423753.85054,-0.93824673838407,1.31960021362631,0.877698939497979
1580423753.88293,-1.15700007629511,0.60425726710918,0.743907835507745
1580423753.91531,-2.1145342183566,0.33228046082246,0.4143129625391
1580423753.9477,-2.13064774547951,-0.183840695811398,-0.35034714274815
1580423753.98008,-1.58376440070191,-0.635507743953612,-0.574959945067521
1580423754.01247,-1.78689250019074,-0.51783016708629,-0.936781872281987
1580423754.04485,-1.42555886167697,-0.823498893720913,-0.39819943541619
1580423754.07724,-0.818127718013276,-0.409918364232853,-0.0656748302433812
1580423754.10963,-1.12281986724651,0.909925993743801,0.520271610589763
1580423754.14201,-0.805432211795225,1.25612268253605,0.564217593652248
1580423754.1744,-0.501716639963378,0.771740291447319,0.357183184557869
1580423754.20678,-0.0900892652780954,0.423102159151597,0.983657587548638
1580423754.23917,0.863538567177844,-0.0700694285496297,0.813244831006333
1580423754.27156,0.0817883573662925,-0.0974135957885096,0.206790264744029
1580423754.30394,-0.554940108339055,1.09254596780346,-0.0104982070649271
1580423754.33633,-0.769298847943848,1.90554665445945,0.326909285114823
1580423754.36871,-0.449958037689784,0.866956588082704,0.682871747920959
1580423754.4011,-1.24733348592355,-1.55446707866026,1.48561837186236
1580423754.43349,-0.609628442816815,2.39481193255512,0.445563439383534
1580423754.46587,-2.18631265735866,1.20289921416037,0.47925535973144
1580423754.49826,-3.0120088502327,-1.50270847638666,-0.479743648432136
1580423754.53064,-1.29958037689784,4.14288548104066,1.18483253223468
1580423754.56303,-0.325444419012742,-0.52124818799115,-0.124269474326695
1580423754.59541,-1.31715877012284,1.33766689555199,1.40993362325475
1580423754.62772,-0.530037384603647,0.874769207293813,1.33669031815061
1580423754.6601,-0.935317006179904,1.04371709773404,1.24049744411383
1580423754.69249,-2.09304951552605,0.865980010681316,0.940688181887541
1580423754.72487,-2.09988555733577,0.151613641565575,0.0700694285496297
1580423754.75726,-2.01785305561913,-0.625253681239032,-0.855725947966736
1580423754.78964,-1.69314106965743,-0.710215915159838,-1.43776607919432
1580423754.82203,-1.68386358434424,-0.598886091401541,-1.03395132372015
1580423754.85442,-1.18580910963607,-0.350835431448845,-0.0920424200808725
1580423754.8868,-0.940688181887541,-0.196536202029449,-0.0427252613107498
1580423754.91919,-0.735118638895246,0.176028076600289,0.244388494697489
1580423754.95157,-0.628671702143892,0.624277103837645,0.757579919127185
1580423754.98396,-0.260990310521096,0.863538567177844,0.96559090562295
1580423755.01635,0.426031891355763,0.5085526817731,0.692637521934845
1580423755.04873,0.400152590218966,0.630624856946671,0.624277103837645
1580423755.08112,0.063721675440604,0.844983596551462,0.412848096437017
1580423755.1135,-0.0876478217746239,0.907972838941024,0.402105745021743
1580423755.14589,-0.786877241168842,1.58278782330053,0.958266575112535
1580423755.17827,-1.56716258487831,0.3801327534905,1.08668650339513
1580423755.21066,-1.19752803845273,0.942153047989624,0.550057221332114
1580423755.24305,-0.462165255207141,0.906996261539636,0.348882276646066
1580423755.27543,-0.991470206759747,0.366948958571754,-0.0607919432364383
1580423755.30782,-2.4309452964065,-1.65896086060883,0.436285954070343
1580423755.3402,-0.840588998245213,2.38748760204471,0.558358129243917
1580423755.37259,-0.347905699244679,0.79127183947509,-0.147219043259327
1580423755.40498,-0.821057450217442,1.05152971694514,1.02711528191043
1580423755.43736,-0.386968795300222,0.599862668802931,1.28053711757076
1580423755.46975,-0.979751277943084,1.24733348592355,1.11891355764095
1580423755.50213,-1.46950484473945,0.670664530403602,1.11549553673609
1580423755.53452,-2.16140993362325,0.570565346761274,0.398199435416188
1580423755.56691,-2.03836118104829,-0.79810788128481,-0.597909514000152
1580423755.59929,-1.59645990691997,-0.976333257038224,-1.47145799954223
1580423755.63168,-1.52712291142138,-0.209231708247501,-1.28981460288396
1580423755.66406,-1.34303807125963,-0.367925535973145,-0.272220950637065
1580423755.69645,-0.974380102235447,-0.107179369802395,0.126710917830167
1580423755.72883,-1.11989013504234,0.286869611657892,0.474860761425191
1580423755.76122,-0.627695124742504,0.35278858625162,0.494880598153657
1580423755.7936,-0.155519951171129,0.782482642862593,0.891859311818113
1580423755.82599,0.30835431448844,0.895765621423667,0.802502479591059
1580423755.85838,0.608163576714734,0.675547417410545,0.626718547341117
1580423755.89076,-0.0231937132829785,0.36987869077592,0.177492942702372
1580423755.92303,-0.363042648966202,0.671641107804991,0.189211871519035
1580423755.95542,-0.39819943541619,1.23414969100481,0.456794079499502
1580423755.9878,-1.23707942320897,1.72878614480812,0.343999389639123
1580423756.02019,-1.17799649042496,-0.0305180437933927,1.25709925993744
1580423756.05258,-0.67750057221332,0.975356679636835,0.56665903715572
1580423756.08496,-1.18239108873121,0.736583504997331,0.477790493629357
1580423756.11735,-2.92997634851606,-1.61647974364843,0.0896009765774011
1580423756.14973,-0.44605172808423,2.68925001907378,0.756115053025102
1580423756.18212,-0.297123674372473,-0.416266117341879,-0.067139696345464
1580423756.2145,-1.53005264362554,1.0896162355993,1.28102540627146
1580423756.24689,-0.289311055161365,0.738048371099413,1.52224002441444
1580423756.27927,-1.09596398870832,0.885023270008393,1.42946517128252
1580423756.31166,-2.03933775844968,0.775158312352179,0.862073701075762
1580423756.34404,-2.38309300373846,-0.535408560311284,-0.238040741588463
1580423756.37643,-1.85329976348516,-1.21803616388189,-1.61501487754635
1580423756.40881,-1.41872281986725,-0.275638971541925,-1.6194094758526
1580423756.4412,-1.57741664759289,0.116945143816281,-0.725841153582055
1580423756.47358,-1.53737697413596,-0.0676279850461583,-0.161867704280155
1580423756.50597,-1.05006485084306,-0.748302433813992,0.500251773861297
1580423756.53836,-0.824963759822996,-0.226810101472495,0.639902342259862
1580423756.57074,-0.355230029755093,0.463141832608528,0.461188677805751
1580423756.60313,0.243900205996795,1.15114061188678,0.747325856412605
1580423756.63551,0.586678873884185,1.26198214694438,0.605233844510568
1580423756.6679,0.477302204928662,0.513435568780043,0.0402838178072784
1580423756.70028,-0.0290531776913099,0.32544441901274,0.135500114442664
1580423756.73267,-0.670664530403601,0.0168459601739528,0.644785229266805
1580423756.76505,-1.22780193789578,1.8244907301442,0.562752727550166
1580423756.79744,-1.29372091248951,0.659433890287634,0.575448233768217
1580423756.82982,-0.895277332722973,0.56665903715572,0.868421454184787
1580423756.86221,-1.20680552376593,1.36549935149157,0.723399710078585
1580423756.89459,-3.11894407568475,-2.00906385900664,-0.285893034256505
1580423756.92698,-0.778088044556345,3.2683604180972,0.95533684290837
1580423756.95936,-0.291752498664836,-1.19069199664301,0.578377965972383
1580423756.99175,-1.38063630121309,1.05836575875486,1.36159304188601
1580423757.02414,-0.365484092469673,0.949965667200733,1.53737697413596
1580423757.05652,-0.968520637827115,0.6281834134432,1.41579308766308
1580423757.08891,-1.82107270923934,1.02711528191043,0.766857404440376
1580423757.12129,-2.27176317998016,0.2605020218204,-0.0178225375753414
1580423757.15368,-1.80447089341573,-0.80494392309453,-0.950942244602121
1580423757.18606,-1.59060044251163,-0.675547417410543,-1.44313725490196
1580423757.21841,-1.43288319218738,-0.477790493629358,-1.09156939040207
1580423757.2508,-1.22682536049439,-0.363530937666896,-0.134035248340581
1580423757.28319,-0.986587319752804,0.113527122911421,0.152590218966964
1580423757.31557,-0.966567483024338,0.269779507133592,0.331792172121766
1580423757.34795,-0.676523994811932,0.484138246738382,0.637460898756391
1580423757.38034,-0.302494850080111,0.892347600518807,0.800549324788282
1580423757.41273,0.403082322423131,0.502693217364769,0.795178149080645
1580423757.44511,0.400152590218966,0.385015640497443,0.657969024185551
1580423757.4775,-0.189211871519035,0.53589684901198,0.179446097505149
1580423757.50988,-0.414801251239796,1.03932249942779,0.0622568093385212
1580423757.54227,-0.34351110093843,1.0896162355993,0.686778057526514
1580423757.57465,-1.07496757457847,1.29176775768673,0.602792401007097
1580423757.60704,-1.19313344014649,0.160402838178072,1.23756771190967
1580423757.63942,-0.632089723048752,1.03443961242084,0.781994354161899
1580423757.67181,-0.329350728618296,0.956313420309758,0.254154268711375
1580423757.70419,-2.27469291218433,-1.59206530861372,-0.160891126878766
1580423757.73658,-0.949965667200733,1.6877698939498,0.727794308384833
1580423757.76897,0.568123903257803,0.701426718547342,1.29372091248951
1580423757.80135,-0.380621042191196,1.15895323109789,1.37672999160754
1580423757.83374,-0.49390402075227,0.405035477225908,1.29079118028534
1580423757.86612,-1.1062180514229,1.06617837796597,1.30788128480964
1580423757.89851,-0.986587319752804,0.825940337224385,1.29127946898604
1580423757.93089,-2.09158464942397,0.6110933089189,0.678965438315405
1580423757.96328,-2.3284046692607,-0.667246509498741,-0.524177920195315
1580423757.99566,-1.57497520408942,-0.88014038300145,-1.63015182726787
1580423758.02805,-1.49831387808042,-0.218020904859998,-1.28102540627146
1580423758.06043,-1.38210116731518,-0.0793469138628211,-0.261478599221791
1580423758.09282,-1.13942168307011,0.146242465857938,0.044678416113527
1580423758.1252,-0.894789044022279,-0.389898527504387,0.324956130312046
1580423758.15759,-0.675059128709849,0.175539787899595,0.661387045090411
1580423758.18997,-0.128175783932249,0.872327763790341,0.726817730983445
1580423758.22236,0.453376058594642,0.943617914091707,0.89381246662089
1580423758.25475,0.63501945525292,0.874769207293813,0.519295033188374
1580423758.28713,0.3459525444419,0.495368886854351,0.198001068131532
1580423758.31952,-0.0817883573662925,0.556893263141834,0.290775921263446
1580423758.3519,-0.570077058060578,-0.0046387426565957,0.60767528801404
1580423758.38429,-1.51003280689708,1.59060044251164,0.60767528801404
1580423758.41667,-1.32301823453117,0.300053406576637,0.950453955901427
1580423758.44906,-0.715587090867475,1.0642252231632,0.558358129243917
1580423758.48144,-1.18629739833677,1.16920729381247,0.61792935072862
1580423758.51373,-2.53788052185855,-2.25418478675517,-0.391851682307164
1580423758.54612,-0.482185091935607,2.40701915007248,0.695078965438316
1580423758.5785,0.593026626993211,0.321049820706492,0.60083924620432
1580423758.61089,-1.30983443961242,1.75368886854353,1.04957656214237
1580423758.64327,-0.0251468680857556,0.5940032043946,0.983657587548638
1580423758.67566,-0.913832303349356,1.14479285877775,1.23756771190967
1580423758.70805,-1.44313725490196,0.798596169985505,0.887464713511864
1580423758.74043,-2.13797207598993,0.509529259174489,0.343999389639123
1580423758.77281,-1.92068360418097,-0.412359807736324,-0.106202792401007
1580423758.8052,-1.3889372091249,-0.35376516365301,-1.23707942320897
1580423758.83759,-1.68386358434424,-0.472907606622416,-1.2346379797055
1580423758.86997,-1.56716258487831,-0.662363622491798,-0.501716639963378
1580423758.90236,-1.14821087968261,-0.0354009308003356,0.0900892652780954
1580423758.93474,-0.998794537270161,0.0373540856031127,0.0432135500114441
1580423758.96713,-0.685801480125123,0.329839017318989,0.504646372167546
1580423758.99951,-0.314702067597468,1.12721446555276,0.832776379034105
1580423759.0319,0.182864118410009,0.83912413214313,0.957778286411841
1580423759.06428,0.660410467689022,0.396246280613411,0.737560082398719
1580423759.09667,0.264408331425955,0.354741741054397,0.51880674448768
1580423759.12905,-0.211673151750972,0.521248187991151,0.542244602121006
1580423759.16144,-0.45972381170367,1.0129549095903,0.626718547341117
1580423759.19383,-1.2771190966659,2.25271992065309,0.725841153582056
1580423759.22621,-1.12965590905623,-0.531013962005035,1.32985427634089
1580423759.2586,-0.827893492027162,0.748302433813993,0.609140154116123
1580423759.29098,-0.335698481727322,1.23366140230411,0.316166933699549
1580423759.32337,-1.94168001831083,-1.04908827344167,-0.928969253070878
1580423759.35575,-0.813244831006333,1.5940184634165,0.167727168688486
1580423759.38814,1.04078736552987,0.528084229800871,2.52909132524605
1580423759.42052,-0.563729304951552,0.453376058594642,1.2346379797055
1580423759.45291,-0.395269703212024,0.193118181124589,1.35915159838254
1580423759.48529,-0.912855725947967,1.09449912260624,1.29323262378881
1580423759.51768,-1.2600289921416,0.757091630426491,1.05934233615625
1580423759.55006,-2.40311284046693,0.884534981307699,0.551033798733503
1580423759.58245,-1.87380788891432,-0.34692912184329,-0.288822766460671
1580423759.61483,-1.7131609063859,-0.807385366598002,-1.33522545204852
1580423759.64722,-1.51100938429847,-0.355718318455787,-1.39235523002976
1580423759.67961,-1.49050125886931,-0.573983367666132,-0.786388952468148
1580423759.71199,-1.10377660791943,-0.467048142214084,-0.0197756923781185
1580423759.74438,-0.998306248569467,0.222903791866941,0.382574196993971
1580423759.77676,-0.933852140077821,0.47925535973144,0.816662851911193
1580423759.80914,-0.416266117341879,0.514412146181431,0.85963225757229
1580423759.84153,0.0500495918211641,0.703379873350119,0.932875562676433
1580423759.87391,0.608163576714734,0.626718547341117,0.80494392309453
1580423759.9063,0.3630426489662,0.384527351796748,0.454352635996031
1580423759.93868,-0.330815594720379,0.233646143282215,-0.181399252307926
1580423759.97107,-0.71509880216678,1.44509040970474,0.246341649500266
1580423760.00345,-0.785412375066759,2.0119935912108,0.553963530937668
1580423760.03584,-1.60427252613107,0.0607919432364383,1.55300221255818
1580423760.06822,-0.939223315785458,0.900160219729916,0.858167391470207
1580423760.10061,-0.401129167620356,1.14479285877775,0.522713054093234
1580423760.133,-1.46120393682765,-1.07008468757153,-0.212649729152361
1580423760.16538,-0.987075608453498,0.895765621423667,1.10817120622568
1580423760.19777,0.794201571679256,1.04762340733959,1.86941329060807
1580423760.23015,-0.320073243305105,0.962661173418784,0.717051956969559
1580423760.26254,-0.650156404974441,0.314213778896772,1.22731364919509
1580423760.29492,-0.761974517433433,0.90064850843061,1.39772640573739
1580423760.32731,-1.09987029831388,0.934340428778516,1.19655146105135
1580423760.35969,-1.77126726176852,0.663340199893188,0.775646601052873
1580423760.39208,-2.27615777828641,-0.0993667505912867,0.101808194094758
1580423760.42446,-1.72341496910048,-1.31618219272145,-1.20436408026245
1580423760.45685,-1.53151750972763,-0.575936522468909,-1.53835355153735
1580423760.48923,-1.34938582436866,-0.389898527504387,-0.955825131609064
1580423760.52162,-1.15944151979858,-0.249271381704432,0.11450370031281
1580423760.55401,-1.04127565423056,0.222903791866941,0.302494850080109
1580423760.58639,-0.97926298924239,-0.176516365300984,0.361577782864117
1580423760.61878,-0.562752727550164,0.381109330891888,0.740489814602885
1580423760.65116,-0.0466315709163041,1.08278019378958,0.84254215304799
1580423760.68355,0.299565117875943,0.92457465476463,0.77418173495079
1580423760.71593,0.460700389105057,0.485114824139771,0.563729304951554
1580423760.74832,-0.143801022354467,0.246341649500266,0.166262302586404
1580423760.7807,-0.401129167620356,1.05787747005417,-0.116945143816281
1580423760.81309,-0.342534523537042,1.77126726176852,0.172610055695429
1580423760.84547,-1.07789730678263,1.17311360341802,0.912367437247273
1580423760.87786,-1.35719844357977,-0.712657358663309,1.63796444647898
1580423760.91024,-0.301029983978028,1.89431601434348,0.790783550774396
1580423760.94263,-1.44899671931029,1.01588464179446,0.138918135347524
1580423760.97501,-2.61942473487449,-0.961684596017395,-0.0891126878767068
1580423761.0074,-0.789806973373008,2.09451438162814,0.815686274509805
1580423761.03979,-0.141359578850995,0.39038681620508,0.793224994277868
1580423761.07217,-0.903578240634776,1.06666666666667,1.74489967193103
1580423761.10446,-0.42554360265507,0.408453498130768,1.41091020065614
1580423761.13685,-0.89381246662089,0.999282825970855,1.10963607232776
1580423761.16923,-1.2863965819791,0.921644922560464,0.901625085831999
1580423761.20162,-2.05642786297398,0.529549095902954,0.30493629358358
1580423761.234,-2.30203707942321,-0.190188448920424,-0.42554360265507
1580423761.26639,-1.21217669947356,-0.589608606088349,-1.32448310063325
1580423761.29877,-1.53591210803387,-0.574959945067521,-1.40456244754711
1580423761.33116,-1.46218051422904,-0.667734798199435,-0.671152819104295
1580423761.36354,-1.11354238193332,-0.41187151903563,0.182864118410009
1580423761.39593,-1.20582894636454,0.362066071564811,0.660898756389717
1580423761.42831,-0.88014038300145,0.355230029755091,0.487556267643242
1580423761.4607,-0.273197528038454,0.677988860914017,0.39038681620508
1580423761.49308,0.11450370031281,1.38063630121309,0.707286182955674
1580423761.52547,0.589608606088351,1.05836575875486,0.698985275043871
1580423761.55786,0.498298619058517,0.302983138780803,0.375249866483557
1580423761.59024,-0.299076829175251,0.216556038757915,0.269779507133592
1580423761.62263,-0.835217822537576,0.382085908293277,0.426031891355763
1580423761.65501,-1.3801480125124,2.59452201113909,0.771252002746625
1580423761.6874,-1.44606698710613,-0.193606469825284,1.48757152666514
1580423761.71978,-0.830334935530633,1.225848783093,0.733653772793165
1580423761.75217,-0.358648050659953,1.49098954757,0.202883955138475
1580423761.78455,-2.51737239642939,-2.31912718394751,-0.51783016708629
1580423761.81694,-1.01832608529793,1.80105287251087,0.776134889753568
1580423761.84932,1.10280003051804,0.389898527504386,2.0124818799115
1580423761.88171,-0.558358129243915,1.31325246051728,1.23366140230411
1580423761.91409,-0.415777828641184,0.0305180437933927,1.38356603341726
1580423761.94648,-0.79127183947509,0.879163805600061,1.41676966506447
1580423761.97887,-0.969985503929198,0.810803387502862,1.23121995880064
1580423762.01125,-2.03445487144274,0.553475242236974,0.841565575646602
1580423762.04364,-2.07058823529412,-0.291264209964142,-0.0339360646982527
1580423762.07602,-1.63112840466926,-0.855725947966736,-1.27516594186313
1580423762.10841,-1.58376440070191,-0.421149004348822,-1.50173189898528
1580423762.14079,-1.47731746395056,-0.633066300450141,-0.86988632028687
1580423762.17318,-1.17018387121385,-0.474372472724498,0.0192874036774242
1580423762.20556,-0.995376516365301,0.0207522697795071,0.230716411078049
1580423762.23795,-0.83570611123827,0.189211871519035,0.399664301518271
1580423762.27033,-0.502204928664073,0.635507743953614,0.930434119172961
1580423762.30272,-0.0988784618905925,1.03395132372015,0.97926298924239
1580423762.3351,0.284916456855115,0.839612420843824,0.591561760891128
1580423762.36749,0.25708400091554,0.658945601586939,0.568612191958497
1580423762.39984,-0.0749523155565726,0.839612420843824,0.23999389639124
1580423762.43223,-0.406988632028687,0.697032120241094,0.59742122529946
1580423762.46461,-0.682383459220263,0.45874723430228,0.825940337224385
1580423762.497,-1.5080796520943,0.986587319752804,0.478278782330051
1580423762.52938,-1.02320897230488,0.687266346227208,0.874769207293813
1580423762.56176,-0.542732890821698,1.15700007629511,0.494392309452962
1580423762.59415,-1.27370107576104,0.132082093537804,-0.0202639810788128
1580423762.62653,-1.09840543221179,0.0686045624475469,1.23024338139925
1580423762.65892,0.457770656900891,1.28786144808118,1.9358205539025
1580423762.6913,-0.387457084000916,0.312260624093994,0.307377737087052
1580423762.72369,-0.771740291447319,0.172121766994735,1.1150072480354
1580423762.75607,-0.707286182955672,0.939223315785458,1.49147783627069
1580423762.78846,-1.07447928587777,0.926527809567407,1.072526131075
1580423762.82084,-1.6960708018616,0.562752727550166,0.620859082932785
1580423762.85323,-2.22098115510796,0.0588387884336612,0.163820859082932
1580423762.88561,-1.55397878995956,-0.623788815136949,-0.7048447394522
1580423762.918,-1.43044174868391,-0.32983901731899,-1.52126344701305
1580423762.95038,-1.40993362325475,-0.353276874952316,-1.11793698023957
1580423762.98277,-1.18776226443885,-0.245853360799572,-0.266849774929428
1580423763.01515,-1.26100556954299,0.148195620660715,0.195559624628061
1580423763.04754,-0.963637750820173,-0.502204928664073,0.653086137178608
1580423763.07992,-0.708751049057755,0.312748912794689,0.543709468223089
1580423763.11231,-0.307377737087053,1.1062180514229,0.603768978408485
1580423763.14469,0.194583047226672,1.29372091248951,0.811291676203556
1580423763.17708,0.441168841077285,0.85279621576257,0.548592355230031
1580423763.20946,-0.0529793240253298,0.350347142748149,0.432379644464788
1580423763.24185,-0.542732890821698,0.487556267643242,0.491462577248797
1580423763.27423,-0.654551003280689,1.08815136949721,0.763439383535516
1580423763.30662,-1.25856412603952,1.40505073624781,0.683848325322348
1580423763.339,-0.987563897154192,0.348393987945371,1.16774242771038
1580423763.37139,-0.430914778362707,0.776134889753568,0.605722133211263
1580423763.40377,-0.916762035553521,0.98609903105211,-0.106202792401007
1580423763.43616,-2.7644464789807,-1.20143434805829,0.350347142748149
1580423763.46854,-1.07350270847639,2.49491111619745,0.522713054093234
1580423763.50093,-0.447516594186313,0.554940108339057,0.0363775082017241
1580423763.53331,-0.862561989776456,1.63698786907759,1.6106202792401
1580423763.5657,-0.388433661402305,0.612069886320288,1.32057679102769
1580423763.59808,-1.01051346608682,0.939223315785458,1.14430457007706
1580423763.63047,-1.46999313344015,0.677988860914017,0.956801709010453
1580423763.66285,-2.50125886930648,0.210696574349583,0.396734569314106
1580423763.69522,-1.88747997253376,-0.618417639429312,-0.563241016250858
1580423763.72761,-1.55837338826581,-0.54517433432517,-1.52419317921721
1580423763.75999,-1.44997329671168,-0.417730983443962,-1.15309376668955
1580423763.79238,-1.47682917524987,-0.474372472724498,-0.372808422980087
1580423763.82476,-1.10035858701457,-0.179934386205844,0.112062256809338
1580423763.85715,-0.987563897154192,0.178469520103761,0.504646372167546
1580423763.88953,-0.677012283512626,0.315678644998854,0.590096894789045
1580423763.92192,-0.204837109941252,0.874769207293813,0.721446555275808
1580423763.9543,0.347417410543983,1.12526131074998,0.797619592584116
1580423763.98669,0.699473563744565,0.799572747386893,0.627206836041811
1580423764.01907,0.366948958571754,0.155031662470435,0.25708400091554
1580423764.05146,-0.235599298084992,0.272709239337757,0.031006332494087
1580423764.08384,-0.763439383535516,1.05885404745556,0.469977874418248
1580423764.11623,-1.20582894636454,2.21853971160449,0.676523994811934
1580423764.14861,-1.65163653009842,-0.381597619592585,1.23805600061036
1580423764.181,-0.894789044022279,0.852307927061876,0.734630350194553
1580423764.21339,-0.281498435950256,1.35378042267491,0.353765163653009
1580423764.24577,-1.54665445944915,-1.0808270389868,-0.378179598687725
1580423764.27816,-0.791760128175785,1.53493553063249,0.795666437781339
1580423764.31054,0.34253452353704,0.545174334325171,1.34206149385824
1580423764.34293,-0.416754406042573,1.33034256504158,1.94021515220874
1580423764.37531,-0.142336156252384,0.178469520103761,1.37477683680476
1580423764.4077,-0.977798123140307,0.918715190356298,1.20973525597009
1580423764.44008,-1.22682536049439,0.985610742351415,0.953383688105593
1580423764.47247,-2.05935759517815,0.481208514534217,0.558358129243917
1580423764.50485,-1.9358205539025,-0.43237964446479,-0.108644235904478
1580423764.53724,-1.55593194476234,-0.701915007248035,-1.06715495536736
1580423764.56962,-1.64284733348592,-0.404547188525216,-1.48464179446098
1580423764.60201,-1.56911573968109,-0.846448462653544,-0.797619592584116
1580423764.6344,-1.12623788815137,-0.181399252307926,0.129152361333638
1580423764.66678,-1.10572976272221,0.30493629358358,0.235599298084992
1580423764.69917,-0.780041199359122,0.0983901731898982,0.615487907225148
1580423764.73155,-0.413336385137713,0.813244831006333,0.685801480125125
1580423764.76394,0.230228122377355,1.16676585030899,0.797619592584116
1580423764.79632,0.58374914168002,0.864515144579233,0.859143968871596
1580423764.82871,0.31519035629816,0.443610284580757,0.401129167620354
1580423764.86109,-0.128175783932249,0.551522087434197,0.163332570382238
1580423764.89348,-0.485603112840467,0.593026626993211,0.663340199893188
1580423764.92586,-0.86646829938201,1.27956054016937,0.78101777676051
1580423764.95825,-1.38405432211795,0.469489585717554,1.05299458304723
1580423764.9906,-1.01930266269932,0.652597848477914,0.778088044556345
1580423765.02299,-0.387457084000916,1.48659494926375,0.545174334325171
1580423765.05537,-1.33815518425269,-0.140871290150301,-0.35034714274815
1580423765.08776,-1.65896086060883,-0.171633478294041,0.585214007782103
1580423765.12014,-0.588143739986267,1.98855573357748,1.78640421149004
1580423765.15253,-0.886488136110476,0.871839475089647,-0.44605172808423
1580423765.18491,-0.695078965438315,0.609628442816817,1.67751583123522
1580423765.2173,-0.38452735179675,0.558846417944611,1.46315709163042
1580423765.24968,-0.998794537270161,0.990981918059052,1.36110475318532
1580423765.28207,-1.60036621652552,0.558846417944611,0.800061036087587
1580423765.31445,-2.89091325246052,0.863538567177844,0.371343556878003
1580423765.34684,-1.53151750972763,-0.764415960936905,-0.416754406042573
1580423765.37922,-1.58864728770886,-0.274662394140536,-1.41921110856794
1580423765.41161,-1.55739681086442,-0.372808422980087,-1.07789730678263
1580423765.44399,-1.27467765316243,-0.598886091401541,-0.39478141451133
1580423765.47638,-0.98609903105211,-0.226810101472495,0.176028076600289
1580423765.50877,-0.937270160982681,0.248783093003738,0.353276874952314
1580423765.54115,-0.640390630960555,0.3972228580148,0.553963530937668
1580423765.57354,-0.36743724727245,1.15065232318608,0.932875562676433
1580423765.60592,0.218997482261386,1.11891355764095,0.806897077897307
1580423765.63831,0.377203021286334,0.686778057526514,0.645761806668194
1580423765.67069,0.0354009308003356,0.604745555809874,0.45874723430228
1580423765.70308,-0.225833524071106,0.575448233768217,0.493904020752268
1580423765.73546,-0.445075150682841,0.715587090867476,0.379644464789806
1580423765.76785,-1.4138399328603,2.07595941100175,0.326909285114823
1580423765.80023,-1.41676966506447,-0.23657587548638,1.35133897917143
1580423765.83262,-0.755626764324408,0.953383688105593,0.91432059205005
1580423765.86501,-0.148195620660715,1.15895323109789,0.292240787365529
1580423765.89739,-2.36112001220722,-1.51003280689708,-0.77759975585565
1580423765.92977,-1.35719844357977,2.27029831387808,0.423102159151597
1580423765.96216,0.911879148546578,0.0456549935149155,2.1321126115816
1580423765.99455,-0.625253681239032,0.643808651865417,0.909437705043107
1580423766.02693,-0.441168841077287,0.388433661402303,1.10377660791943
1580423766.05932,-1.05885404745556,0.885023270008393,1.29958037689784
1580423766.0917,-1.05104142824445,0.799084458686199,1.24782177462425
1580423766.12409,-2.27664606698711,1.00611886778058,0.777111467154956
1580423766.15647,-2.29520103761349,-0.388921950102999,-0.118410009918364
1580423766.18886,-1.78542763408866,-0.813733119707027,-1.23317311360342
1580423766.22124,-1.49001297016861,-0.348393987945373,-1.25270466163119
1580423766.25363,-1.48073548485542,-0.499275196459907,-0.772716868848708
1580423766.28604,-1.15895323109789,-0.160402838178072,0.0866712443732354
1580423766.31843,-1.02174410620279,0.105226214999618,0.429449912260623
1580423766.35081,-0.88697642481117,-0.0197756923781185,0.569100480659191
1580423766.3832,-0.418219272144656,0.630624856946671,0.724864576180668
1580423766.41558,0.0793469138628211,1.19948119325551,0.805920500495919
1580423766.44797,0.385503929198137,0.990493629358358,0.617441062027925
1580423766.48035,0.468024719615471,0.595956359197377,0.352300297550926
1580423766.51274,-0.0754406042572668,0.323979552910657,0.0900892652780954
1580423766.54512,-0.513923857480735,0.444098573281451,0.506111238269629
1580423766.57751,-0.702891584649423,1.63698786907759,1.1574883649958
1580423766.60989,-1.23512626840619,1.18239108873121,0.708262760357062
1580423766.64228,-0.943129625391013,0.141359578850995,1.42165255207141
1580423766.67466,-0.316166933699551,1.51149767299916,0.358159761959257
1580423766.70705,-1.1833676661326,0.398687724116883,-0.206790264744029
1580423766.73944,-2.7810482948043,-0.77759975585565,0.458258945601585
1580423766.77182,-0.641855497062638,2.75370412756542,0.43482108796826
1580423766.80421,-0.416266117341879,0.858167391470207,0.437750820172425
1580423766.83659,-0.74244296940566,0.812268253604945,1.77029068436713
1580423766.86898,-0.44946974898909,0.256595712214846,1.473411154345
1580423766.90136,-0.979751277943084,1.15114061188678,1.06471351186389
1580423766.93375,-1.32204165712978,0.809338521400779,0.831799801632716
1580423766.96613,-2.52860303654536,0.56324101625086,0.294682230869
1580423766.99852,-1.84646372167544,-0.552986953536278,-0.574471656366827
1580423767.0309,-1.41139848935683,-0.433356221866179,-1.4743877317464
1580423767.06329,-1.4060273136492,-0.204837109941252,-1.26442359044785
1580423767.09567,-1.41042191195544,-0.586678873884184,-0.476325627527276
1580423767.12806,-1.09547570000763,-0.165774013885709,0.441168841077285
1580423767.16044,-0.908461127641718,-0.159914549477378,0.440680552376591
1580423767.19283,-0.664805065995269,0.255130846112763,0.46216525520714
1580423767.22522,-0.39136339360647,1.13502708476387,0.743907835507745
1580423767.2576,0.120851453421835,1.58620584420539,0.934340428778516
1580423767.28999,0.572030212863357,0.95875486381323,0.618905928130008
1580423767.32237,0.385992217898831,0.241947051194018,0.382574196993971
1580423767.35476,-0.170656900892652,0.0280766002899213,0.308842603189134
1580423767.38714,-0.699473563744563,0.258548867017623,0.823498893720913
1580423767.41953,-0.70826276035706,1.08668650339513,0.440192263675897
1580423767.45191,-1.07692072938125,1.7307392996109,0.58033112077516
1580423767.4843,-1.23707942320897,-0.341069657434959,1.29958037689784
1580423767.51668,-0.385992217898833,1.5256580453193,0.525154497596706
1580423767.54907,-1.22487220569161,0.379644464789806,-0.457282368200199
1580423767.58154,-1.84353398947128,-0.347417410543985,0.372808422980086
1580423767.61393,-0.106691081101701,0.723399710078585,1.59743648432136
1580423767.64631,-0.327885862516213,0.692149233234151,-0.070557717250324
1580423767.6787,-0.730724040588997,1.28493171587701,1.24928664072633
1580423767.71109,-0.688242923628595,0.727306019684139,1.28395513847562
1580423767.74347,-0.976333257038224,0.817151140611887,1.16237125200275
1580423767.77586,-1.59304188601511,0.52906080720226,0.997329671168078
1580423767.80824,-2.1833829251545,0.145265888456549,0.275638971541923
1580423767.84063,-1.70339513237201,-0.655039291981383,-0.731700617990386
1580423767.87301,-1.60671396963455,-0.719493400473029,-1.51589227130541
1580423767.9054,-1.56862745098039,-0.608651865415426,-1.27956054016938
1580423767.93779,-1.43434805828946,-0.508552681773098,-0.183352407110704
1580423767.97017,-1.11989013504234,0.156008239871824,0.168703746089875
1580423768.00256,-0.916762035553521,0.271732661936369,0.288822766460669
1580423768.03494,-0.608651865415426,0.42456702525368,0.528572518501566
1580423768.06733,-0.0900892652780954,1.0036774242771,0.91773861295491
1580423768.09972,0.574959945067523,0.903578240634776,0.86305027847715
1580423768.1321,0.778088044556345,0.523689631494623,0.618905928130008
1580423768.16449,0.143312733653772,0.368413824673837,0.29126420996414
1580423768.19687,-0.231692988479438,0.603768978408485,0.265873197528038
1580423768.22926,-0.521736476691844,0.761974517433433,0.720958266575114
1580423768.26164,-1.82790875104906,1.72292668039979,0.494392309452962
1580423768.29403,-1.4138399328603,0.0427252613107498,1.17848477912566
1580423768.32642,-0.596444647898069,1.32399481193255,0.632089723048754
1580423768.3588,-0.620370794232089,0.954360265506981,0.278568703746089
1580423768.39119,-2.77470054169528,-1.97000076295109,-0.471442740520333
1580423768.42357,-1.48024719615473,3.05839627679866,0.605722133211263
1580423768.45596,0.0505378805218584,0.482673380636299,1.09840543221179
1580423768.48835,-0.41187151903563,1.20729381246662,1.67409781033036
1580423768.52073,-0.402594033722439,0.321538109407186,1.05250629434653
1580423768.55312,-1.02858014801251,1.00563057907988,1.08668650339513
1580423768.5855,-1.26344701304646,0.623788815136951,0.856702525368124
1580423768.61789,-2.10818646524758,0.582772564278631,0.421637293049514
1580423768.65027,-1.82937361715114,-0.406500343327993,-0.165774013885709
1580423768.68266,-1.49538414587625,-0.667246509498741,-1.19752803845273
1580423768.71505,-1.63112840466926,-0.266849774929428,-1.35622186617838
1580423768.74743,-1.64528877698939,-0.785900663767453,-0.71509880216678
1580423768.77982,-1.12721446555276,-0.316166933699551,0.136964980544747
1580423768.8122,-1.04078736552987,0.116945143816281,0.220462348363469
1580423768.84459,-0.769298847943848,0.198977645532921,0.56324101625086
1580423768.87692,-0.489509422446021,0.903089951934081,0.91773861295491
1580423768.90931,0.0983901731898982,1.08326848249027,1.13063248645762
1580423768.94169,0.592538338292517,0.642832074464028,0.775646601052873
1580423768.97408,0.207766842145418,0.319584954604409,0.382574196993971
1580423769.00647,-0.162355992980849,0.697520408941788,0.286381322957197
1580423769.03885,-0.404058899824522,0.677012283512628,0.614999618524454
1580423769.07124,-1.16676585030899,1.92507820248722,0.62134737163348
1580423769.10362,-1.14430457007706,0.337651636530097,1.35915159838254
1580423769.13601,-0.78443579766537,1.42555886167696,0.836682688639659
1580423769.1684,-0.425055313954376,0.978286411841001,0.414801251239794
1580423769.20078,-2.42703898680095,-2.06668192568856,-0.720469977874417
1580423769.23317,-0.799572747386893,2.21170366979477,0.122804608224612
1580423769.26555,0.899183642328527,0.996841382467384,2.15457389181353
1580423769.29794,-0.537850003814755,0.646738384069582,1.38063630121309
1580423769.33032,-0.457282368200199,0.0139162279697871,1.33034256504158
1580423769.36271,-0.891859311818113,0.974868390936141,1.27370107576104
1580423769.39509,-1.33913176165408,0.718028534370948,0.859143968871596
1580423769.42748,-2.09060807202258,0.504158083466852,0.378667887388417
1580423769.45987,-1.80495918211643,-0.248294804303043,-0.0461432822156098
1580423769.49225,-1.52028686961166,-0.52466620889601,-1.20485236896315
1580423769.52464,-1.70144197756924,-0.515388723582818,-1.36159304188602
1580423769.55702,-1.50319676508736,-0.7390249485008,-0.761486228732739
1580423769.58941,-1.17164873731594,-0.309330891889831,0.134523537041275
1580423769.6218,-1.14283970397497,0.32202639810788,0.47583733882658
1580423769.65418,-0.863538567177844,0.365484092469671,0.289799343862057
1580423769.68657,-0.441168841077287,1.02027924010071,0.737560082398719
1580423769.71895,0.167238879987792,1.21852445258259,0.97584496833753
1580423769.75134,0.773205157549402,0.534920271610591,0.745372701609828
1580423769.78373,0.280033569848172,0.0817883573662925,0.250736247806515
1580423769.81611,-0.246341649500266,0.519295033188374,0.210696574349583
1580423769.8485,-0.635019455252918,0.495368886854351,0.621835660334174
1580423769.88088,-0.879652094300756,1.63308155947204,0.365484092469671
1580423769.91327,-1.10426489662013,1.09205767910277,0.875257495994507
1580423769.94565,-0.91773861295491,0.730235751888305,1.05885404745556
1580423769.97804,-1.42751201647974,0.954360265506981,0.677012283512628
1580423770.01043,-3.40947585259785,-1.63405813687343,-0.320073243305105
1580423770.04281,-0.311772335393302,3.29277485313191,-0.304448004882888
1580423770.0752,0.0407721065079727,0.725352864881362,1.0129549095903
1580423770.10758,-1.07399099717708,0.779552910658428,1.87820248722057
1580423770.13997,-0.00854505226214997,0.411383230334934,1.55837338826581
1580423770.17245,-0.896253910124361,1.10133516441596,1.24391546501869
1580423770.20484,-1.48073548485542,0.763439383535516,0.949477378500038
1580423770.23722,-1.99636835278859,0.418707560845348,0.34253452353704
1580423770.26961,-1.85183489738308,-0.637460898756389,-0.327397573815519
1580423770.302,-1.36208133058671,-0.550545510032807,-1.32448310063325
1580423770.33438,-1.40163271534295,-0.282475013351645,-1.15114061188678
1580423770.36677,-1.42360570687419,-0.444586861982147,-0.489509422446021
1580423770.39915,-1.17116044861524,-0.287846189059282,0.112550545510032
1580423770.43154,-1.1921568627451,0.0192874036774242,0.476325627527274
1580423770.46392,-0.968032349126421,0.319096665903714,0.643808651865417
1580423770.49631,-0.361089494163425,0.903578240634776,0.870374608987564
1580423770.52869,0.26733806363012,1.22145418478675,0.615976195925843
1580423770.56108,0.501228351262686,1.07447928587777,0.571541924162663
1580423770.59346,0.426520180056457,0.635996032654308,0.247318226901655
1580423770.62585,0.0573739223315783,0.3117723353933,0.0217288471808956
1580423770.65823,-0.52808422980087,0.447028305485617,0.585214007782103
1580423770.69062,-0.830334935530633,0.946059357595178,0.79127183947509
1580423770.723,-1.07692072938125,1.24245059891661,0.847913328755627
1580423770.75539,-0.740001525902189,0.441168841077285,1.21022354467079
1580423770.78778,-0.641855497062638,1.13405050736248,0.53589684901198
1580423770.82016,-1.66823834592203,-1.12135500114443,-0.953383688105593
1580423770.85255,-0.45288776989395,1.80984206912337,-0.0769054703593497
1580423770.88493,0.598397802700848,0.949477378500038,2.6272373540856
1580423770.91732,-0.378667887388419,0.416754406042571,1.07399099717708
1580423770.9497,-0.694102388036926,0.242435339894712,1.25465781643397
1580423770.98209,-0.831799801632716,0.910414282444496,1.29079118028534
1580423771.01447,-1.02027924010071,0.745372701609828,1.13600366216525
1580423771.04686,-1.80007629510948,0.597909514000154,0.706309605554285
1580423771.07924,-2.05203326466773,-0.0485847257190812,0.103273060196841
1580423771.11163,-1.64577706569009,-0.594491493095292,-0.742931258106355
1580423771.14401,-1.39137865262837,-0.215091172655832,-1.396749828336
1580423771.1764,-1.36501106279088,-0.43237964446479,-0.954360265506981
1580423771.20879,-1.19459830624857,-0.625253681239032,-0.386480506599527
1580423771.24117,-1.10475318532082,0.0524910353246355,0.310307469291217
1580423771.27356,-1.10475318532082,0.568123903257803,0.554451819638363
1580423771.30594,-0.685801480125123,0.495368886854351,0.623300526436257
1580423771.33833,-0.316655222400245,0.824475471122302,0.862561989776456
1580423771.37071,0.224856946669718,0.761486228732739,1.12037842374304
1580423771.4031,0.530037384603649,0.5427328908217,0.706309605554285
1580423771.43548,-0.320073243305105,0.45874723430228,0.33228046082246
1580423771.46793,-0.430914778362707,0.696543831540399,0.289311055161363
1580423771.50031,-0.498786907759213,0.725841153582056,0.552010376134891
1580423771.5327,-0.998306248569467,1.44460212100404,0.473395895323108
1580423771.56508,-1.03639276722362,0.615487907225148,1.26637674525063
1580423771.59747,-0.675059128709849,1.27370107576104,0.94508278019379
1580423771.62985,-0.337651636530099,1.15016403448539,0.615487907225148
1580423771.66224,-1.6360112916762,-1.71902037079423,0.024170290684367
1580423771.69463,-0.750743877317465,1.56423285267415,-0.195559624628061
1580423771.72701,0.397711146715494,1.0383459220264,2.21951628900587
1580423771.7594,-0.526619363698787,0.552498664835586,0.783947508964676
1580423771.79178,-0.51099412527657,0.229251544975966,1.33229571984436
1580423771.82417,-0.97584496833753,0.936781872281987,1.13698023956664
1580423771.85656,-1.06813153276875,1.01490806439307,0.845471885252156
1580423771.88894,-1.70290684367132,0.411383230334934,0.693614099336234
1580423771.92133,-2.03543144884413,-0.0617685206378269,0.354253452353703
1580423771.95371,-1.60036621652552,-0.508552681773098,-0.613046463721675
1580423771.9861,-1.55007248035401,-0.379644464789807,-1.37233539330129
1580423772.01848,-1.46706340123598,-0.466071564812696,-0.945571068894484
1580423772.05087,-1.15407034409094,-0.628671702143892,-0.271244373235676
1580423772.08326,-1.0036774242771,0.141359578850995,0.330815594720377
1580423772.11564,-1.04274052033265,0.499763485160599,0.615976195925843
1580423772.14803,-0.659922178988326,0.578866254673077,0.608651865415428
1580423772.18041,-0.122316319523918,0.91773861295491,0.734630350194553
1580423772.2128,0.262943465323872,0.766369115739682,0.824475471122302
1580423772.24518,0.602792401007097,0.392339971007857,0.645761806668194
1580423772.27757,-0.0905775539787896,0.161379415579461,0.221927214465552
1580423772.30996,-0.604745555809872,0.60425726710918,0.464606698710611
1580423772.34234,-0.552498664835584,0.954360265506981,0.642832074464028
1580423772.37473,-0.984634164950027,2.31229114213779,0.00610360875867855
1580423772.40711,-1.15309376668955,0.0231937132829785,1.21461814297703
1580423772.4395,-0.882093537804227,0.768322270542459,0.848401617456322
1580423772.47189,-1.10280003051804,-0.397222858014802,-0.568123903257801
1580423772.50427,-0.430914778362707,0.212161440451666,0.117433432516975
1580423772.53666,0.312260624093994,0.741954680704968,3.49150835431449
1580423772.56904,-0.661387045090409,0.214602883955138,0.027588311589227
1580423772.60143,-0.982192721446555,0.464606698710611,0.812268253604945
1580423772.63381,-0.802014190890365,0.88014038300145,1.31422903791867
1580423772.6662,-1.05445944914931,0.844007019150073,1.07008468757153
1580423772.69859,-1.756130312047,0.696543831540399,0.665293354695965
1580423772.73097,-2.01150530251011,-0.125246051728084,0.283939879453726
1580423772.76352,-1.61550316624704,-0.77759975585565,-0.569588769359884
1580423772.7959,-1.44069581139849,-0.434821087968261,-1.25514610513466
1580423772.82829,-1.55349050125887,-0.527595941100175,-1.21852445258259
1580423772.86068,-1.37624170290684,-0.397711146715496,-0.229251544975966
1580423772.89306,-1.04567025253681,-0.167727168688486,0.0339360646982527
1580423772.92545,-1.03736934462501,0.105714503700312,0.567147325856414
1580423772.95783,-0.740001525902189,0.588143739986268,0.889417868314641
1580423772.99022,-0.0612802319371326,0.913832303349356,0.846448462653544
1580423773.02261,0.425055313954374,0.908949416342413,0.521736476691846
1580423773.05499,0.499763485160599,0.850843060959793,0.755138475623713
1580423773.08738,0.138918135347524,0.555916685740446,0.289799343862057
1580423773.11976,-0.138918135347524,0.608163576714734,0.356694895857174
1580423773.15215,-0.362066071564813,0.724376287479974,0.591561760891128
1580423773.18454,-1.59060044251163,1.5935301747158,0.353276874952314
1580423773.21692,-1.29518577859159,-0.372808422980087,1.26637674525063
1580423773.24931,-0.742931258106355,1.62624551766232,0.454352635996031
1580423773.28169,-1.54665445944915,0.864515144579233,0.793224994277868
1580423773.31408,-2.8752880140383,-1.18532082093538,0.0661631189440754
1580423773.34646,-0.365484092469673,3.08183413443198,0.561776150148777
1580423773.37885,-0.555916685740444,0.296147096971083,-0.0495613031204698
1580423773.41123,-1.05201800564584,1.39430838483253,1.71609063859007
1580423773.44362,-0.476325627527276,0.766369115739682,1.28834973678187
1580423773.47601,-1.01539635309377,1.01686121919585,1.20729381246662
1580423773.50839,-1.47682917524987,0.377691309987028,1.01197833218891
1580423773.54078,-2.48123903257801,0.128664072632944,0.381109330891888
1580423773.57316,-1.7727321278706,-0.693125810635538,-0.776623178454262
1580423773.60555,-1.5080796520943,-0.465583276112001,-1.5168688487068
1580423773.63794,-1.36891737239643,-0.362066071564813,-1.0891279468986
1580423773.67032,-1.47780575265126,-0.44946974898909,-0.325932707713436
1580423773.70271,-1.22438391699092,-0.193606469825284,0.155031662470435
1580423773.73509,-1.00709544518196,-0.207278553444723,0.444098573281451
1580423773.76748,-0.690684367132066,0.365484092469671,0.639414053559168
1580423773.79987,-0.144777599755855,1.08131532768749,0.858167391470207
1580423773.83225,0.331792172121766,1.01002517738613,0.741954680704968
1580423773.86464,0.55640497444114,0.58374914168002,0.558358129243917
1580423773.89702,0.0466315709163041,0.334721904325932,0.254154268711375
1580423773.92941,-0.550057221332112,0.646250095368888,0.354253452353703
1580423773.96179,-0.400152590218967,1.34938582436866,0.919203479056993
1580423773.99418,-1.01051346608682,1.76736095216297,0.196536202029449
1580423774.02657,-1.05152971694514,0.173098344396124,1.48561837186236
1580423774.05899,-0.572030212863355,0.78101777676051,0.483649958037688
1580423774.09138,-1.44069581139849,0.823987182421607,0.224368657969023
1580423774.12376,-2.52713817044327,-0.56226443884947,0.289311055161363
1580423774.15615,-0.510505836575875,2.61649500267033,0.658457312886245
1580423774.18853,-0.336186770428016,0.975356679636835,0.108644235904478
1580423774.22092,-0.887464713511864,0.713145647364005,1.44753185320821
1580423774.2533,-0.447516594186313,0.112062256809338,1.2859082932784
1580423774.28569,-0.915297169451438,1.11012436102846,1.11158922713054
1580423774.31808,-1.12428473334859,0.806408789196613,1.01149004348821
1580423774.35046,-2.44608224612802,0.782482642862593,0.550057221332114
1580423774.38285,-2.10330357824063,-0.525642786297398,-0.426031891355764
1580423774.41523,-1.81179522392615,-0.682871747920958,-1.35182726787213
1580423774.44762,-1.66579690241855,-0.288822766460671,-0.985122453650721
1580423774.48001,-1.49440756847486,-0.386968795300222,-0.218020904859998
1580423774.51239,-1.06569008926528,0.0559090562294955,0.0676279850461583
1580423774.54478,-0.847913328755627,0.0124513618677042,0.334721904325932
1580423774.57716,-0.572518501564049,0.468513008316165,0.617441062027925
1580423774.60955,0.0202639810788128,1.1833676661326,1.06227206836042
1580423774.64193,0.602304112306403,0.926039520866713,0.831799801632716
1580423774.67432,0.745372701609828,0.449469748989088,0.61792935072862
1580423774.70671,0.0681162737468526,0.27075608453498,0.231692988479438
1580423774.73909,-0.310307469291219,0.473884184023802,0.256107423514152
1580423774.77148,-0.431403067063401,0.819104295414665,0.474860761425191
1580423774.80386,-1.64138246738384,1.92703135729,0.137941557946135
1580423774.83625,-1.51052109559777,0.0178225375753414,1.3713588158999
1580423774.86864,-0.781506065461205,0.936293583581293,0.720469977874419
1580423774.90102,-0.817151140611887,1.25856412603952,0.385503929198137
1580423774.93341,-2.86942854962997,-1.84939345387961,-0.659433890287632
1580423774.96579,-0.752697032120242,2.56180666819257,0.413336385137711
1580423774.99818,0.409918364232851,0.194583047226672,1.6277103837644
1580423775.03057,-0.877210650797284,0.94508278019379,1.42995345998321
1580423775.06295,-0.373296711680782,0.255130846112763,1.09596398870832
1580423775.09534,-0.947524223697261,0.802502479591059,1.30006866559853
1580423775.12772,-1.20729381246662,0.683360036621654,0.933363851377127
1580423775.16011,-1.98074311436637,0.31519035629816,0.525154497596706
1580423775.19249,-2.02615396353094,-0.257084000915542,-0.0437018387121384
1580423775.22488,-1.44118410009918,-0.437262531471733,-1.05397116044862
1580423775.25727,-1.64382391088731,-0.456794079499504,-1.41481651026169
1580423775.28965,-1.73757534142061,-0.721446555275806,-0.76392767223621
1580423775.32204,-1.17604333562219,-0.0881361104753182,0.197024490730143
1580423775.35437,-1.07887388418402,0.0285648889906156,0.269291218432897
1580423775.38676,-0.822522316319525,0.145265888456549,0.382085908293277
1580423775.41914,-0.401129167620356,0.858655680170902,0.496345464255739
1580423775.45153,0.132082093537804,1.37233539330129,0.749279011215382
1580423775.48391,0.485114824139771,0.93482871747921,0.744884412909133
1580423775.5163,0.318120088502326,0.468513008316165,0.466559853513388
1580423775.54868,-0.179934386205844,0.351812008850231,0.373785000381474
1580423775.58107,-0.655039291981383,0.577401388570994,0.800549324788282
1580423775.61346,-1.01979095140002,1.52761120012207,1.06617837796597
1580423775.64584,-1.34352635996033,0.247318226901655,1.31374074921797
1580423775.67823,-0.841077286945907,1.38600747692073,0.90064850843061
1580423775.71061,-0.440680552376593,1.45290302891584,0.32544441901274
1580423775.743,-1.33376058594644,-0.720469977874417,-0.653574425879301
1580423775.77538,-1.63503471427481,-0.000732433051041426,0.854261081864653
1580423775.80777,0.743907835507745,0.47925535973144,1.48513008316167
1580423775.84016,-0.606698710612649,1.07545586327916,-0.182864118410009
1580423775.87254,-0.823010605020219,0.587655451285574,1.57058060578317
1580423775.90493,-0.740978103303577,0.714610513466088,1.26247043564507
1580423775.93731,-1.02906843671321,0.951430533302815,1.01197833218891
1580423775.9697,-1.63015182726787,0.510994125276572,0.677500572213322
1580423776.00209,-2.36844434271763,0.198001068131532,0.206301976043335
1580423776.03447,-1.94265659571222,-0.762462806134128,-0.626230258640421
1580423776.06686,-1.72292668039979,-0.590096894789044,-1.59890135042344
1580423776.09924,-1.45046158541238,-0.286869611657893,-0.923598077363241
1580423776.13163,-1.17116044861524,-0.334233615625239,-0.227786678873883
1580423776.16401,-1.00856031128405,0.141847867551689,0.0632333867399097
1580423776.1964,-0.788830395971619,0.360112916762034,0.363530937666894
1580423776.22879,-0.656015869382772,0.625741969939728,0.729747463187611
1580423776.26117,-0.261966887922485,0.932875562676433,1.0036774242771
1580423776.29356,0.343022812237734,0.665781643396659,0.902113374532693
1580423776.32594,0.23657587548638,0.3630426489662,0.643320363164722
1580423776.35833,-0.334721904325933,0.586190585183491,0.340093080033569
1580423776.39072,-0.559334706645304,0.90064850843061,0.476325627527274
1580423776.4231,-0.504646372167544,1.20827038986801,0.446540016784922
1580423776.45549,-1.2517280842298,1.13649195086595,0.650644693675137
1580423776.48787,-1.20289921416037,0.0900892652780954,1.04811169604028
1580423776.52026,-0.331792172121768,1.17701991302357,0.928480964370184
1580423776.55264,-0.267338063630122,1.15944151979858,0.0847180895704582
1580423776.58503,-3.12187380788891,-2.05593957427329,-0.186282139314869
1580423776.61742,-1.58669413290608,2.64383916990921,-0.168703746089875
1580423776.64987,0.391851682307163,0.5427328908217,1.43727779049363
1580423776.68226,-0.313237201495385,0.89723048752575,1.63112840466926
1580423776.71464,-0.522713054093233,0.0129396505683985,1.29372091248951
1580423776.74703,-0.969497215228504,0.955825131609064,1.21461814297703
1580423776.77941,-1.03443961242084,0.757579919127185,0.949477378500038
1580423776.8118,-2.32596322575723,0.643808651865417,0.538338292515451
1580423776.84419,-1.93923857480736,-0.242923628595406,0.0476081483176927
1580423776.87657,-1.46901655603876,-0.80836194399939,-0.94850080109865
1580423776.90896,-1.4914778362707,-0.287357900358588,-1.46218051422904
1580423776.94134,-1.50954451819638,-0.670664530403601,-0.984145876249332
1580423776.97373,-1.13698023956664,-0.296147096971085,-0.0290531776913099
1580423777.00612,-1.1579766536965,0.310795757991912,0.558846417944611
1580423777.0385,-1.16432440680552,0.370855268177309,0.734142061493859
1580423777.07089,-0.603768978408484,0.3459525444419,0.686289768825819
1580423777.10327,0.0646982528419926,0.735118638895248,1.09498741130693
1580423777.13566,0.471931029221025,0.759044785229268,0.81861600671397
1580423777.16805,0.484626535439077,0.521736476691846,0.45532921339742
1580423777.20043,-0.247806515602349,0.396734569314106,0.0212405584802013
1580423777.23282,-0.397222858014802,0.733653772793165,0.437262531471731
1580423777.2652,-0.305424582284276,0.935317006179904,0.693614099336234
1580423777.29759,-1.31520561532006,2.58622110322728,0.228274967574578
1580423777.32997,-1.20778210116731,-0.195559624628061,1.28493171587701
1580423777.36236,-0.580331120775158,0.510017547875183,1.11451895933471
1580423777.39474,-1.48805981536584,0.863538567177844,0.347417410543983
1580423777.42713,-2.74491493095293,-0.152590218966964,-0.363530937666896
1580423777.45952,-0.940688181887541,2.73612573434043,1.01441977569238
1580423777.4919,-0.0227054245822842,0.289311055161363,0.898695353627833
1580423777.52429,-0.765392538338293,0.758068207827879,1.52712291142138
1580423777.55667,-0.757091630426491,0.488044556343937,1.10572976272221
1580423777.58906,-1.03932249942779,0.937270160982681,1.0637369344625
1580423777.62145,-1.39919127183948,0.429938200961317,0.936293583581293
1580423777.65383,-2.17898832684825,0.4484931715877,0.559334706645306
1580423777.68622,-1.64626535439078,-0.540779736018921,-0.0329594872968642
1580423777.7186,-1.48854810406653,-0.843030441748684,-1.14869916838331
1580423777.75099,-1.48073548485542,-0.176516365300984,-1.3801480125124
1580423777.78338,-1.39870298313878,-0.536873426413367,-0.662363622491798
1580423777.81576,-1.00856031128405,-0.183840695811398,0.0485847257190812
1580423777.84815,-0.99635309376669,0.374761577782863,0.281498435950255
1580423777.88053,-0.88697642481117,0.383062485694666,0.599862668802931
1580423777.91292,-0.480720225833524,0.624277103837645,0.723887998779279
1580423777.9454,-0.10766765850309,0.905043106736859,0.860608834973679
1580423777.97779,0.324956130312046,0.724376287479974,0.820569161516747
1580423778.01018,0.167238879987792,0.465583276112,0.504646372167546
1580423778.04256,-0.437750820172427,0.537850003814757,0.251224536507209
1580423778.07495,-0.681895170519569,0.792736705577173,0.567635614557108
1580423778.10733,-0.547615777828641,1.2346379797055,0.586678873884185
1580423778.13972,-1.10524147402151,1.18287937743191,0.88355840390631
1580423778.17211,-1.00270084687572,0.43482108796826,1.13502708476387
1580423778.20449,-0.560311284046692,1.18727397573815,0.736583504997331
1580423778.23688,-1.27663080796521,0.0217288471808956,-0.212161440451666
1580423778.26927,-1.14528114747845,0.238040741588463,0.890882734416724
1580423778.30165,0.502693217364769,0.313725490196077,1.74831769283589
1580423778.33404,-0.561287861448081,0.720469977874419,0.179446097505149
1580423778.36643,-0.840100709544519,0.635507743953614,1.10035858701457
1580423778.39881,-0.906507972838941,0.636484321355002,1.32399481193255
1580423778.4312,-1.00709544518196,0.937270160982681,1.06227206836042
1580423778.46358,-1.87869077592126,0.634042877851531,0.631113145647365
1580423778.49597,-1.98709086747539,-0.0764171816586554,0.0944838635843439
1580423778.52836,-1.70827801937896,-0.607675288014038,-0.652597848477912
1580423778.56074,-1.49538414587625,-0.376226443884947,-1.46169222552834
1580423778.59313,-1.51247425040055,-0.608163576714732,-0.944594491493095
1580423778.62552,-1.32545967803464,-0.468024719615473,-0.238040741588463
1580423778.6579,-1.18727397573815,0.121828030823224,0.10766765850309
1580423778.69029,-0.87672236209659,0.432379644464788,0.265384908827343
1580423778.72267,-0.56910048065919,0.55298695353628,0.712657358663311
1580423778.75506,-0.213626306553749,1.29176775768673,0.919691767757687
1580423778.78745,0.536873426413369,0.86988632028687,0.789806973373008
1580423778.81983,0.650156404974442,0.341069657434957,0.631113145647365
1580423778.85222,-0.161379415579461,0.393316548409246,0.102296482795452
1580423778.88461,-0.563241016250858,0.760509651331351,0.651132982375831
1580423778.91699,-0.575448233768215,1.05494773785,0.64185549706264
1580423778.94938,-1.26637674525063,1.28346684977493,0.740001525902191
1580423778.98177,-1.22829022659647,0.235111009384298,0.995864805065995
1580423779.01415,-1.07985046158541,1.41579308766308,0.78101777676051
1580423779.04654,-0.960219729915313,-1.14967574578469,-0.884534981307699
1580423779.07892,-0.00903334096284425,0.855725947966736,0.745372701609828
1580423779.11131,0.732188906691082,0.384039063096054,2.1316243228809
1580423779.1437,-0.885511558709087,0.974380102235447,1.34889753566796
1580423779.17608,-0.379644464789807,0.114015411612115,1.2688181887541
1580423779.20847,-0.709239337758449,0.860608834973679,1.30788128480964
1580423779.24094,-1.05104142824445,0.666758220798048,1.16676585030899
1580423779.27332,-1.94509803921569,0.62476539253834,0.735118638895248
1580423779.30571,-2.13797207598993,-0.0285648889906156,0.106202792401007
1580423779.33809,-1.72683299000534,-0.85963225757229,-0.823498893720913
1580423779.37048,-1.4992904554818,-0.41528953994049,-1.38405432211795
1580423779.40287,-1.44899671931029,-0.39819943541619,-1.01637293049516
1580423779.43525,-1.21071183337148,-0.501228351262684,-0.157473105973907
1580423779.46764,-1.1067063401236,0.127687495231555,0.248294804303043
1580423779.50003,-1.05641260395209,0.353765163653009,0.505622949568934
1580423779.53241,-0.550057221332112,0.535408560311286,0.835217822537576
1580423779.5648,-0.141847867551689,0.916273746852827,1.03981078812848
1580423779.59718,0.486091401541159,0.786388952468148,0.735118638895248
1580423779.62957,0.417242694743265,0.568123903257803,0.477790493629357
1580423779.66196,-0.184328984512092,0.368902113374531,0.112550545510032
1580423779.69434,-0.510505836575875,0.743419546807051,0.510994125276572
1580423779.72673,-0.660410467689021,1.15700007629511,0.513435568780043
1580423779.75912,-1.15895323109789,1.4392309452964,0.439215686274508
1580423779.7915,-1.09694056610971,-0.324467841611353,1.3029983978027
1580423779.82389,-0.646250095368886,1.06910811017014,0.831799801632716
1580423779.85628,-1.11305409323262,0.526131074998094,-0.402594033722439
1580423779.88866,-0.740001525902189,0.151613641565575,1.12672617685206
1580423779.92105,0.829358358129245,-0.286869611657893,2.08474860761425
1580423779.95343,-0.54517433432517,0.868909742885482,-0.292240787365531
1580423779.98582,-0.98609903105211,0.920668345159076,0.976821545738918
1580423780.01821,-0.768322270542459,0.751232166018159,1.30251010910201
1580423780.05059,-1.072526131075,1.04957656214237,1.08522163729305
1580423780.08298,-1.70290684367132,0.564705882352943,0.739513237201496
1580423780.11537,-2.07400625619898,0.0148928053711757,0.157473105973907
1580423780.14775,-1.63991760128176,-0.657969024185549,-0.547615777828641
1580423780.18014,-1.46022735942626,-0.334233615625239,-1.41725795376516
1580423780.21252,-1.51735713740749,-0.488532845044633,-1.15651178759441
1580423780.24491,-1.28834973678187,-0.472419317921721,-0.116456855115587
1580423780.2773,-1.17116044861524,0.172121766994735,0.347417410543983
1580423780.30968,-1.07057297627222,0.185793850614175,0.55640497444114
1580423780.34207,-0.678477149614709,0.513923857480737,0.537361715114063
1580423780.37446,-0.180910963607232,1.03688105592432,0.799084458686199
1580423780.40684,0.517830167086291,1.1574883649958,0.947524223697261
1580423780.43923,0.573983367666134,0.716563668268865,0.560311284046694
1580423780.47161,0.0476081483176927,0.460212100404362,0.214602883955138
1580423780.504,-0.121828030823224,0.548592355230031,0.297123674372472
1580423780.53647,-0.39136339360647,0.351812008850231,0.612069886320288
1580423780.56886,-1.2946974898909,1.82204928664073,0.481696803234911
1580423780.60124,-1.19655146105135,0.53931486991684,1.13990997177081
1580423780.63363,-0.702891584649423,1.2263370717937,0.977798123140307
1580423780.66601,-0.510505836575875,1.32155336842908,0.38696879530022
1580423780.6984,-2.76298161287862,-2.41971465629053,-0.0612802319371326
1580423780.73079,-0.820569161516747,1.93289082169833,0.0832532234683754
1580423780.76318,0.412359807736323,1.29079118028534,2.39481193255512
1580423780.79556,-0.72535286488136,0.616952773327231,1.45778591592279
1580423780.82795,-0.498786907759213,-0.156008239871824,1.19313344014649
1580423780.86034,-0.866956588082704,0.916273746852827,1.30641641870756
1580423780.89272,-0.978774700541695,0.901136797131304,1.04469367513542
1580423780.92511,-1.8840619516289,0.333257038223849,0.792736705577173
1580423780.9575,-2.2942244602121,-0.116456855115587,0.274662394140535
1580423780.98988,-1.5422598611429,-0.918715190356298,-1.12086671244373
1580423781.02227,-1.28493171587701,-0.413336385137713,-1.4738994430457
1580423781.05466,-1.2771190966659,-0.399664301518273,-0.892347600518807
1580423781.08704,-1.48366521705959,-0.467536430914778,-0.443121995880064
1580423781.11943,-1.28688487067979,-0.0466315709163041,0.177981231403066
1580423781.15182,-1.16725413900969,0.0852063782711525,0.761486228732739
1580423781.1842,-0.723887998779277,0.477790493629357,0.779064621957733
1580423781.21659,-0.160402838178072,1.19264515144579,0.854749370565347
1580423781.24898,0.371831845578697,1.1320973525597,0.787365529869536
1580423781.28136,0.582284275577937,0.612069886320288,0.644785229266805
1580423781.31375,0.162355992980849,0.404547188525214,0.275638971541923
1580423781.34614,-0.212649729152361,0.282475013351643,0.25708400091554
1580423781.37852,-0.454840924696727,0.819104295414665,0.461188677805751
1580423781.41091,-0.908949416342413,2.72440680552377,0.255619134813458
1580423781.4433,-1.37233539330129,0.265384908827343,1.27174792095827
1580423781.47568,-0.803967345693142,0.397711146715494,0.946547646295873
1580423781.50807,-0.865003433279927,1.00904859998474,0.678477149614711
1580423781.54046,-2.40994888227665,-1.35036240177005,-0.462653543907836
1580423781.57284,-1.32741283283742,2.74247348744946,0.589608606088351
1580423781.60523,0.305424582284274,0.418707560845348,1.35573357747768
1580423781.63762,-0.363042648966202,0.952407110704204,1.73220416571298
1580423781.67,-0.318120088502328,-0.10766765850309,1.19752803845273
1580423781.70239,-1.00123598077363,0.872327763790341,1.27858396276799
1580423781.73478,-0.902601663233387,0.992446784161135,1.09010452429999
1580423781.76717,-1.99197375448234,0.51197070267796,0.53931486991684
1580423781.79955,-2.30399023422599,-0.00317387655451284,-0.10766765850309
1580423781.83206,-1.70827801937896,-0.838635843442436,-0.920668345159076
1580423781.86445,-1.49343099107347,-0.38110933089189,-1.39919127183948
1580423781.89684,-1.34645609216449,-0.230228122377355,-0.769787136644542
1580423781.92922,-1.2946974898909,-0.484626535439078,-0.0158693827725642
1580423781.96161,-1.17897306782635,0.215091172655832,0.374273289082169
1580423781.994,-0.988540474555581,0.0627450980392155,0.452887769893948
1580423782.02638,-0.586678873884184,0.545174334325171,0.940199893186847
1580423782.05877,0.0114747844663157,0.95533684290837,0.859143968871596
1580423782.09116,0.367925535973143,0.864515144579233,0.645761806668194
1580423782.12355,0.280033569848172,0.679942015716794,0.495857175555045
1580423782.15593,-0.108644235904478,0.637949187457085,0.29810025177386
1580423782.18832,-0.288334477759976,0.461188677805751,0.519295033188374
1580423782.22071,-0.464606698710613,1.14723430228122,0.5427328908217
1580423782.2531,-1.17555504692149,1.84792858777752,0.3972228580148
1580423782.28548,-1.05152971694514,0.195559624628061,1.45729762722209
1580423782.31787,-0.402594033722439,0.76734569314107,0.923109788662547
1580423782.35026,-1.36452277409018,0.903089951934081,0.323002975509269
1580423782.38264,-2.29764248111696,0.217532616159303,0.293217364766917
1580423782.41503,-0.102784771496147,0.927504386968796,2.09890897993439
1580423782.44742,-0.299076829175251,0.122804608224612,-0.0798352025635154
1580423782.47981,-0.92457465476463,1.22731364919509,1.70144197756924
1580423782.51219,-0.743419546807049,0.89723048752575,1.3371786068513
1580423782.54458,-1.10182345311665,0.771740291447319,1.01197833218891
1580423782.57697,-1.70925459678035,0.354741741054397,0.755626764324408
1580423782.60936,-2.14090180819409,-0.248294804303043,0.28784618905928
1580423782.64174,-1.78835736629282,-0.779064621957733,-0.719005111772335
1580423782.67413,-1.53005264362554,-0.569588769359884,-1.45046158541238
1580423782.70652,-1.35036240177005,-0.440192263675899,-0.841565575646602
1580423782.7389,-1.07789730678263,-0.472907606622416,-0.320073243305105
1580423782.77129,-1.05445944914931,0.102784771496147,0.142824444953078
1580423782.80368,-0.959731441214618,0.678477149614711,0.486579690241854
1580423782.83607,-0.750743877317465,0.629648279545282,0.900160219729916
1580423782.86845,-0.347905699244679,0.816174563210499,0.980727855344472
1580423782.90084,0.236087586785686,0.715098802166782,0.787365529869536
1580423782.93323,0.297123674372472,0.63843747615778,0.632578011749448
1580423782.96562,-0.161867704280155,0.90064850843061,0.320561532005797
1580423782.998,-0.347417410543985,0.854749370565347,0.3630426489662
1580423783.03039,-0.636972610055695,1.05934233615625,0.323979552910657
1580423783.06278,-1.32106507972839,0.928480964370184,0.968520637827115
1580423783.09516,-1.20387579156176,0.340581368734263,1.00807202258335
1580423783.12762,-0.214602883955138,1.71950865949493,0.474372472724497
1580423783.16001,-0.610116731517509,0.752208743419548,0.225833524071106
1580423783.1924,-3.14140535591669,-2.25369649805448,0.58374914168002
1580423783.22479,-0.590096894789044,1.7136491950866,-0.97242694743267
1580423783.25717,-0.204837109941252,1.76833752956436,0.43823910887312
1580423783.28956,-0.552498664835584,0.718028534370948,1.35963988708324
1580423783.32195,-0.541268024719615,0.201907377737086,1.26247043564507
1580423783.35433,-1.08668650339513,1.21315327687495,0.999282825970855
1580423783.38672,-1.34889753566796,0.761974517433433,0.826428625925079
1580423783.41911,-2.17947661554894,0.571541924162663,0.404547188525214
1580423783.4515,-1.70730144197757,-0.453376058594644,-0.0466315709163041
1580423783.48388,-1.39430838483253,-0.546150911726558,-1.01832608529793
1580423783.51627,-1.43044174868391,-0.293217364766919,-1.2942092011902
1580423783.54866,-1.47243457694362,-0.547615777828641,-0.705333028152895
1580423783.58105,-1.28395513847562,-0.352788586251622,0.0290531776913099
1580423783.61343,-1.19948119325551,0.063721675440604,0.362066071564811
1580423783.64582,-0.971938658731975,0.313725490196077,0.452399481193254
1580423783.67821,-0.636484321355001,0.810803387502862,0.60425726710918
1580423783.71059,-0.154543373769741,1.2429388876173,0.829358358129245
1580423783.74298,0.424078736552985,0.843518730449379,0.782970931563288
1580423783.77537,0.552498664835586,0.36987869077592,0.643808651865417
1580423783.80776,-0.0866712443732354,0.282963302052337,0.337651636530097
1580423783.84014,-0.457282368200199,0.60083924620432,0.486579690241854
1580423783.87253,-0.477302204928664,0.91773861295491,0.645761806668194
1580423783.90492,-1.36794079499504,1.78493934538796,0.568612191958497
1580423783.93731,-1.15309376668955,-0.0939955748836496,1.23561455710689
1580423783.96969,-0.389898527504387,1.60817883573663,0.47925535973144
1580423784.00208,-1.49831387808042,0.719493400473031,0.210696574349583
1580423784.03447,-2.2258640421149,-0.727306019684137,0.363530937666894
1580423784.06685,-0.660410467689021,2.52664988174258,1.11549553673609
1580423784.09924,-0.49732204165713,0.544686045624477,-0.444586861982147
1580423784.13163,-1.13307392996109,1.1067063401236,0.968032349126421
1580423784.16402,-0.544197756923781,0.714122224765394,1.20778210116731
1580423784.1964,-0.754650186923019,0.96217288471809,1.19606317235065
1580423784.22879,-1.24000915541314,0.620859082932785,1.04078736552987
1580423784.26118,-2.05935759517815,0.459723811703668,0.531013962005037
1580423784.29357,-2.10379186694133,-0.32642099641413,-0.144289311055161
1580423784.32595,-1.68972304875257,-0.799572747386893,-1.20534065766384
1580423784.35834,-1.43825436789502,-0.446540016784924,-1.18043793392843
1580423784.39073,-1.58376440070191,-0.584725719081407,-0.6877546349279
1580423784.42322,-1.17262531471733,0.0231937132829785,0.0544441901274126
1580423784.45561,-0.987563897154192,0.286381322957197,0.102296482795452
1580423784.48799,-0.791760128175785,0.124269474326695,0.533943694209203
1580423784.52038,-0.547615777828641,0.612558175020983,0.85963225757229
1580423784.55277,0.0759288929579611,0.806408789196613,0.905531395437553
1580423784.58515,0.381109330891888,0.662363622491799,0.756603341725796
1580423784.61754,0.0354009308003356,0.715098802166782,0.455817502098114
1580423784.64993,-0.269291218432899,0.807385366598002,0.279056992446783
1580423784.68231,-0.547127489127947,0.785412375066759,0.689707789730679
1580423784.7147,-0.854261081864653,0.99635309376669,0.320073243305103
1580423784.74709,-1.10817120622568,1.03443961242084,1.31276417181659
1580423784.77948,-0.574959945067521,0.708262760357062,1.08668650339513
1580423784.81186,-0.786388952468148,1.38698405432212,0.739513237201496
1580423784.84425,-2.72489509422446,-1.32594796673533,-0.603280689707789
1580423784.87664,-0.619882505531395,2.34647135118639,-0.185305561913481
1580423784.90903,0.331792172121766,0.519783321889069,1.37575341420615
1580423784.94141,-0.990981918059052,1.43044174868391,2.03103685053788
1580423784.9738,-0.268802929732205,0.599374380102237,1.10524147402151
1580423785.00619,-0.933363851377127,0.736583504997331,1.05690089265278
1580423785.03857,-1.4055390249485,0.593026626993211,0.879652094300756
1580423785.07096,-2.02468909742885,0.37671473258564,0.439215686274508
1580423785.10335,-1.81472495613031,-0.276127260242619,-0.0920424200808725
1580423785.13574,-1.48952468146792,-0.495857175555047,-1.06129549095903
1580423785.16812,-1.47975890745403,-0.412848096437019,-1.31618219272145
1580423785.20051,-1.39870298313878,-0.48364995803769,-0.690684367132066
1580423785.2329,-1.04176394293126,-0.184328984512092,-0.0104982070649271
1580423785.26529,-1.04762340733959,-0.0202639810788128,0.0793469138628211
1580423785.29767,-1.08180361638819,0.200930800335698,0.724864576180668
1580423785.33006,-0.755138475623713,0.620370794232091,0.940688181887541
1580423785.36245,-0.114991989013504,0.92457465476463,0.968032349126421
1580423785.39483,0.216556038757915,0.964126039520867,0.809826810101473
1580423785.42722,0.063721675440604,0.836194399938964,0.456794079499502
1580423785.45961,-0.0764171816586554,0.622812237735562,0.137941557946135
1580423785.492,-0.50415808346685,0.896253910124361,0.522713054093234
1580423785.52438,-0.53833829251545,0.97926298924239,0.622323949034868
1580423785.55677,-1.31081101701381,0.735606927595942,1.11354238193332
1580423785.58916,-0.937270160982681,0.756603341725796,1.27077134355688
1580423785.62155,-0.484138246738384,1.39333180743114,0.543221179522394
1580423785.65393,-1.20143434805829,-0.279545281147479,-0.48364995803769
1580423785.68632,-1.43337148088808,0.0993667505912867,1.22243076218814
1580423785.71881,0.623788815136951,0.340581368734263,1.56374456397345
1580423785.7512,-0.544686045624475,1.27272449835965,-0.300541695277333
1580423785.78359,-0.833264667734799,0.859143968871596,1.19069199664301
1580423785.81597,-0.771252002746625,0.564217593652248,1.39235523002975
1580423785.84836,-0.81519798580911,0.980239566643778,1.02223239490349
1580423785.88075,-1.74099336232547,0.591561760891128,0.625741969939728
1580423785.91314,-2.29080643930724,0.11792172121767,0.0402838178072784
1580423785.94552,-1.89626916914626,-0.837170977340353,-0.728282597085526
1580423785.97791,-1.7990997177081,-0.714122224765392,-1.64187075608453
1580423786.0103,-1.65505455100328,-0.206790264744029,-1.2092469672694
1580423786.04269,-1.20778210116731,-0.454840924696727,-0.193606469825284
1580423786.07508,-0.969985503929198,0.158937972075989,0.378667887388417
1580423786.10746,-0.783459220263982,-0.142336156252384,0.302983138780803
1580423786.13985,-0.529549095902953,0.242435339894712,0.752208743419548
1580423786.17224,-0.248783093003738,1.04908827344167,0.978286411841001
1580423786.20463,0.250736247806515,0.634042877851531,0.548592355230031
1580423786.23701,0.201419089036392,0.487067978942548,0.555916685740446
1580423786.2694,-0.267826352330816,0.760997940032045,0.135500114442664
1580423786.30179,-0.526131074998093,1.06715495536736,0.265873197528038
1580423786.33418,-0.667246509498741,1.63796444647898,0.815686274509805
1580423786.36656,-1.47048142214084,0.616464484626537,0.924086366063936
1580423786.39895,-1.10914778362707,0.58033112077516,1.20582894636454
1580423786.43134,-0.469001297016861,1.15407034409094,0.673105973907074
1580423786.46373,-0.979751277943084,-0.241947051194018,-0.523689631494621
1580423786.49612,-1.53542381933318,0.271732661936369,1.14576943617914
1580423786.5285,0.82887006942855,0.140871290150301,0.841565575646602
1580423786.56089,-0.576913099870298,1.31715877012283,-0.326909285114825
1580423786.59328,-0.763439383535516,0.621835660334174,1.1916685740444
1580423786.62567,-0.599862668802929,0.498298619058517,1.41481651026169
1580423786.65805,-0.957778286411841,1.07985046158541,1.07594415197986
1580423786.69044,-1.34010833905547,0.627695124742505,0.883070115205616
1580423786.72283,-2.26102082856489,0.394781414511328,0.308842603189134
1580423786.75522,-2.02761882963302,-0.489997711146716,-0.548104066529335
1580423786.78761,-1.6023193713283,-0.602792401007095,-1.50417334248875
1580423786.81999,-1.51003280689708,-0.361577782864119,-1.01539635309377
1580423786.85238,-1.23268482490272,-0.548104066529335,-0.264408331425956
1580423786.88477,-1.03492790112154,-0.141359578850995,0.118410009918364
1580423786.91716,-1.0637369344625,0.280033569848172,0.320561532005797
1580423786.94954,-0.693614099336232,0.481696803234911,0.747325856412605
1580423786.98193,-0.348393987945373,0.908949416342413,1.13014419775692
1580423787.01446,0.170656900892652,0.696543831540399,0.665781643396659
1580423787.04685,0.12475776302739,0.618417639429314,0.598397802700848
1580423787.07924,-0.31958495460441,1.03053330281529,0.261966887922483
1580423787.11163,-0.204348821240558,1.00953688868544,0.330815594720377
1580423787.14402,-0.358648050659953,0.785412375066759,0.465583276112
1580423787.1764,-0.802502479591059,1.06324864576181,1.03248645761807
1580423787.20879,-1.08033875028611,0.472907606622414,1.17555504692149
1580423787.24118,-0.532967116807813,1.84255741206989,0.711680781261922
1580423787.27357,-0.574471656366827,0.966079194323644,0.446051728084228
1580423787.30595,-2.75370412756542,-2.63944457160296,0.0295414663920042
1580423787.33834,-0.767833981841765,1.92068360418097,-0.543709468223087
1580423787.37073,0.592050049591823,1.50222018768597,2.24832532234684
1580423787.40312,-0.543221179522392,0.450446326390477,1.679468986038
1580423787.4355,-0.38794537270161,-0.250247959105822,1.3459678034638
1580423787.46789,-0.913832303349356,1.30543984130617,1.16237125200275
1580423787.50028,-1.16432440680552,0.971938658731975,0.989028763256275
1580423787.53267,-1.86892500190738,0.383062485694666,0.516365300984209
1580423787.56506,-2.13992523079271,0.00659189745937283,-0.0422369726100555
1580423787.59744,-1.58327611200122,-0.813733119707027,-0.873792629892424
1580423787.62983,-1.50124361028458,-0.344487678339819,-1.43727779049363
1580423787.66222,-1.4914778362707,-0.385015640497445,-0.827405203326467
1580423787.69461,-1.28395513847562,-0.431891355764096,0.0832532234683754
1580423787.72699,-1.24098573281453,0.142336156252384,0.467048142214082
1580423787.75938,-1.00172426947433,0.185793850614175,0.464606698710611
1580423787.79177,-0.560799572747387,0.821057450217442,0.704356450751508
1580423787.82416,-0.0124513618677042,1.31911192492561,0.757091630426491
1580423787.85655,0.516365300984209,0.901136797131304,0.666269932097354
1580423787.88893,0.465583276112,0.467048142214082,0.384039063096054
1580423787.92132,-0.044678416113527,0.53931486991684,0.172121766994735
1580423787.95371,-0.413824673838407,0.728282597085528,0.459723811703668
1580423787.9861,-0.56568245975433,0.569588769359886,0.549080643930726
1580423788.01848,-1.33034256504158,1.36452277409018,0.759044785229268
1580423788.05087,-0.96900892652781,0.313237201495383,1.10328831921874
1580423788.08326,-0.597421225299458,1.63894102388037,0.602304112306403
1580423788.11565,-1.43532463569085,-0.0617685206378269,0.0197756923781185
1580423788.14804,-1.54665445944915,-0.0764171816586554,0.631113145647365
1580423788.18042,0.00561532005798426,1.46999313344014,1.87722590981918
1580423788.21281,-0.76734569314107,0.806897077897307,-0.600839246204318
1580423788.2452,-0.648691538872358,0.779064621957733,0.812756542305639
1580423788.27759,-0.754650186923019,0.844983596551462,1.35573357747768
1580423788.31009,-0.862561989776456,0.920668345159076,1.10133516441596
1580423788.34248,-1.35719844357977,0.671641107804991,0.866956588082704
1580423788.37486,-2.05593957427329,0.411871519035628,0.265873197528038
1580423788.40725,-1.75124742504006,-0.444586861982147,-0.199465934233615
1580423788.43964,-1.44509040970474,-0.516365300984207,-1.06959639887083
1580423788.47203,-1.48561837186236,-0.502204928664073,-1.19557488364996
1580423788.50442,-1.3630579079881,-0.69459067673762,-0.652109559777218
1580423788.53681,-1.2688181887541,-0.310307469291219,0.0881361104753182
1580423788.56919,-1.26393530174716,0.248783093003738,0.45191119249256
1580423788.60158,-0.981216144045167,0.396246280613411,0.468513008316165
1580423788.63397,-0.611093308918898,0.848889906157016,0.835217822537576
1580423788.66636,0.0568856336308841,1.05885404745556,1.01734950789654
1580423788.69875,0.555916685740446,0.696543831540399,0.803967345693142
1580423788.73113,0.133546959639887,0.406988632028686,0.404547188525214
1580423788.76352,-0.247318226901655,0.406500343327991,0.159426260776684
1580423788.79591,-0.674082551308461,0.81519798580911,0.533455405508509
1580423788.8283,-0.829846646829939,1.60817883573663,0.302006561379415
1580423788.86069,-1.11403067063401,0.625253681239034,0.918226901655604
1580423788.89308,-0.933363851377127,0.613534752422371,1.32497138933394
1580423788.92546,-0.199465934233615,1.29176775768673,0.884046692607004
1580423788.95785,-1.54567788204776,-1.22389562829023,-0.805920500495919
1580423788.99024,-1.58571755550469,0.465094987411305,0.887464713511864
1580423789.02263,1.35817502098115,0.178957808804455,1.41091020065614
1580423789.05502,-0.183352407110704,0.656504158083468,0.687754634927902
1580423789.08741,-0.885023270008393,-0.073975738155184,1.05641260395209
1580423789.11979,-0.984145876249332,0.91773861295491,1.34792095826657
1580423789.15218,-0.785412375066759,0.652597848477914,1.06129549095903
1580423789.18457,-1.56618600747692,0.619394216830703,0.788830395971619
1580423789.21696,-2.14724956130312,0.47241931792172,0.23657587548638
1580423789.24935,-1.81863126573587,-0.453376058594644,-0.269291218432899
1580423789.28173,-1.42067597467002,-0.556404974441138,-1.09108110170138
1580423789.31412,-1.38210116731518,-0.153566796368352,-1.18239108873121
1580423789.34651,-1.3718471046006,-0.68091859311818,-0.535896849011978
1580423789.3789,-1.05787747005417,-0.352788586251622,0.131105516136415
1580423789.41129,-1.36891737239643,0.453376058594642,0.473884184023802
1580423789.44368,-0.894789044022279,0.406500343327991,0.46216525520714
1580423789.47606,-0.469001297016861,0.842053864347296,0.939711604486153
1580423789.50845,0.240482185091935,0.886488136110476,0.904554818036164
1580423789.54084,0.538338292515451,0.536385137712674,0.679453727016099
1580423789.57323,-0.00219729915312428,0.547127489127949,0.31519035629816
1580423789.60574,-0.322026398107882,0.885999847409781,0.177492942702372
1580423789.63813,-0.404058899824522,0.898695353627833,0.663828488593882
1580423789.67052,-0.528572518501564,0.579842832074466,0.839612420843824
1580423789.70291,-1.42555886167697,0.250736247806515,1.45925078202487
1580423789.7353,-0.976821545738918,1.21217669947356,0.90064850843061
1580423789.76769,-0.208743419546806,2.18924238956283,0.213626306553749
1580423789.80007,-1.09938200961318,-0.768810559243153,-0.833264667734799
1580423789.83246,-1.48659494926375,0.10083161669337,1.09742885481041
1580423789.86485,0.773205157549402,0.198001068131532,1.44118410009918
1580423789.89724,-0.483161669336996,1.38307774471656,1.28786144808118
1580423789.92963,-0.544197756923781,-0.107179369802395,1.40407415884642
1580423789.96202,-0.994399938963912,0.781506065461205,1.29811551079576
1580423789.99441,-0.925062943465324,0.934340428778516,0.904554818036164
1580423790.0268,-1.74489967193103,0.447028305485617,0.533455405508509
1580423790.05919,-2.00955214770733,-0.0886243991760125,0.191165026321812
1580423790.09157,-1.44557869840543,-0.44605172808423,-0.389898527504387
1580423790.12396,-1.27077134355688,-0.299565117875945,-1.09742885481041
1580423790.15635,-1.28493171587701,-0.45288776989395,-1.21998931868467
1580423790.18874,-1.24635690852216,-0.583749141680018,-0.49732204165713
1580423790.22113,-1.20241092545968,-0.0993667505912867,0.127199206530861
1580423790.25352,-1.46022735942626,0.964126039520867,0.682871747920959
1580423790.2859,-1.09401083390555,0.385015640497443,0.594979781795988
1580423790.31829,-0.453864347295339,0.533943694209203,0.811291676203556
1580423790.35068,0.344487678339817,0.726817730983445,1.16481269550622
1580423790.38307,0.741466392004273,0.550545510032808,0.709727626459145
1580423790.41546,0.00122072175173571,0.462653543907834,0.116456855115587
1580423790.44785,-0.217044327458609,0.755138475623713,0.324467841611352
1580423790.48024,-0.391851682307164,0.716563668268865,0.588632028686963
1580423790.51263,-1.00318913557641,1.64675364309148,0.851331349660487
1580423790.54501,-1.15651178759441,-0.296147096971085,1.48757152666514
1580423790.5774,-0.782970931563288,1.80837720302129,0.780041199359122
1580423790.60979,-1.70876630807965,1.37526512550545,0.237552452887769
1580423790.64218,-2.53397421225299,-1.33815518425269,-0.414801251239796
1580423790.67457,-1.04615854123751,3.04765392538338,1.4992904554818
1580423790.70696,-0.186770428015564,0.824475471122302,-0.564217593652247
1580423790.73935,-1.08668650339513,1.25758754863813,1.33864347295338
1580423790.77174,-0.586190585183489,0.593026626993211,1.34987411306935
1580423790.80412,-0.905043106736859,0.95191882200351,1.11696040283818
1580423790.83651,-1.41286335545892,0.627695124742505,0.847913328755627
1580423790.8689,-2.01297016861219,0.247806515602349,0.365972381170366
1580423790.90137,-1.98269626916915,-0.080811779964904,-0.112550545510032
1580423790.93376,-1.19655146105135,-0.406500343327993,-0.854749370565347
1580423790.96615,-1.53298237582971,-0.328862439917602,-1.24049744411383
1580423790.99853,-1.45534447241932,-0.513923857480735,-0.805920500495919
1580423791.03092,-1.22194247348745,-0.354253452353705,-0.0139162279697871
1580423791.06331,-1.34059662775616,0.227298390173189,0.503669794766157
1580423791.0957,-1.0378576333257,0.327885862516212,0.552010376134891
1580423791.12809,-0.561776150148775,0.604745555809874,0.761974517433433
1580423791.16048,0.0295414663920042,0.901136797131304,1.09254596780346
1580423791.19287,0.662851911192494,0.763439383535516,0.888929579613947
1580423791.22526,0.3288624399176,0.482673380636299,0.357183184557869
1580423791.25765,-0.293705653467613,0.507087815671017,0.103761348897535
1580423791.29004,-0.493415732051576,0.730235751888305,0.448981460288394
1580423791.32243,-0.830823224231327,1.23366140230411,0.00708018616006711
1580423791.35482,-1.16334782940413,1.19362172884718,0.882093537804227
1580423791.3872,-1.02174410620279,-0.171633478294041,1.67800411993591
1580423791.41959,-1.08766308079652,1.69948882276646,1.28688487067979
1580423791.45198,-3.24443427176318,-0.861585412375067,-1.11842526894026
1580423791.48437,-0.573006790264744,2.63114366369116,0.50513466086824
1580423791.51676,0.299565117875943,-0.668711375600823,0.213138017853055
1580423791.54915,-1.38698405432212,2.14676127260243,1.12037842374304
1580423791.58154,-0.416266117341879,0.872816052491036,1.13600366216525
1580423791.61393,-1.02320897230488,0.453376058594642,1.10377660791943
1580423791.64632,-1.3884489204242,0.763439383535516,0.771252002746625
1580423791.67871,-2.01150530251011,0.320073243305103,0.232181277180132
1580423791.7111,-1.68825818265049,-0.399176012817579,-0.191653315022506
1580423791.74348,-1.40260929274434,-0.277592126344702,-1.02272068360418
1580423791.77587,-1.48952468146792,-0.447516594186313,-1.11842526894026
1580423791.80826,-1.44264896620127,-0.37085526817731,-0.608163576714732
1580423791.84065,-1.1067063401236,-0.112062256809338,-0.146242465857938
1580423791.87304,-1.18239108873121,0.171633478294041,0.285404745555809
1580423791.90543,-0.954360265506981,0.3117723353933,0.790295262073702
1580423791.93782,-0.566659037155718,0.477302204928662,1.16237125200275
1580423791.97021,0.103761348897535,0.512458991378654,1.30446326390478
1580423792.0026,0.502204928664074,0.618905928130008,0.709239337758451
1580423792.03499,0.00512703135728998,0.721934843976502,0.197024490730143
1580423792.06738,-0.130617227435721,0.836682688639659,-0.0612802319371326
1580423792.09977,-0.40503547722591,1.36012817578393,0.172610055695429
1580423792.13215,-0.631601434348058,1.51979858091097,0.350835431448843
1580423792.16454,-1.47536430914778,0.0236820019836728,1.52468146791791
1580423792.19705,-0.969497215228504,0.700938429846648,1.53347066453041
1580423792.22944,-0.775646601052873,1.13160906385901,0.923109788662547
1580423792.26183,-2.56668955519951,-1.54665445944915,-1.17018387121385
1580423792.29422,-0.649179827573052,2.90312046997787,0.681895170519571
1580423792.32661,0.247806515602349,0.134523537041275,2.26785687037461
1580423792.359,-0.514900434882124,1.02320897230488,1.57058060578317
1580423792.39139,-0.315190356298162,0.310307469291217,1.39821469443809
1580423792.42378,-0.885511558709087,0.849866483558404,1.18385595483329
1580423792.45616,-1.16432440680552,0.680918593118182,1.01441977569238
1580423792.48855,-1.80788891432059,0.490485999847408,0.559822995346
1580423792.52094,-2.10183871213855,-0.227298390173189,0.140383001449607
1580423792.55333,-1.70974288548104,-0.754650186923019,-0.848401617456322
1580423792.58572,-1.33034256504158,-0.123781185626001,-1.47536430914778
1580423792.61811,-1.508567940795,-0.544197756923781,-1.01002517738613
1580423792.6505,-1.44899671931029,-0.786877241168842,-0.34351110093843
1580423792.68289,-1.25123979552911,-0.175539787899595,0.23999389639124
1580423792.71528,-1.18629739833677,0.385503929198137,0.690684367132068
1580423792.74767,-0.508552681773098,0.665781643396659,0.785412375066759
1580423792.78006,-0.0183108262760356,1.04615854123751,1.02223239490349
1580423792.81245,0.668223086900131,0.941176470588236,0.571053635461968
1580423792.84484,0.598886091401543,0.742931258106356,0.527107652399483
1580423792.87722,-0.158449683375295,0.428473334859234,0.0710460059510183
1580423792.90961,-0.286869611657893,0.343022812237734,0.431891355764094
1580423792.942,-0.347417410543985,1.38454261081865,0.477302204928662
1580423792.97439,-1.14381628137636,1.80984206912337,0.186770428015564
1580423793.00678,-0.98951705195697,-0.317631799801633,1.70974288548104
1580423793.03917,-0.523201342793927,1.20973525597009,0.813244831006333
1580423793.07156,-1.65065995269703,0.443610284580757,-0.189211871519035
1580423793.10395,-0.802502479591059,-0.0388189517051956,0.722423132677196
1580423793.13634,0.617441062027925,0.268314641031509,2.36356145571069
1580423793.16873,-0.352788586251622,0.479743648432134,0.261478599221789
1580423793.20112,-0.86988632028687,0.574471656366828,1.02369726100557
1580423793.23351,-1.05006485084306,0.759044785229268,1.37380025940337
1580423793.26589,-0.985610742351415,0.76734569314107,1.04029907682918
1580423793.29828,-1.69851224536507,0.633066300450142,0.566170748455026
1580423793.33067,-2.01297016861219,0.0046387426565957,0.117433432516975
1580423793.36306,-1.5764400701915,-0.531013962005035,-0.424567025253682
1580423793.39545,-1.2522163729305,-0.305424582284276,-1.27174792095827
1580423793.42784,-1.337666895552,-0.40503547722591,-0.824963759822996
1580423793.46023,-1.2693064774548,-0.67750057221332,-0.323491264209965
1580423793.49271,-1.21217669947356,0.0139162279697871,0.128664072632944
1580423793.52509,-1.19411001754787,0.572030212863357,0.494880598153657
1580423793.55748,-0.835217822537576,0.435797665369648,0.53589684901198
1580423793.58987,-0.433844510566873,0.881116960402839,0.747325856412605
1580423793.62226,0.226810101472495,1.03297474631876,0.924086366063936
1580423793.65465,0.639902342259862,0.707774471656368,0.720958266575114
1580423793.68704,0.0339360646982527,0.449958037689782,0.348882276646066
1580423793.71943,-0.173586633096818,0.595468070496683,0.261478599221789
1580423793.75182,-0.34692912184329,0.523689631494623,0.778088044556345
1580423793.78421,-0.792736705577173,1.46950484473945,0.734630350194553
1580423793.8166,-1.23317311360342,0.196536202029449,1.34206149385824
1580423793.84899,-0.753673609521631,1.82107270923934,0.860608834973679
1580423793.88138,-0.821545738918136,1.27174792095827,0.653086137178608
1580423793.91376,-2.45389486533913,-2.45926604104677,-0.554940108339055
1580423793.94615,-0.83570611123827,2.27859922178988,0.93482871747921
1580423793.97854,0.616952773327231,-0.723887998779277,1.15407034409094
1580423794.01093,-0.848401617456322,1.35671015487907,1.08033875028611
1580423794.04332,-0.594003204394598,0.519295033188374,1.18483253223468
1580423794.07571,-0.901136797131304,0.976333257038224,1.22047760738537
1580423794.1081,-1.09938200961318,0.659922178988328,0.98609903105211
1580423794.14049,-2.08474860761425,0.544686045624477,0.435797665369648
1580423794.17288,-2.09988555733577,-0.175539787899595,-0.0236820019836728
1580423794.20527,-1.4226291294728,-0.69800869764248,-0.6877546349279
1580423794.23766,-1.37770656900893,-0.378179598687725,-1.34694438086519
1580423794.27005,-1.39919127183948,-0.53833829251545,-0.971938658731975
1580423794.30243,-1.16432440680552,-0.558358129243915,-0.206790264744029
1580423794.33482,-1.26393530174716,0.258548867017623,0.11108567940795
1580423794.36721,-1.16578927290761,0.397711146715494,0.574471656366828
1580423794.3996,-0.899671931029221,0.37671473258564,1.00514229037919
1580423794.43199,-0.279056992446785,0.785900663767453,1.11842526894026
1580423794.46438,0.317143511100937,0.862073701075762,0.530525673304343
1580423794.49677,0.430914778362705,1.15114061188678,0.397711146715494
1580423794.52916,-0.0661631189440754,1.24684519722286,0.116945143816281
1580423794.56155,0.0300297550926985,0.92457465476463,0.12133974212253
1580423794.59394,-0.173586633096818,0.85621423666743,0.351323720149537
1580423794.62633,-0.859143968871596,1.72439154650187,0.988052185854887
1580423794.65872,-1.18825055313954,-0.0363775082017241,1.22243076218814
1580423794.6911,-0.686289768825818,0.858167391470207,0.812756542305639
1580423794.72349,-0.977309834439613,1.31276417181659,0.474860761425191
1580423794.75588,-2.95487907225147,-2.22049286640726,0.0632333867399097
1580423794.78839,-0.982192721446555,2.43631647211414,0.169680323491264
1580423794.82078,0.333745326924543,0.943617914091707,0.935805294880598
1580423794.85317,-0.765880827038988,0.727306019684139,1.60964370183871
1580423794.88556,-0.644785229266803,0.183840695811398,1.32399481193255
1580423794.91795,-0.903578240634776,1.34010833905547,1.149187457084
1580423794.95034,-1.25319295033188,0.664316777294577,0.938735027084764
1580423794.98273,-1.98806744487678,0.408453498130768,0.413824673838405
1580423795.01512,-2.10135042343786,-0.142336156252384,-0.000732433051041426
1580423795.04751,-1.28151369497215,-0.535896849011978,-0.896253910124361
1580423795.0799,-1.56130312046998,-0.201907377737086,-1.320088502327
1580423795.11229,-1.69314106965743,-0.925062943465324,-0.976333257038224
1580423795.14468,-1.44118410009918,-0.44605172808423,0.0402838178072784
1580423795.17707,-1.20387579156176,0.152101930266269,0.302494850080109
1580423795.20946,-0.991470206759747,0.331303883421072,0.547615777828643
1580423795.24185,-0.41187151903563,0.92457465476463,0.587655451285574
1580423795.27424,0.237552452887769,1.4997787441825,0.767833981841765
1580423795.30662,0.765392538338293,1.03297474631876,0.750255588616771
1580423795.33902,0.846936751354239,0.244388494697489,0.581795986877243
1580423795.3714,0.166750591287098,-0.125246051728084,0.279545281147477
1580423795.40379,-0.327397573815519,0.321538109407186,0.296147096971083
1580423795.43618,-0.744884412909132,1.46999313344014,0.660410467689022
1580423795.46857,-1.0637369344625,1.76296635385672,0.578866254673077
1580423795.50096,-1.36940566109712,-0.796154726482033,1.56911573968109
1580423795.53335,-0.720469977874417,1.34499122606241,0.639902342259862
1580423795.56574,-0.638437476157778,1.41921110856794,-0.235599298084992
1580423795.59813,-2.92069886320287,-1.20680552376593,-0.796643015182728
1580423795.63052,-1.45583276112001,2.69217975127794,0.861097123674373
1580423795.66291,-0.00659189745937283,0.854749370565347,0.947035934996567
1580423795.6953,-0.41528953994049,0.809826810101473,1.58669413290608
1580423795.72769,-0.812756542305639,0.303471427481497,1.29225604638743
1580423795.76008,-0.855237659266042,1.10035858701457,1.23805600061036
1580423795.79247,-1.09205767910277,0.630136568245977,0.990005340657664
1580423795.82486,-2.23758297093156,0.366948958571754,0.26733806363012
1580423795.85725,-1.97683680476081,-0.814221408407722,-0.327397573815519
1580423795.88964,-1.585229266804,-1.35036240177005,-1.49098954757
1580423795.92203,-1.01686121919585,-0.312748912794691,-1.52419317921721
1580423795.95442,-1.25368123903258,-0.447516594186313,-0.634531166552224
1580423795.98681,-1.14967574578469,-0.347905699244679,0.0549324788281069
1580423796.0192,-1.29909208819715,0.755138475623713,0.434332799267565
1580423796.05159,-1.09401083390555,0.629648279545282,0.524666208896011
1580423796.08411,-0.562752727550164,0.342046234836346,1.03395132372015
1580423796.1165,-0.0168459601739528,0.484626535439077,1.414328221561
1580423796.14889,0.59058518348974,0.551522087434197,0.87330434119173
1580423796.18127,0.3288624399176,0.590096894789045,0.296147096971083
1580423796.21367,-0.0954604409857325,0.727794308384833,0.0959487296864268
1580423796.24605,-0.177004654001678,0.972915236133364,0.202883955138475
1580423796.27844,-0.434821087968261,1.07692072938125,0.453864347295337
1580423796.31083,-1.28542000457771,1.2263370717937,0.676523994811934
1580423796.34322,-1.13356221866178,0.267826352330815,1.22829022659647
1580423796.37561,-0.792248416876479,0.895277332722973,0.831311512932022
1580423796.408,-1.396749828336,-0.667734798199435,-0.567635614557107
1580423796.44039,-0.762951094834822,0.444586861982145,0.426520180056457
1580423796.47278,0.674082551308462,-0.0988784618905925,2.56229495689326
1580423796.50517,-0.577401388570992,0.506599526970323,-0.168215457389181
1580423796.53756,-0.799572747386893,0.936293583581293,1.19313344014649
1580423796.56995,-0.765880827038988,0.828381780727856,1.28493171587701
1580423796.60234,-0.744396124208437,0.858167391470207,1.20778210116731
1580423796.63473,-1.53054093232624,0.677012283512628,0.984145876249332
1580423796.66712,-2.36307316701,0.427008468757151,0.521736476691846
1580423796.69951,-1.91287098496986,-0.872816052491036,-0.208255130846112
1580423796.7319,-1.46071564812696,-0.966079194323644,-1.47194628824292
1580423796.76429,-1.21266498817426,-0.296147096971085,-1.41725795376516
1580423796.79668,-1.43923094529641,-0.482185091935607,-0.562752727550164
1580423796.82907,-1.23366140230411,-0.182864118410009,0.242923628595406
1580423796.86146,-1.14235141527428,0.0305180437933927,0.454352635996031
1580423796.89385,-0.973403524834058,0.0817883573662925,0.636972610055697
1580423796.92624,-0.385015640497445,0.947524223697261,0.88697642481117
1580423796.95863,0.335210193026626,1.18532082093538,0.749767299916076
1580423796.99102,0.599862668802931,1.00758373388266,0.559334706645306
1580423797.02341,0.475349050125885,0.604745555809874,0.334233615625237
1580423797.05579,-0.0676279850461583,0.340093080033569,-0.0495613031204698
1580423797.08818,-0.406500343327993,0.569100480659191,0.488044556343937
1580423797.12057,-0.549080643930724,1.38991378652628,0.94166475928893
1580423797.15296,-1.34987411306935,0.974868390936141,0.358159761959257
1580423797.18535,-1.1408865491722,0.229739833676661,1.35719844357977
1580423797.21774,-0.627206836041809,1.14723430228122,0.680918593118182
1580423797.25013,-0.807873655298696,-0.892835889219501,-0.482185091935607
1580423797.28252,-1.76687266346227,0.633066300450142,1.46413366903181
1580423797.31491,1.26198214694438,-0.147707331960021,1.70534828717479
1580423797.3473,-0.0725108720531011,1.23073167009995,1.21901274128328
1580423797.37979,-0.455817502098116,-0.099855039291981,0.913832303349356
1580423797.41218,-1.01637293049516,1.06959639887083,1.24489204242008
1580423797.44457,-0.805432211795225,0.938735027084764,1.08668650339513
1580423797.47696,-1.76687266346227,0.488044556343937,0.834729533836882
1580423797.50935,-2.27273975738155,0.0686045624475469,0.323491264209963
1580423797.54174,-1.56130312046998,-0.906507972838941,-0.745372701609826
1580423797.57413,-1.31813534752422,-0.401129167620356,-1.46950484473945
1580423797.60652,-1.29958037689784,-0.308842603189136,-1.18532082093538
1580423797.63891,-1.39772640573739,-0.572030212863355,-0.491462577248798
1580423797.6713,-1.31862363622492,-0.435309376668956,0.341069657434957
1580423797.70369,-1.38796063172351,0.643808651865417,0.716075379568171
1580423797.73608,-0.850843060959793,0.517830167086291,0.612069886320288
1580423797.76847,-0.316655222400245,0.712169069962616,0.930922407873656
1580423797.80086,0.364019226367589,1.05641260395209,0.794201571679256
1580423797.83325,0.783947508964676,0.787365529869536,0.629159990844588
1580423797.86563,0.489509422446019,0.523689631494623,0.269291218432897
1580423797.89803,-0.130128938735027,0.330815594720377,0.0529793240253298
1580423797.93041,-0.508064393072404,-0.0451667048142212,0.589608606088351
1580423797.9628,-1.06276035706111,1.23512626840619,0.786388952468148
1580423797.99519,-1.11598382543679,1.86892500190738,0.35278858625162
1580423798.02758,-1.1320973525597,-0.213138017853055,1.57106889448387
1580423798.05997,-0.973403524834058,1.40016784924086,0.658457312886245
1580423798.09236,-1.5764400701915,-1.49587243457694,-0.813244831006333
1580423798.12475,-0.536385137712672,1.9182421606775,0.871351186388953
1580423798.15714,0.899183642328527,-0.198489356832226,2.00418097199969
1580423798.18953,-0.720958266575112,1.55495536736095,1.45925078202487
1580423798.22192,-0.340581368734265,-0.113038834210727,1.03346303501946
1580423798.25431,-0.977798123140307,0.548104066529337,1.30983443961242
1580423798.2867,-0.930434119172961,0.821057450217442,1.13698023956664
1580423798.31909,-1.68972304875257,0.460212100404362,0.694102388036928
1580423798.35148,-2.22244602121004,0.159914549477378,0.188723582818341
1580423798.38387,-1.69411764705882,-0.696055542839703,-0.682383459220263
1580423798.41626,-1.66140230411231,-0.769298847943848,-1.57546349279011
1580423798.44865,-1.48610666056306,-0.581795986877241,-0.949965667200733
1580423798.48104,-1.25563439383536,-0.630136568245975,-0.246341649500266
1580423798.51343,-1.0637369344625,0.235111009384298,0.0847180895704582
1580423798.54582,-1.16530098420691,0.688242923628597,0.566170748455026
1580423798.57821,-0.743907835507743,0.726329442282751,0.933363851377127
1580423798.6106,-0.182375829709315,0.700450141145954,1.01686121919585
1580423798.64299,0.63501945525292,0.497322041657128,0.825940337224385
1580423798.67544,0.687266346227208,0.249271381704432,0.468024719615471
1580423798.70783,-0.131105516136415,0.577889677271688,-0.0217288471808956
1580423798.74022,-0.474372472724498,1.01539635309377,0.316166933699549
1580423798.77262,-0.513923857480735,1.23073167009995,0.561287861448083
1580423798.80501,-1.25758754863813,1.23024338139925,0.47583733882658
1580423798.8374,-1.22926680399786,0.307377737087052,1.16481269550622
1580423798.86979,-0.911879148546578,1.16041809719997,0.760997940032045
1580423798.90218,-0.991958495460441,-1.06471351186389,-1.03883421072709
1580423798.93457,-0.319096665903716,0.807385366598002,0.818127718013276
1580423798.96696,0.726329442282751,-0.361577782864119,2.86601052872511
1580423798.99935,-0.89381246662089,0.710704203860534,0.376226443884946
1580423799.03174,-0.69800869764248,0.604745555809874,0.730724040588999
1580423799.06413,-0.747325856412603,0.870374608987564,1.30202182040131
1580423799.09652,-1.10817120622568,0.869398031586176,1.05104142824445
1580423799.12891,-1.94753948271916,0.604745555809874,0.60425726710918
1580423799.1613,-1.90261692225528,-0.0280766002899213,0.0158693827725642
1580423799.19369,-1.73659876401923,-0.617929350728618,-0.568123903257801
1580423799.22608,-1.38649576562142,-0.38452735179675,-1.46803997863737
1580423799.25847,-1.38161287861448,-0.403570611123827,-0.932387273975738
1580423799.29086,-1.20143434805829,-0.530525673304341,-0.342534523537042
1580423799.32325,-1.19362172884718,0.0632333867399097,0.273197528038452
1580423799.35564,-1.03541618982223,0.437262531471731,0.587655451285574
1580423799.38803,-0.685801480125123,0.432379644464788,0.731212329289693
1580423799.42042,-0.290775921263448,0.871839475089647,0.882093537804227
1580423799.45281,0.339604791332874,0.987075608453498,0.778576333257039
1580423799.4852,0.59058518348974,0.646738384069582,0.608651865415428
1580423799.51759,-0.171633478294041,0.461676966506445,0.387457084000914
1580423799.54998,-0.346440833142596,0.422613870450903,0.468024719615471
1580423799.58237,-0.753185320820936,0.663828488593882,0.45532921339742
1580423799.61476,-1.02662699320974,2.25271992065309,0.262455176623178
1580423799.64715,-1.17946135652705,0.235111009384298,1.32057679102769
1580423799.67954,-0.714122224765392,1.04567025253681,1.22340733958953
1580423799.71193,-0.776134889753568,0.92799267566949,0.878187228198673
1580423799.74432,-3.29619287403677,-1.91726558327611,-0.532967116807813
1580423799.77671,-0.761974517433433,3.34941634241245,-0.345464255741208
1580423799.8091,-0.415777828641184,0.758068207827879,0.711192492561228
1580423799.84149,-0.723399710078583,0.241947051194018,1.43190661478599
1580423799.87388,-0.51099412527657,0.503181506065463,1.30397497520409
1580423799.90627,-0.84254215304799,0.901625085831999,1.11940184634165
1580423799.93866,-1.22096589608606,0.515877012283514,0.895277332722973
1580423799.97107,-1.92458991378653,0.479743648432134,0.481696803234911
1580423800.00346,-2.19851987487602,-0.0954604409857325,0.181887541008621
1580423800.03585,-1.48708323796445,-0.644785229266803,-0.862561989776456
1580423800.06824,-1.48122377355612,-0.206790264744029,-1.49782558937972
1580423800.10063,-1.51393911650263,-0.440680552376593,-0.816174563210499
1580423800.13302,-1.15260547798886,-0.335698481727322,0.0915541313801782
1580423800.16541,-1.11891355764095,0.200930800335698,0.265384908827343
1580423800.1978,-0.89039444571603,0.199465934233615,0.5427328908217
1580423800.23019,-0.54517433432517,0.775158312352179,0.746349279011216
1580423800.26258,-0.0754406042572668,1.02516212710765,0.942153047989624
1580423800.29497,0.460212100404362,0.663340199893188,0.817639429312582
1580423800.32736,0.157961394674601,0.38696879530022,0.538338292515451
1580423800.35975,-0.267338063630122,0.465583276112,0.256595712214846
1580423800.39214,-0.636972610055695,0.838635843442436,0.520271610589763
1580423800.42453,-0.699961852445258,1.0207675288014,0.399176012817577
1580423800.45692,-1.11793698023957,1.28639658197909,0.559822995346
1580423800.48931,-0.896742198825056,0.294193942168306,1.09889372091249
1580423800.5217,-0.467536430914778,1.06617837796597,0.888441290913253
1580423800.55409,-1.24440375371939,-0.43237964446479,-0.855725947966736
1580423800.58648,-0.472907606622416,1.13746852826734,0.814709697108416
1580423800.61887,0.704844739452202,0.238040741588463,2.50663004501412
1580423800.65126,-0.461188677805753,0.915785458152133,0.127687495231555
1580423800.68365,-0.872816052491036,0.854749370565347,1.02565041580835
1580423800.71604,-0.898207064927139,0.585702296482797,1.414328221561
1580423800.74843,-0.996841382467384,0.84937819485771,1.09840543221179
1580423800.78082,-1.64773022049287,0.731700617990388,0.709727626459145
1580423800.81321,-2.07547112230106,0.0236820019836728,0.202883955138475
1580423800.8456,-1.57204547188525,-0.672129396505683,-0.359136339360647
1580423800.87799,-1.37477683680476,-0.463630121309224,-1.2776073853666
1580423800.91038,-1.33034256504158,-0.47681391622797,-1.17018387121385
1580423800.94277,-1.21461814297703,-0.607675288014038,-0.45972381170367
1580423800.97516,-1.03541618982223,-0.254642557412071,0.0710460059510183
1580423801.00755,-1.31715877012284,0.694102388036928,0.571541924162663
1580423801.03994,-0.860120546272984,0.541756313420311,0.565682459754331
1580423801.07233,-0.591561760891127,0.610116731517511,0.844495307850767
1580423801.10472,0.0295414663920042,0.751232166018159,1.10377660791943
1580423801.13711,0.595468070496683,0.543709468223089,0.815686274509805
1580423801.1695,0.10083161669337,0.574471656366828,0.346440833142594
1580423801.20189,-0.389898527504387,0.667246509498742,0.0393072404058898
1580423801.23428,-0.593026626993209,0.878675516899367,0.660898756389717
1580423801.26678,-0.627695124742504,0.905531395437553,0.708262760357062
1580423801.29918,-1.19703974975204,0.678965438315405,1.52175173571374
1580423801.33156,-0.799084458686199,0.932875562676433,1.03150988021668
1580423801.36396,-0.292240787365531,1.45436789501793,0.471931029221025
1580423801.39635,-1.42360570687419,-0.717051956969557,-0.571053635461967
1580423801.42874,-1.24538033112077,1.50075532158389,0.261478599221789
1580423801.46113,0.302983138780803,0.903089951934081,2.42020294499122
1580423801.49352,-0.0573739223315783,0.807873655298696,1.37282368200198
1580423801.52591,-0.356694895857176,0.26392004272526,1.34840924696727
1580423801.5583,-1.00025940337224,0.753185320820936,1.18092622262913
1580423801.59069,-1.15944151979858,0.647226672770277,0.962661173418784
1580423801.62308,-1.71218432898451,0.433356221866177,0.471442740520331
1580423801.65547,-1.9783016708629,-0.170168612191958,0.0300297550926985
1580423801.68786,-1.63454642557412,-0.503669794766155,-0.457282368200199
1580423801.72025,-1.27418936446174,-0.344975967040513,-1.08863965819791
1580423801.75264,-1.25612268253605,-0.435309376668956,-1.08619821469444
1580423801.78503,-1.40016784924086,-0.656015869382772,-0.451911192492561
1580423801.81742,-1.26393530174716,-0.0939955748836496,0.28442816815442
1580423801.84981,-1.320088502327,0.902601663233387,0.809338521400779
1580423801.88221,-0.918715190356298,0.635507743953614,0.567147325856414
1580423801.9146,-0.309819180590525,0.753673609521631,0.775646601052873
1580423801.94699,0.418707560845348,1.0896162355993,1.0891279468986
1580423801.97938,0.799084458686199,0.661387045090411,0.632089723048754
1580423802.01177,0.198977645532921,0.212649729152361,0.309819180590523
1580423802.04416,-0.173098344396124,0.437262531471731,0.195559624628061
1580423802.07655,-0.388921950102999,0.693614099336234,0.355230029755091
1580423802.10894,-0.840100709544519,2.23562981612879,0.383062485694666
1580423802.14133,-1.25905241474022,0.150637064164187,1.11207751583123
1580423802.17372,-0.995864805065995,0.722911421377891,1.26100556954299
1580423802.20611,-0.516365300984207,1.55886167696651,0.585702296482797
1580423802.2385,-2.51932555123217,-2.17312886243992,-1.05397116044862
1580423802.27089,-0.11450370031281,1.71950865949493,0.667246509498742
1580423802.30328,1.02320897230488,-0.107179369802395,2.25662623025864
1580423802.33567,-0.389410238803693,1.07106126497291,1.48805981536583
1580423802.36806,-0.593026626993209,0.211673151750972,1.14674601358053
1580423802.40045,-0.81177996490425,0.677988860914017,1.26588845654993
1580423802.43285,-0.74586099031052,0.729747463187611,1.23073167009995
1580423802.46524,-1.73562218661784,0.706309605554285,0.802502479591059
1580423802.49763,-2.21463340199893,0.3630426489662,0.180910963607232
1580423802.53002,-1.65847257190814,-0.50074006256199,-0.356206607156482
1580423802.5625,-1.49782558937972,-0.243900205996795,-1.0808270389868
1580423802.59489,-1.65017166399634,-0.495857175555047,-1.27272449835966
1580423802.62728,-1.58376440070191,-0.636484321355001,-0.53492027161059
1580423802.65967,-1.23610284580758,-0.0349126420996413,0.0813000686655982
1580423802.69206,-1.04469367513542,0.408941786831463,0.347905699244677
1580423802.72445,-0.661387045090409,0.560311284046694,0.742442969405662
1580423802.75684,-0.392828259708553,0.953383688105593,1.10133516441596
1580423802.78923,0.384527351796748,0.778088044556345,0.89039444571603
1580423802.82162,0.632089723048754,0.495857175555045,0.625253681239034
1580423802.85401,0.0280766002899213,0.442633707179368,0.278568703746089
1580423802.88641,-0.137941557946135,0.614023041123065,0.248783093003738
1580423802.9188,-0.657480735484855,0.57007705806058,0.648203250171665
1580423802.95119,-1.00123598077363,1.59304188601511,0.569588769359886
1580423802.98358,-1.12086671244373,0.461676966506445,1.21364156557565
1580423803.01597,-0.749767299916074,1.67165636682689,1.24977492942702
1580423803.04836,-1.9612115663386,1.17994964522774,0.340093080033569
1580423803.08075,-1.85378805218586,-0.429449912260624,-0.289311055161365
1580423803.11314,-0.820569161516747,2.04080262455177,2.93192950331884
1580423803.14553,-0.512458991378653,0.0627450980392155,-0.308354314488442
1580423803.17792,-0.935805294880598,1.36842908369573,0.98951705195697
1580423803.21031,-0.648691538872358,1.05055313954376,1.38210116731517
1580423803.2427,-0.948012512397955,0.84596017395285,1.06324864576181
1580423803.27509,-1.55837338826581,0.707774471656368,0.909925993743801
1580423803.30748,-1.99636835278859,0.0988784618905925,0.377691309987028
1580423803.33987,-1.76247806515602,-0.407965209430076,-0.308842603189136
1580423803.37226,-1.37721828030823,-0.402594033722439,-1.3117875944152
1580423803.40465,-1.56667429617761,-0.532478828107118,-1.18483253223468
1580423803.43705,-1.41286335545892,-0.486579690241856,-0.427985046158541
1580423803.46944,-1.22438391699092,0.205325398641946,-0.0437018387121384
1580423803.50183,-0.990981918059052,0.229251544975966,0.279545281147477
1580423803.53422,-0.85621423666743,0.400152590218966,0.894300755321584
1580423803.56661,-0.35376516365301,0.79810788128481,0.892835889219501
1580423803.599,0.372320134279391,0.82545204852369,0.813244831006333
1580423803.63139,0.595468070496683,0.716075379568171,0.739024948500802
1580423803.66378,0.128664072632944,0.614023041123065,0.352300297550926
1580423803.69617,-0.249759670405126,0.643808651865417,0.160402838178072
1580423803.72856,-0.693614099336232,0.528084229800871,0.554940108339057
1580423803.76095,-0.89723048752575,1.40700389105058,0.610605020218205
1580423803.79334,-1.18532082093538,0.385992217898831,1.34938582436866
1580423803.82573,-0.718028534370946,1.04762340733959,1.10231174181735
1580423803.85742,-0.631601434348058,1.30251010910201,0.461188677805751
1580423803.88981,-2.89921416037232,-1.94705119401846,-1.02418554970626
1580423803.9222,-0.944106202792401,2.76639963378348,0.209719996948195
1580423803.95458,0.143312733653772,-0.220950637064163,0.54615091172656
1580423803.98697,-1.03541618982223,1.61452658884566,1.2776073853666
1580423804.01936,-0.566659037155718,0.838635843442436,1.20192263675898
1580423804.05175,-1.07692072938125,0.756603341725796,1.14772259098192
1580423804.08414,-1.32252994583047,0.723887998779279,0.862073701075762
1580423804.11652,-1.89773403524834,0.368413824673837,0.512458991378654
1580423804.14891,-1.78542763408866,-0.213138017853055,0.0437018387121384
1580423804.1813,-1.39870298313878,-0.461676966506447,-0.922621499961853
1580423804.21369,-1.52224002441443,-0.266849774929428,-1.31764705882353
1580423804.24607,-1.56667429617761,-0.850354772259099,-0.96900892652781
1580423804.27846,-1.36012817578393,-0.388921950102999,0.0559090562294955
1580423804.31085,-1.26344701304646,0.200442511635003,0.346929121843289
1580423804.34324,-0.929457541771573,0.219485770962081,0.497810330357822
1580423804.37562,-0.562752727550164,0.878675516899367,0.930434119172961
1580423804.40801,0.185793850614175,1.34401464866102,1.07057297627222
1580423804.4404,0.713145647364005,0.915297169451438,0.667734798199437
1580423804.47279,0.46216525520714,0.394293125810634,0.435309376668954
1580423804.50518,-0.139894712748912,0.505622949568934,0.12133974212253
1580423804.53756,-0.536385137712672,0.405035477225908,0.575936522468911
1580423804.56995,-0.846448462653544,1.08229190508888,0.626230258640422
1580423804.60234,-1.12281986724651,1.03395132372015,0.843030441748684
1580423804.63473,-1.00758373388266,0.521736476691846,1.10182345311665
1580423804.66711,-0.433356221866179,1.47096971084153,0.584237430380714
1580423804.6995,-1.24098573281453,-1.06227206836042,-1.01002517738613
1580423804.73189,-1.05006485084306,0.845471885252156,1.04225223163195
1580423804.76428,1.32155336842908,-0.479743648432136,2.56717784390021
1580423804.79667,-0.778576333257039,1.10377660791943,1.60036621652552
1580423804.82905,-0.447028305485619,0.00952162966353853,1.31227588311589
1580423804.86144,-0.831311512932022,0.962661173418784,1.25465781643397
1580423804.89383,-1.03639276722362,0.86646829938201,0.930922407873656
1580423804.92622,-1.53054093232624,0.6452735179675,0.625253681239034
1580423804.9586,-1.7903105210956,-0.037842374303807,0.23999389639124
1580423804.99099,-1.36989394979782,-0.47681391622797,-0.378179598687725
1580423805.02338,-1.44313725490196,-0.338139925230793,-1.12721446555276
