Timestamp_seconds,Accel_X_g,Accel_Y_g,Accel_Z_g
1580423750.42366,-0.87330434119173,0.462653543907834,0.121828030823224
1580423750.45575,-0.893324177920196,0.461676966506445,0.125734340428778
1580423750.48784,-0.885511558709087,0.46216525520714,0.124269474326695
1580423750.51992,-0.879163805600061,0.46216525520714,0.106202792401007
1580423750.55201,-0.891371023117419,0.463141832608528,0.10766765850309
1580423750.58409,-0.88697642481117,0.462653543907834,0.110109102006561
1580423750.61618,-0.878675516899367,0.460212100404362,0.104737926298924
1580423750.64826,-0.884534981307699,0.46216525520714,0.121828030823224
1580423750.68035,-0.889906157015336,0.465094987411305,0.135011825741969
1580423750.71244,-0.882093537804227,0.464118410009917,0.120851453421835
1580423750.74452,-0.896742198825056,0.460212100404362,0.121828030823224
1580423750.77661,-0.881116960402839,0.458258945601585,0.120851453421835
1580423750.80869,-0.894789044022279,0.469489585717554,0.115480277714198
1580423750.84078,-0.860608834973679,0.45874723430228,0.103273060196841
1580423750.87287,-0.885999847409781,0.459235523002974,0.112550545510032
1580423750.90495,-0.885999847409781,0.457282368200197,0.132082093537804
1580423750.93704,-0.90748455024033,0.431891355764094,0.145265888456549
1580423750.96912,-0.887953002212559,0.422613870450903,0.135011825741969
1580423751.00121,-0.894300755321584,0.432867933165483,0.141359578850995
1580423751.0333,-0.884534981307699,0.464606698710611,0.122316319523918
1580423751.06538,-0.878187228198673,0.476325627527274,0.123781185626001
1580423751.09747,-0.869398031586176,0.498298619058517,0.127687495231555
1580423751.12955,-0.87330434119173,0.475349050125885,0.123292896925307
1580423751.16159,-0.872327763790341,0.460700389105057,0.120363164721141
1580423751.19368,-0.882093537804227,0.458258945601585,0.119386587319752
1580423751.22576,-0.885511558709087,0.474372472724497,0.105714503700312
1580423751.25785,-0.868909742885482,0.492927443350879,0.10766765850309
1580423751.28993,-0.867444876783399,0.536385137712674,0.0803234912642097
1580423751.32202,-0.849866483558404,0.528572518501566,0.0813000686655982
1580423751.35411,-0.854749370565347,0.531990539406426,0.0666514076447697
1580423751.38619,-0.875257495994507,0.562264438849471,0.0632333867399097
1580423751.41828,-0.909925993743801,0.503669794766157,-0.00122072175173571
1580423751.45036,-0.725841153582055,0.571541924162663,-0.169192034790569
1580423751.48245,-0.631113145647364,0.704844739452202,-0.195559624628061
1580423751.51453,-0.96559090562295,0.593026626993211,0.0114747844663157
1580423751.54662,-0.722423132677195,0.782970931563288,-0.0109864957656214
1580423751.57871,-0.347417410543985,0.816174563210499,-0.352788586251622
1580423751.61079,-0.544197756923781,0.582284275577937,-0.240970473792629
1580423751.64288,-0.907972838941024,0.541756313420311,0.240970473792629
1580423751.67496,-0.832776379034105,0.773693446250096,-0.126710917830167
1580423751.70705,-0.795178149080645,0.929945830472267,-0.0837415121690697
1580423751.73914,-1.12623788815137,0.788342107270925,-0.00170901045242999
1580423751.77122,-0.988540474555581,0.425543602655068,-0.326909285114825
1580423751.80331,-0.970962081330587,0.241458762493323,-0.376714732585642
1580423751.83539,-0.975356679636835,0.223880369268329,-0.561776150148775
1580423751.86748,-0.82887006942855,0.0969253070878153,-0.538826581216144
1580423751.89957,-0.86305027847715,0.239017318989852,-0.453864347295339
1580423751.93165,-0.963637750820173,0.653086137178608,-0.135988403143358
1580423751.96374,-1.01881437399863,0.385015640497443,-0.184328984512092
1580423751.99582,-1.05641260395209,0.63843747615778,-0.110597390707255
1580423752.02791,-0.802990768291753,0.567635614557108,-0.199954222934309
1580423752.05999,-0.706797894254978,0.25024795910582,-0.407476920729382
1580423752.09208,-0.70142671854734,0.213626306553749,-0.393316548409247
1580423752.12417,-0.884046692607004,0.367925535973143,-0.416754406042573
1580423752.15625,-0.844983596551462,0.411871519035628,-0.371343556878005
1580423752.18834,-0.97584496833753,0.172610055695429,-0.212649729152361
1580423752.22042,-0.936293583581293,0.189211871519035,-0.446540016784924
1580423752.25251,-0.89381246662089,0.371343556878003,-0.34009308003357
1580423752.2846,-0.881605249103533,0.25366598001068,-0.44605172808423
1580423752.31668,-0.885999847409781,0.256595712214846,-0.546150911726558
1580423752.34877,-0.894789044022279,0.29810025177386,-0.400640878919662
1580423752.38085,-0.860608834973679,0.256107423514152,-0.415777828641184
1580423752.41294,-0.853284504463264,0.327397573815517,-0.342534523537042
1580423752.44498,-0.863538567177844,0.452399481193254,-0.339604791332876
1580423752.47706,-1.01979095140002,0.526131074998094,-0.176516365300984
1580423752.50915,-0.971938658731975,0.602792401007097,-0.161379415579461
1580423752.54123,-1.09205767910277,0.386480506599526,0.0695811398489354
1580423752.57332,-0.934340428778516,0.782970931563288,0.0910658426794839
1580423752.6054,-0.797619592584116,0.643808651865417,-0.123292896925307
1580423752.63749,-0.797619592584116,0.460700389105057,-0.0500495918211641
1580423752.66957,-0.790295262073702,0.568612191958497,-0.183352407110704
1580423752.70166,-0.741466392004272,0.668711375600825,-0.217044327458609
1580423752.73374,-0.725841153582055,0.605233844510568,-0.224368657969023
1580423752.76583,-0.760509651331351,0.539803158617534,-0.170168612191958
1580423752.79792,-0.735118638895246,0.510017547875183,-0.205325398641946
1580423752.83,-0.736095216296635,0.47925535973144,-0.214114595254443
1580423752.86209,-0.720958266575112,0.41089494163424,-0.194583047226672
1580423752.89417,-0.760997940032045,0.427008468757151,-0.238040741588463
1580423752.92626,-0.885999847409781,0.643808651865417,-0.234134431982909
1580423752.95834,-1.06813153276875,0.453376058594642,-0.229251544975966
1580423752.99043,-1.12623788815137,0.544686045624477,-0.340581368734265
1580423753.02251,-1.19411001754787,0.471442740520331,-0.37427328908217
1580423753.0546,-1.21168841077287,0.0959487296864268,-0.758068207827879
1580423753.08668,-0.932387273975738,0.675059128709851,-0.826428625925079
1580423753.11877,-0.383062485694667,0.715098802166782,-0.721446555275806
1580423753.15086,-0.114991989013504,0.816662851911193,-0.469489585717556
1580423753.18294,-0.543709468223087,0.128175783932249,-0.285404745555811
1580423753.21503,-0.769298847943848,0.719981689173725,-0.0686045624475469
1580423753.24711,-0.499275196459907,0.495857175555045,-0.193606469825284
1580423753.2792,-0.37427328908217,0.256107423514152,-0.271732661936371
1580423753.31128,-0.936781872281987,0.768322270542459,-0.631113145647364
1580423753.34337,-1.94558632791638,0.710704203860534,-0.667734798199435
1580423753.37545,-1.20631723506523,0.265384908827343,-0.347905699244679
1580423753.40754,-1.31911192492561,0.36646066987106,-0.156496528572518
1580423753.43962,-0.774670023651485,0.65552758068208,-0.348393987945373
1580423753.47171,-0.628671702143892,0.837659266041047,-0.726329442282749
1580423753.50379,-0.545662623025864,0.983657587548638,-0.0871595330739297
1580423753.53588,-0.180910963607232,0.775158312352179,-0.441168841077287
1580423753.56797,-0.295170519569696,0.119874876020447,-0.42212558175021
1580423753.60005,-0.694102388036926,-0.173586633096818,-0.135011825741969
1580423753.63214,-0.865980010681316,-0.0661631189440754,0.0251468680857556
1580423753.66422,-1.27028305485618,0.419195849546043,-0.370366979476616
1580423753.69631,-0.106691081101701,1.84353398947128,-1.8674601358053
1580423753.72842,-0.964614328221561,-0.222903791866941,-0.0627450980392155
1580423753.76051,-1.96560616464485,-0.604257267109178,0.997817959868772
1580423753.79259,-0.988540474555581,0.635996032654308,-0.872327763790341
1580423753.82468,-1.80300602731365,0.772228580148013,-0.846936751354239
1580423753.85677,-1.51198596169985,-0.405523765926604,-0.342046234836348
1580423753.88885,-1.68435187304494,0.355230029755091,-0.642832074464026
1580423753.92094,-1.09010452429999,1.42946517128252,-0.813244831006333
1580423753.95302,-0.68091859311818,0.743907835507745,-1.02418554970626
1580423753.98511,-0.24682993820096,0.142824444953078,-1.5168688487068
1580423754.0172,0.177492942702372,0.304448004882886,-0.92115663385977
1580423754.04928,0.991470206759747,0.836194399938964,-0.558358129243915
1580423754.08137,0.36646066987106,0.495857175555045,-0.552986953536278
1580423754.11345,-0.522713054093233,0.31860837720302,-0.700938429846646
1580423754.14554,-2.6531166552224,-0.158449683375295,0.286869611657892
1580423754.17763,-1.90554665445945,0.361577782864117,-1.18776226443885
1580423754.20971,-2.45780117494469,0.885511558709087,-0.0822766460669868
1580423754.2418,-1.55202563515679,0.94166475928893,-0.633066300450141
1580423754.27388,-1.66775005722133,0.181399252307926,-0.74244296940566
1580423754.30597,-1.42507057297627,-0.99635309376669,-0.227298390173189
1580423754.33806,-1.63259327077134,-1.22536049439231,1.21315327687495
1580423754.37014,1.12770275425345,1.06666666666667,-2.49979400320439
1580423754.40223,0.378179598687723,0.322514686808574,0.618417639429314
1580423754.43431,-0.0383306630045013,-0.200442511635003,-0.672617685206378
1580423754.4664,-0.0681162737468526,1.05397116044862,-0.461676966506447
1580423754.49848,-1.08278019378958,0.84254215304799,-0.802990768291753
1580423754.53057,-1.48464179446098,-0.841077286945907,-0.118898298619058
1580423754.56266,-2.07840085450523,-0.427008468757153,1.1916685740444
1580423754.59474,-1.62380407415885,0.209231708247501,-0.281010147249562
1580423754.62683,-2.05252155336843,0.437750820172425,-0.826916914625773
1580423754.65892,-2.1828946364538,-0.385992217898833,-0.563241016250858
1580423754.691,-1.86257724879835,0.394781414511328,-0.89381246662089
1580423754.72309,-1.38307774471656,1.10280003051804,-0.988052185854887
1580423754.75517,-0.0852063782711525,1.49587243457694,-1.15846494239719
1580423754.78726,0.375249866483557,0.411383230334934,-1.55642023346303
1580423754.81934,1.03346303501946,0.759044785229268,-1.11012436102846
1580423754.85143,0.63501945525292,0.533943694209203,-0.646738384069581
1580423754.88352,0.0183108262760356,0.283451590753032,-0.375738155184253
1580423754.9156,-0.939711604486153,0.223392080567635,-0.517341878385595
1580423754.94769,-2.35184252689403,0.315678644998854,-0.0495613031204698
1580423754.97977,-1.7556420233463,0.935805294880598,-0.830334935530633
1580423755.01184,-2.1233234149691,0.707774471656368,-0.875745784695201
1580423755.04393,-2.09402609292744,0.269291218432897,-0.419684138246739
1580423755.07601,-1.77126726176852,0.198977645532921,-0.523201342793927
1580423755.1081,-1.43434805828946,-0.944594491493095,0.070557717250324
1580423755.14018,-0.261478599221791,1.61306172274357,-0.188235294117646
1580423755.17227,0.227786678873883,-0.687266346227206,-0.807385366598002
1580423755.20435,-0.0441901274128327,1.00221255817502,-0.272709239337759
1580423755.23644,0.0769054703593497,0.889906157015336,-0.420660715648127
1580423755.26852,-0.106202792401007,0.115480277714198,0.132082093537804
1580423755.30061,-0.790783550774396,-0.0974135957885096,-0.884046692607004
1580423755.3327,-0.363530937666896,0.389410238803691,-0.622812237735561
1580423755.36478,-2.43826962691691,0.545174334325171,-0.0285648889906156
1580423755.39686,-1.72390325780117,-0.111573968108644,0.0954604409857325
1580423755.42895,-2.26688029297322,0.65210955977722,0.256595712214846
1580423755.46104,-1.84451056687266,0.286381322957197,-0.664805065995269
1580423755.49312,-2.1575036240177,-0.199954222934309,-1.15162890058747
1580423755.52521,-1.84744029907683,0.619882505531397,-0.486091401541161
1580423755.55729,-0.920180056458381,1.36452277409018,-1.39333180743114
1580423755.58938,0.512458991378654,0.991958495460441,-1.45485618371862
1580423755.62146,1.04029907682918,0.514412146181431,-1.41481651026169
1580423755.65355,0.606698710612651,0.83912413214313,-0.84596017395285
1580423755.68563,-0.0686045624475469,0.342046234836346,-0.441657129777981
1580423755.71772,-0.373785000381476,-0.186282139314869,-0.290775921263448
1580423755.7498,-2.82108796826124,0.830334935530633,-0.660410467689021
1580423755.78189,-1.76198977645533,0.443121995880063,-0.816662851911193
1580423755.81398,-2.11551079575799,1.24147402151522,-0.151125352864881
1580423755.84606,-2.01785305561913,0.777111467154956,-0.920180056458381
1580423755.87815,-1.58620584420539,0.347905699244677,-0.865980010681316
1580423755.91023,-1.55739681086442,-0.129152361333638,-0.106691081101701
1580423755.94232,-1.08815136949721,-0.957289997711147,0.38355077439536
1580423755.9744,0.0876478217746239,0.783459220263982,-0.453864347295339
1580423756.00649,0.540291447318229,0.157961394674601,-0.557869840543221
1580423756.03857,0.198001068131532,0.778576333257039,-0.663828488593881
1580423756.07066,0.0212405584802013,0.439703974975203,-0.0212405584802013
1580423756.10274,-0.257084000915542,0.388921950102997,-0.436774242771039
1580423756.13483,-0.97926298924239,0.334721904325932,-0.316655222400245
1580423756.16692,-2.46414892805371,0.429449912260623,-0.593514915693904
1580423756.199,-1.51931029221027,-0.0847180895704582,0.230716411078049
1580423756.23109,-2.25027847714962,0.591073472190434,-0.135988403143358
1580423756.26317,-1.91970702677958,-0.392339971007859,-0.846448462653544
1580423756.29529,-2.33133440146487,0.37329671168078,-0.508552681773098
1580423756.32737,-1.64333562218662,0.638925764858474,-1.18532082093538
1580423756.35946,-0.433844510566873,1.93289082169833,-1.11061264972915
1580423756.39154,0.765880827038988,0.981704432745861,-1.50222018768597
1580423756.42363,1.26588845654993,0.621835660334174,-1.17653162432288
1580423756.45571,0.184328984512092,0.316655222400243,-0.679453727016098
1580423756.4878,-0.144289311055161,0.0915541313801782,-0.248783093003738
1580423756.51989,-1.00709544518196,0.240970473792629,-0.566170748455024
1580423756.55197,-2.34647135118639,0.377691309987028,-0.219974059662775
1580423756.58406,-2.06619363698787,1.14967574578469,-0.517341878385595
1580423756.61614,-2.11599908445869,1.14235141527428,-0.919203479056993
1580423756.64823,-1.93289082169833,0.262455176623178,-0.923109788662547
1580423756.68031,-1.50710307469291,-0.143801022354467,-0.484138246738384
1580423756.7124,-1.71071946288243,-0.993911650263218,0.193118181124589
1580423756.74448,-1.65798428320745,0.764904249637599,2.05105668726635
1580423756.77657,1.01783779659724,0.402594033722437,-1.82497901884489
1580423756.80865,0.317143511100937,1.44020752269779,0.542244602121006
1580423756.84074,-0.166262302586404,-0.328374151216908,-0.451422903791867
1580423756.87282,0.0114747844663157,1.15162890058747,-0.779064621957733
1580423756.90491,-1.18385595483329,0.871839475089647,-0.810315098802167
1580423756.937,-2.74589150835431,-0.998306248569467,0.0627450980392155
1580423756.96908,-1.60134279392691,-0.303471427481499,0.690684367132068
1580423757.00117,-2.22342259861143,0.0559090562294955,-0.222415503166246
1580423757.03325,-1.75124742504006,0.139894712748912,-0.574959945067521
1580423757.06534,-2.25906767376211,0.0563973449301898,-0.461188677805753
1580423757.09742,-1.78054474708171,0.491950865949491,-0.915297169451438
1580423757.12951,-0.918226901655604,1.26442359044785,-1.27321278706035
1580423757.16159,0.232181277180132,0.822522316319525,-0.981704432745861
1580423757.19368,0.827893492027162,0.718516823071642,-1.41628137636378
1580423757.22576,0.844007019150073,0.947035934996567,-0.936293583581293
1580423757.25785,0.044678416113527,0.355230029755091,-0.454352635996033
1580423757.28994,-0.0832532234683754,-0.0368657969024184,-0.323491264209965
1580423757.32202,-1.16139467460136,0.475349050125885,-0.681406881818875
1580423757.35411,-2.0124818799115,0.0515144579232469,-0.421149004348822
1580423757.38619,-1.88796826123446,1.0212558175021,-0.74244296940566
1580423757.41828,-2.08670176241703,0.893324177920196,-0.740489814602883
1580423757.45036,-1.58767071030747,0.616952773327231,-0.738536659800106
1580423757.48245,-1.54323643854429,0.467536430914777,-0.477302204928664
1580423757.51453,-1.4060273136492,-0.386480506599527,-0.024170290684367
1580423757.54662,-1.30446326390478,-1.31032272831312,1.06861982146944
1580423757.5787,0.40064087891966,0.998306248569467,-0.757579919127185
1580423757.61079,0.37329671168078,0.573006790264746,-0.0373540856031127
1580423757.64287,0.224368657969023,0.237552452887769,-0.528572518501564
1580423757.67496,-0.168215457389181,0.109132524605172,0.134035248340581
1580423757.70705,-0.812756542305639,0.181887541008621,-0.754161898222325
1580423757.73913,-0.500251773861295,0.981704432745861,-0.795178149080645
1580423757.77122,-2.42166781109331,-0.554451819638361,0.694102388036928
1580423757.8033,-1.93289082169833,-0.0251468680857556,-0.359136339360647
1580423757.83539,-1.97000076295109,0.795178149080645,0.0642099641412983
1580423757.86747,-2.03347829404135,-0.0217288471808956,-1.15895323109789
1580423757.89956,-2.14676127260243,0.290287632562752,-0.387457084000916
1580423757.93164,-1.87038986800946,0.359136339360646,-1.05690089265278
1580423757.96373,-0.635019455252918,1.6281986724651,-1.60866712443732
1580423757.99582,0.725841153582056,1.16481269550622,-1.19313344014649
1580423758.0279,1.16285954070344,0.922621499961853,-1.34743266956588
1580423758.05999,0.40747692072938,0.454352635996031,-0.750743877317465
1580423758.09207,-0.152590218966964,-0.063721675440604,-0.312748912794691
1580423758.12416,-0.605233844510566,-0.0256351567864499,-0.522713054093233
1580423758.15624,-2.69266803997864,1.22536049439231,-0.674570840009155
1580423758.18833,-2.11599908445869,0.571541924162663,-0.420172426947433
1580423758.22041,-2.02761882963302,1.12574959945067,-0.718028534370946
1580423758.2525,-1.94753948271916,0.456305790798808,-0.902113374532693
1580423758.28458,-1.54470130464637,0.333257038223849,-0.424078736552987
1580423758.31667,-1.4826886396582,-0.231692988479438,-0.194583047226672
1580423758.34875,-1.25807583733883,-1.67849240863661,0.335210193026626
1580423758.38084,0.446051728084228,1.2429388876173,-0.178469520103761
1580423758.41293,0.846936751354239,0.0583504997329669,-0.653086137178606
1580423758.44501,0.0539559014267184,0.466559853513388,-0.661875333791103
1580423758.4771,-0.0925307087815668,0.309330891889829,-0.0910658426794839
1580423758.50918,-0.594003204394598,0.602792401007097,-0.589608606088349
1580423758.54127,-0.878187228198673,-0.067139696345464,-0.244876783398183
1580423758.57335,-2.58280308232242,0.6281834134432,-0.221927214465552
1580423758.60544,-1.57009231708247,0.165774013885709,-0.0158693827725642
1580423758.63752,-2.17557030594339,0.51538872358282,-0.224368657969023
1580423758.66961,-2.00076295109483,-0.260013733119708,-0.322514686808576
1580423758.70169,-2.16287479972534,0.502693217364769,-0.668711375600823
1580423758.73378,-1.60671396963455,0.746837567711911,-0.790783550774396
1580423758.76586,-0.934340428778516,1.2175478751812,-1.09889372091249
1580423758.79795,0.100343327992675,0.478767071030745,-1.49684901197833
1580423758.83004,0.908461127641718,0.536385137712674,-1.23659113450828
1580423758.86212,0.849866483558404,1.35817502098115,-0.577401388570992
1580423758.89421,-0.0256351567864499,0.378179598687723,-0.348882276646068
1580423758.92629,-0.421637293049516,-0.10424963759823,-0.255619134813459
1580423758.95838,-1.93630884260319,0.87330434119173,-0.881116960402839
1580423758.99046,-1.7898222323949,0.414801251239794,-0.873792629892424
1580423759.02255,-1.99002059967956,0.717540245670254,-0.623300526436255
1580423759.05463,-2.05349813076982,0.795666437781339,-0.707286182955672
1580423759.08672,-1.48415350576028,0.547127489127949,-0.72877088578622
1580423759.1188,-1.66433203631647,-0.0578622110322726,0.0529793240253298
1580423759.15089,-1.73562218661784,-0.785412375066759,1.1574883649958
1580423759.18297,0.171145189593346,0.279545281147477,-0.800549324788282
1580423759.21506,0.122316319523918,0.165285725185015,0.259037155718318
1580423759.24715,0.0993667505912867,0.589120317387657,-1.01783779659724
1580423759.27923,0.132570382238498,0.494880598153657,-0.0690928511482412
1580423759.31132,-0.455329213397421,-0.439703974975204,0.195559624628061
1580423759.3434,-1.45827420462348,1.850370031281,-1.27809567406729
1580423759.37549,-1.62966353856718,0.642343785763334,0.276615548943312
1580423759.40757,-1.76687266346227,-1.32936598764019,0.732188906691082
1580423759.43966,-1.71950865949493,0.364019226367589,-0.376714732585642
1580423759.47174,-1.74538796063172,0.459723811703668,-0.397222858014802
1580423759.50383,-2.19119554436561,-0.192629892423895,-0.622323949034866
1580423759.53591,-1.89089799343862,0.45532921339742,-0.760997940032045
1580423759.568,-1.43044174868391,1.00758373388266,-0.86305027847715
1580423759.60009,-0.143801022354467,1.11940184634165,-1.25612268253605
1580423759.63217,0.488532845044631,0.434332799267565,-1.39772640573739
1580423759.66426,1.28200198367285,1.13502708476387,-1.02613870450904
1580423759.69634,0.110597390707255,0.521248187991151,-0.637460898756389
1580423759.72843,-0.229739833676661,0.00366216525520713,-0.328862439917602
1580423759.76051,-0.739513237201495,-0.031006332494087,-0.537361715114061
1580423759.7926,-2.71708247501335,0.367925535973143,-0.226321812771801
1580423759.82468,-1.96755931944762,0.802502479591059,-0.806408789196613
1580423759.85677,-2.26639200427253,0.949965667200733,-0.574959945067521
1580423759.88885,-1.92751964599069,0.464606698710611,-0.675547417410543
1580423759.92094,-1.40065613794156,0.429938200961317,-0.316655222400245
1580423759.95302,-1.40651560234989,-0.221438925764858,-0.0144045166704814
1580423759.98511,-1.53054093232624,-1.3454795147631,1.79665827420462
1580423760.0172,0.467536430914777,0.662851911192494,-1.04274052033265
1580423760.04928,0.429449912260623,0.852307927061876,-0.135011825741969
1580423760.08137,0.0935072861829553,0.431891355764094,-0.463630121309224
1580423760.11345,-0.0153810940718699,0.296635385671777,-0.00317387655451284
1580423760.14566,-0.840100709544519,0.0231937132829785,-0.850354772259099
1580423760.17775,-0.55201037613489,0.590096894789045,-0.528572518501564
1580423760.20983,-2.26932173647669,-0.713633936064697,0.788830395971619
1580423760.24192,-2.01150530251011,0.150637064164187,-0.343999389639125
1580423760.274,-1.8240024414435,0.600350957503625,0.0661631189440754
1580423760.30609,-2.20193789578088,-0.0642099641412983,-0.611581597619592
1580423760.33817,-2.14236667429618,0.399176012817577,-0.608651865415426
1580423760.37026,-1.82986190585184,0.430914778362705,-0.625253681239032
1580423760.40235,-0.497810330357824,1.23121995880064,-1.72439154650187
1580423760.43443,0.258548867017623,0.619882505531397,-1.01588464179446
1580423760.46652,1.05104142824445,1.50954451819639,-1.48024719615473
1580423760.49861,0.282475013351643,0.517830167086291,-0.807385366598002
1580423760.53069,0.00317387655451284,-0.211673151750972,-0.427985046158541
1580423760.56278,-0.0856946669718468,0.0104982070649271,-0.307866025787748
1580423760.59486,-1.79421683070115,1.09938200961318,-1.02320897230488
1580423760.62695,-2.1145342183566,0.497810330357822,-0.212649729152361
1580423760.65903,-2.0124818799115,1.02369726100557,-0.457770656900893
1580423760.69112,-2.03152513923857,0.972915236133364,-0.799084458686199
1580423760.72321,-1.59841306172274,0.515877012283514,-0.653086137178606
1580423760.75529,-1.54421301594568,-0.127199206530861,-1.19264515144579
1580423760.78738,-1.48952468146792,-0.98268101014725,0.609628442816817
1580423760.81946,-1.44606698710613,0.0769054703593497,1.53981841763943
1580423760.85155,0.947524223697261,1.00123598077363,-2.28006408789197
1580423760.88364,0.147219043259327,1.320088502327,0.343511100938429
1580423760.91572,0.027588311589227,-0.0354009308003356,-0.216556038757915
1580423760.94781,-0.481208514534218,0.315678644998854,-0.314702067597468
1580423760.97989,-0.530525673304341,1.23024338139925,-1.0554360265507
1580423761.01198,-2.14139009689479,-0.0217288471808956,-0.0827649347676811
1580423761.04406,-1.29762722209506,-1.01100175478752,0.654551003280691
1580423761.07615,-1.94021515220874,0.315678644998854,-0.368413824673839
1580423761.10824,-1.68679331654841,0.47583733882658,-0.248294804303043
1580423761.14032,-2.18728923476005,0.138918135347524,-0.546150911726558
1580423761.17241,-1.94460975051499,0.251224536507209,-0.752697032120242
1580423761.20449,-1.64040588998245,0.735118638895248,-0.663340199893186
1580423761.23658,-0.721446555275806,1.37477683680476,-1.17311360341802
1580423761.26867,0.760997940032045,0.612558175020983,-1.29372091248951
1580423761.30075,1.05885404745556,0.695567254139011,-1.76198977645533
1580423761.33284,0.468024719615471,0.895765621423667,-0.229739833676661
1580423761.36492,-0.130617227435721,0.313237201495383,-0.278080415045396
1580423761.39701,-0.444098573281453,0.187258716716258,-0.356694895857176
1580423761.42911,-3.00224307621881,0.468513008316165,-0.124269474326695
1580423761.46119,-1.97341878385595,0.297611963073166,-0.515388723582818
1580423761.49328,-2.10574502174411,0.950453955901427,-0.2434119172961
1580423761.52536,-1.77712672617685,0.876234073395896,-0.550057221332112
1580423761.55745,-1.32594796673533,0.457282368200197,-0.651132982375829
1580423761.58954,-1.49196612497139,-0.173586633096818,-0.623300526436255
1580423761.62162,-1.89138628213932,-1.43874265659571,1.15407034409094
1580423761.65371,0.56665903715572,1.04518196383612,-1.35036240177005
1580423761.68579,0.395269703212023,-0.0129396505683985,-0.0134279392690928
1580423761.71788,-0.0134279392690928,0.100343327992675,-0.692637521934843
1580423761.74997,0.218020904859998,0.94850080109865,-0.228274967574578
1580423761.78205,-0.695078965438315,-0.376226443884947,-0.217044327458609
1580423761.81414,-0.883070115205616,1.17750820172427,-0.916762035553521
1580423761.84622,-2.55497062638285,-0.129152361333638,-0.485603112840467
1580423761.87831,-1.65896086060883,-0.713633936064697,-0.211184863050278
1580423761.9104,-2.19217212176699,1.05787747005417,0.0979018844892039
1580423761.94248,-1.76150148775464,0.389898527504386,-0.632578011749446
1580423761.97457,-2.29910734721904,-0.322026398107882,-0.636972610055695
1580423762.00665,-1.89187457084001,0.446540016784922,-0.784924086366065
1580423762.03874,-1.17848477912566,1.08375677119097,-1.11403067063401
1580423762.07082,0.252689402609292,1.10328831921874,-1.39479667353323
1580423762.10291,0.683360036621654,0.569100480659191,-1.29372091248951
1580423762.135,0.814221408407722,1.12916762035553,-0.983657587548638
1580423762.16708,0.00317387655451284,0.238529030289158,-0.443610284580759
1580423762.19917,-0.191165026321812,-0.0368657969024184,-0.197024490730143
1580423762.23125,-1.14283970397497,0.300053406576637,-0.738536659800106
1580423762.26334,-2.10769817654688,0.473884184023802,-0.413336385137713
1580423762.29543,-1.88503852903029,0.83228809033341,-0.303471427481499
1580423762.32751,-2.15066758220798,0.792248416876479,-0.862073701075762
1580423762.3596,-1.79568169680324,0.364995803768977,-0.670664530403601
1580423762.39168,-1.55446707866026,0.235111009384298,-0.673594262607766
1580423762.42377,-1.55788509956512,-0.237552452887769,0.169192034790569
1580423762.45586,-1.6701915007248,-0.116456855115587,1.57595178149081
1580423762.48794,0.814709697108416,0.41089494163424,-1.53640039673457
1580423762.52003,0.304448004882886,0.656015869382774,0.391363393606468
1580423762.55211,-0.0266117341878385,0.0251468680857556,-0.581307698176547
1580423762.5842,-0.179446097505149,0.685801480125125,-0.137941557946135
1580423762.61628,-0.911879148546578,0.329839017318989,-0.84254215304799
1580423762.64837,-1.35085069047074,-0.760509651331351,0.0866712443732354
1580423762.68046,-1.98562600137331,0.199954222934309,0.0393072404058898
1580423762.71255,-1.7473411154345,0.0305180437933927,0.252689402609292
1580423762.74464,-2.03933775844968,0.39380483710994,-0.291264209964142
1580423762.77673,-2.0637521934844,-0.00854505226214997,-0.823498893720913
1580423762.80881,-1.84646372167544,0.223392080567635,-0.799572747386893
1580423762.8409,-1.38991378652628,0.776134889753568,-0.606698710612649
1580423762.87298,-0.600350957503624,1.19313344014649,-1.11354238193332
1580423762.90507,0.336675059128709,0.385015640497443,-1.66140230411231
1580423762.93716,1.06227206836042,1.17164873731594,-1.10426489662013
1580423762.96924,0.523689631494623,0.903578240634776,-0.475837338826581
1580423763.00133,-0.134035248340581,0.214602883955138,-0.260990310521096
1580423763.03341,-0.622812237735561,-0.0925307087815668,-0.37427328908217
1580423763.0655,-2.89726100556954,0.636972610055697,-0.136964980544747
1580423763.09758,-2.02273594262608,0.27075608453498,-0.417730983443962
1580423763.12967,-1.96169985503929,1.13356221866178,-0.237552452887769
1580423763.16176,-1.7390402075227,0.625741969939728,-1.03248645761807
1580423763.19384,-1.5505607690547,0.347417410543983,-0.732677195391775
1580423763.22593,-1.71267261768521,-0.221438925764858,-0.0949721522850382
1580423763.25801,-1.51296253910124,-1.11744869153887,0.777111467154956
1580423763.2901,0.4484931715877,0.742931258106356,-1.11598382543679
1580423763.32219,0.365972381170366,0.315678644998854,0.346929121843289
1580423763.35427,0.135988403143358,0.386480506599526,-0.820080872816053
1580423763.38636,0.0432135500114441,0.478767071030745,0.00268558785381856
1580423763.41844,-0.831799801632716,-0.470954451819638,-0.00366216525520713
1580423763.45053,-0.78101777676051,1.31227588311589,-1.10328831921874
1580423763.48262,-2.40262455176623,0.35278858625162,-0.161379415579461
1580423763.5147,-1.62331578545815,-0.912855725947967,0.357671473258563
1580423763.54679,-2.17605859464408,0.743907835507745,-0.00122072175173571
1580423763.57887,-1.81179522392615,0.191165026321812,-0.68433661402304
1580423763.61096,-2.23855954833295,-0.278080415045396,-0.663340199893186
1580423763.64305,-1.8240024414435,0.487556267643242,-0.656992446784161
1580423763.67513,-1.24879835202563,1.20241092545968,-1.08326848249027
1580423763.70722,0.214114595254443,0.952407110704204,-1.37526512550546
1580423763.7393,0.621835660334174,0.458258945601585,-1.22731364919509
1580423763.77139,0.844495307850767,1.17164873731594,-1.03199816891737
1580423763.80347,0.077393759060044,0.2434119172961,-0.461188677805753
1580423763.83556,-0.0290531776913099,0.024170290684367,-0.331303883421073
1580423763.86765,-1.04371709773404,0.212161440451666,-0.820080872816053
1580423763.89973,-2.3884641794461,0.27417410543984,-0.287357900358588
1580423763.93182,-1.98855573357748,0.715587090867476,-0.505622949568933
1580423763.9639,-2.17898832684825,1.12819104295415,-0.35718318455787
1580423763.99597,-1.74294651712825,0.65552758068208,-0.947524223697261
1580423764.02806,-1.3542687113756,0.271244373235675,-0.90406652933547
1580423764.06014,-1.57155718318456,-0.327885862516213,0.502204928664074
1580423764.09223,-1.67312123292897,-0.908461127641718,1.56374456397345
1580423764.12432,0.399664301518271,0.3801327534905,-1.0212558175021
1580423764.1564,0.319096665903714,0.940199893186847,0.209719996948195
1580423764.18849,0.189211871519035,0.182375829709315,-0.696055542839703
1580423764.22057,-0.0256351567864499,0.371343556878003,-0.0437018387121384
1580423764.25266,-0.817639429312582,-0.0949721522850382,-0.78443579766537
1580423764.28474,-0.959243152513924,0.272220950637063,-0.358159761959259
1580423764.31683,-1.95339894712749,-0.0988784618905925,0.259037155718318
1580423764.34892,-1.83962767986572,-0.153566796368352,-0.12475776302739
1580423764.381,-2.01785305561913,0.575936522468911,0.0271000228885327
1580423764.41309,-2.04129091325246,0.216067750057221,-0.800549324788282
1580423764.44517,-2.00125123979553,0.228763256275272,-0.643320363164721
1580423764.47726,-1.58181124589914,0.422125581750208,-0.85621423666743
1580423764.50935,-0.678477149614709,1.1921568627451,-1.17701991302357
1580423764.54143,0.320073243305103,0.526619363698789,-1.31276417181659
1580423764.57352,1.09156939040207,1.0637369344625,-1.34987411306935
1580423764.6056,0.650644693675137,1.00465400167849,-0.815686274509805
1580423764.63769,-0.0280766002899213,0.0666514076447697,-0.281986724650951
1580423764.66978,-0.540291447318227,-0.229251544975966,-0.305912870984971
1580423764.70186,-2.84745555809873,0.840588998245213,-0.90064850843061
1580423764.73395,-1.8669718471046,0.435797665369648,-0.56568245975433
1580423764.76603,-2.15603875791562,1.03932249942779,-0.0983901731898982
1580423764.79812,-2.01931792172122,0.841565575646602,-0.619394216830701
1580423764.8302,-1.37721828030823,0.646250095368888,-0.923598077363241
1580423764.86229,-1.65700770580606,-0.166750591287098,-0.560311284046692
1580423764.89438,-1.35133897917144,-0.955825131609064,0.248783093003738
1580423764.92646,-0.281986724650951,0.978286411841001,-0.216556038757915
1580423764.95855,0.516853589684903,0.00268558785381856,-1.13649195086595
1580423764.99063,0.271732661936369,1.25075150682841,-0.358159761959259
1580423765.02272,0.100343327992675,0.159914549477378,-0.107179369802395
1580423765.05481,-0.611093308918898,-0.0876478217746239,0.137941557946135
1580423765.08689,-0.750743877317465,1.16237125200275,-1.37868314641032
1580423765.11898,-1.84939345387961,-0.096437018387121,-0.0539559014267184
1580423765.15106,-1.66237888151369,-0.630624856946669,1.00514229037919
1580423765.18315,-1.6018310826276,0.361577782864117,-0.308354314488442
1580423765.21523,-2.06033417257954,0.0798352025635154,-0.345952544441902
1580423765.24732,-2.10379186694133,0.149660486762798,-0.733653772793163
1580423765.27942,-1.81228351262684,0.247318226901655,-0.818127718013276
1580423765.3115,-1.52614633401999,0.849866483558404,-0.79468986037995
1580423765.34359,-0.631113145647364,1.16969558251316,-1.04811169604028
1580423765.37568,0.565194171053637,0.287357900358586,-1.6701915007248
1580423765.40776,1.05934233615625,1.12135500114443,-1.072526131075
1580423765.43985,0.510017547875183,0.84596017395285,-0.74586099031052
1580423765.47193,-0.156008239871824,0.216067750057221,-0.263920042725262
1580423765.50402,-0.87330434119173,-0.101808194094758,-0.331792172121768
1580423765.53611,-2.48123903257801,0.411383230334934,-0.277103837644008
1580423765.56819,-1.74001678492409,0.686289768825819,-0.627695124742504
1580423765.60028,-2.0974441138323,0.757579919127185,-0.494392309452964
1580423765.63236,-1.96023498893721,0.604745555809874,-0.563241016250858
1580423765.66445,-1.5251697566186,0.636484321355002,-0.651132982375829
1580423765.69653,-1.46755168993668,0.0593270771343555,-0.11450370031281
1580423765.72862,-1.38551918822004,-0.88014038300145,0.552010376134891
1580423765.76071,0.196536202029449,0.567147325856414,-0.498298619058518
1580423765.79279,0.39038681620508,0.309330891889829,-0.370366979476616
1580423765.82488,0.126222629129472,0.654551003280691,-0.819592584115359
1580423765.85696,0.0334477759975584,0.375249866483557,0.153078507667658
1580423765.88905,-0.885511558709087,-0.489021133745327,-0.00903334096284425
1580423765.92114,-0.823010605020219,1.49196612497139,-0.910414282444496
1580423765.95322,-2.47244983596551,0.54615091172656,0.127687495231555
1580423765.98531,-1.34499122606241,-1.52028686961166,0.342046234836346
1580423766.01739,-2.05447470817121,0.577889677271688,-0.377203021286336
1580423766.04948,-1.69558251316091,0.35620660715648,-0.34692912184329
1580423766.08157,-2.25027847714962,-0.0524910353246355,-0.527107652399481
1580423766.11365,-1.9265430685893,0.419684138246737,-0.714122224765392
1580423766.14574,-1.44313725490196,0.991470206759747,-1.11940184634165
1580423766.17782,0.202395666437781,1.12867933165484,-1.59499504081788
1580423766.20991,0.660410467689022,0.477790493629357,-1.23024338139925
1580423766.24199,0.52906080720226,0.912855725947967,-1.03102159151598
1580423766.27408,0.120363164721141,0.333745326924543,-0.431891355764096
1580423766.30617,-0.0173342488746471,0.0495613031204698,-0.300541695277333
1580423766.33825,-0.952895399404898,0.206790264744029,-0.646738384069581
1580423766.37034,-2.31522087434196,0.574471656366828,-0.293217364766919
1580423766.40242,-2.00320439459831,0.723887998779279,-0.292240787365531
1580423766.43451,-2.15213244831006,1.24245059891661,-0.560311284046692
1580423766.4666,-1.77907988097963,0.761974517433433,-0.982192721446555
1580423766.49868,-1.59206530861372,0.0729991607537954,-0.72877088578622
1580423766.53077,-1.72927443350881,-0.622323949034866,-0.0827649347676811
1580423766.56287,-1.74001678492409,-1.42555886167697,2.50516517891203
1580423766.59495,0.665293354695965,1.21217669947356,-1.63015182726787
1580423766.62704,0.367437247272449,0.569100480659191,0.132082093537804
1580423766.65912,0.0949721522850382,0.00659189745937283,-0.599374380102235
1580423766.69121,-0.183352407110704,0.262943465323872,0.188723582818341
1580423766.72329,-0.755626764324408,0.144289311055161,-0.580331120775158
1580423766.75538,-0.273197528038454,1.90017547875181,-1.28981460288396
1580423766.78747,-3.16826123445487,-0.451911192492561,0.321538109407186
1580423766.81955,-1.46413366903182,-0.231692988479438,-0.392339971007859
1580423766.85164,-2.27371633478294,0.985610742351415,-0.027588311589227
1580423766.88372,-1.66482032501717,0.290775921263446,-0.741954680704966
1580423766.91581,-2.06668192568856,-0.0539559014267184,-0.550545510032807
1580423766.9479,-1.80593575951782,0.23315785458152,-0.677012283512626
1580423766.97998,-1.37672999160754,1.36159304188601,-1.01441977569238
1580423767.01207,0.208743419546806,0.857190814068819,-1.2693064774548
1580423767.04415,0.696055542839705,0.40747692072938,-1.28834973678187
1580423767.07624,0.794201571679256,1.22291905088884,-0.896742198825056
1580423767.10833,0.116945143816281,0.527107652399483,-0.465583276112001
1580423767.14041,-0.293217364766919,-0.0158693827725642,-0.147219043259327
1580423767.1725,-0.878675516899367,0.0544441901274126,-0.778576333257039
1580423767.20458,-2.39774166475929,0.364507515068283,-0.163332570382238
1580423767.23667,-1.93191424429694,0.767833981841765,-0.603768978408484
1580423767.26876,-1.9695124742504,1.16823071641108,-0.803967345693142
1580423767.30084,-1.73220416571298,0.805432211795225,-0.652109559777218
1580423767.33293,-1.59450675211719,0.5769130998703,-0.348393987945373
1580423767.36501,-1.43239490348669,-0.00170901045242999,-0.281986724650951
1580423767.3971,-1.04567025253681,-1.31960021362631,-0.45972381170367
1580423767.42918,0.0676279850461583,1.62722209506371,0.172121766994735
1580423767.46127,0.685801480125125,-0.034424353398947,-0.952895399404898
1580423767.49336,0.186282139314869,0.734630350194553,-0.606210421911955
1580423767.52544,0.128664072632944,0.747325856412605,-0.128664072632944
1580423767.55753,-0.716563668268863,-0.168703746089875,-0.115480277714198
1580423767.58961,-0.93482871747921,0.568123903257803,-0.846936751354239
1580423767.6217,-2.32645151445792,1.0720378423743,-0.373296711680782
1580423767.65379,-1.44509040970474,-1.09645227740902,0.539803158617534
1580423767.68587,-2.2175631342031,0.978286411841001,-0.202395666437781
1580423767.71796,-1.78786907759213,0.242923628595406,-0.227298390173189
1580423767.75004,-2.10428015564202,-0.0471198596169984,-0.791760128175785
1580423767.78213,-1.69655909056229,0.234622720683603,-0.952407110704204
1580423767.81422,-1.38210116731518,0.900160219729916,-0.85621423666743
1580423767.84634,-0.0222171358815899,1.05592431525139,-1.1237964446479
1580423767.87843,0.829358358129245,0.630624856946671,-1.57497520408942
1580423767.91051,1.10280003051804,1.38747234302281,-1.13356221866178
1580423767.9426,0.0129396505683985,0.39380483710994,-0.611093308918898
1580423767.97469,-0.119874876020447,0.0510261692225527,-0.225345235370412
1580423768.00677,-1.36940566109712,0.187747005416952,-0.918715190356298
1580423768.03886,-1.95681696803235,0.341069657434957,-0.382574196993973
1580423768.07095,-1.96511787594415,0.719981689173725,-0.436774242771039
1580423768.10303,-2.03152513923857,1.06080720225834,-0.385503929198139
1580423768.13512,-1.7473411154345,0.603280689707791,-0.670664530403601
1580423768.1672,-1.45827420462348,0.457770656900891,-0.906996261539636
1580423768.19929,-1.50954451819638,-0.47681391622797,0.157473105973907
1580423768.23137,-1.71804379339284,-0.758556496528573,1.36647592889296
1580423768.26346,0.309330891889829,0.247318226901655,-1.02027924010071
1580423768.29555,0.463141832608528,1.08131532768749,-0.129640650034332
1580423768.32763,0.302983138780803,0.424078736552985,-0.68433661402304
1580423768.35972,-0.153078507667658,0.215091172655832,0.0764171816586554
1580423768.3918,-1.2522163729305,-0.217044327458609,-0.79810788128481
1580423768.42389,-0.38452735179675,1.05299458304723,-0.768322270542459
1580423768.45598,-2.66434729533837,-0.738048371099412,0.735606927595942
1580423768.48806,-1.62917524986648,0.0075684748607614,-0.229739833676661
1580423768.52015,-2.07888914320592,0.749279011215382,-0.264896620126651
1580423768.55223,-1.81081864652476,-0.178469520103761,-0.74586099031052
1580423768.58432,-1.90847638666362,0.173098344396124,-0.770275425345236
1580423768.61641,-1.48317692835889,0.688731212329291,-0.585702296482795
1580423768.64849,-0.834729533836882,1.36354619668879,-1.19948119325551
1580423768.68058,0.00610360875867855,0.313237201495383,-1.26979476615549
1580423768.71266,0.892347600518807,0.702891584649425,-1.42800030518044
1580423768.74475,0.800549324788282,1.20338750286107,-0.752697032120242
1580423768.77683,-0.144777599755855,0.417242694743265,-0.364995803768979
1580423768.80892,-0.52808422980087,-0.123781185626001,-0.129640650034332
1580423768.84101,-2.36404974441138,0.679942015716794,-0.976821545738918
1580423768.87309,-1.85671778439002,0.488044556343937,-0.979751277943084
1580423768.90518,-2.30984969863432,0.619394216830703,-0.162355992980849
1580423768.93726,-2.0119935912108,0.796643015182728,-0.469001297016861
1580423768.96935,-1.48171206225681,0.637460898756391,-0.672129396505683
1580423769.00144,-1.39137865262837,0.200930800335698,-0.54175631342031
1580423769.03352,-1.38454261081865,-1.10524147402151,0.206301976043335
1580423769.06561,0.0866712443732354,1.06178377965972,-0.212649729152361
1580423769.09769,0.577401388570994,-0.518806744487678,-0.969985503929198
1580423769.12982,0.0607919432364383,0.946059357595178,-0.390875104905776
1580423769.16191,0.109620813305867,0.786877241168842,-0.120851453421835
1580423769.19399,-0.635996032654306,-0.217044327458609,-0.147219043259327
1580423769.22608,-1.04371709773404,0.543709468223089,-0.606698710612649
1580423769.25817,-2.38944075684749,1.16285954070344,-0.744396124208437
1580423769.29025,-1.60085450522621,-0.676035706111238,0.5427328908217
1580423769.32234,-1.9695124742504,0.844983596551462,0.00659189745937283
1580423769.35443,-1.78249790188449,0.0925307087815668,-0.567635614557107
1580423769.38651,-2.097932402533,-0.0524910353246355,-0.712169069962615
1580423769.4186,-1.54567788204776,0.429938200961317,-0.812756542305639
1580423769.45069,-1.08278019378958,1.19850461585412,-0.810803387502862
1580423769.48277,-0.0700694285496297,0.956313420309758,-1.02027924010071
1580423769.51486,0.89723048752575,0.375249866483557,-1.85427634088655
1580423769.54694,0.813733119707027,1.17116044861524,-0.7390249485008
1580423769.57903,-0.0202639810788128,0.555428397039751,-0.258548867017625
1580423769.61112,-0.263431754024568,0.208743419546806,-0.225833524071106
1580423769.6432,-1.87624933241779,0.616952773327231,-0.819592584115359
1580423769.67529,-2.05105668726635,0.355718318455786,-0.780529488059816
1580423769.70738,-2.21023880369268,0.81519798580911,-0.364995803768979
1580423769.73946,-1.96560616464485,0.961196307316701,-0.490974288548104
1580423769.77155,-1.4997787441825,0.463141832608528,-0.854261081864653
1580423769.80363,-1.38454261081865,0.219485770962081,-0.553475242236972
1580423769.83572,-1.76931410696574,-0.68091859311818,0.59742122529946
1580423769.86781,-1.03541618982223,0.485114824139771,1.34645609216449
1580423769.89989,0.977798123140307,0.209719996948195,-1.53640039673457
1580423769.93198,0.177981231403066,1.12428473334859,0.489021133745325
1580423769.96407,-0.0217288471808956,0.125246051728084,-0.430426489662013
1580423769.99615,-0.0993667505912867,1.12233157854581,-0.785412375066759
1580423770.02824,-1.26149385824369,0.0891126878767068,0.0695811398489354
1580423770.06033,-2.19217212176699,0.712657358663311,-0.923598077363241
1580423770.09241,-1.56227969787137,-0.11108567940795,0.444586861982145
1580423770.1245,-2.05008010986496,0.841565575646602,-0.359136339360647
1580423770.15658,-2.00320439459831,-0.34009308003357,-0.498298619058518
1580423770.18867,-2.16726939803159,0.201419089036392,-0.685801480125123
1580423770.22076,-1.69948882276646,0.474860761425191,-0.420660715648127
1580423770.25284,-1.10768291752499,0.963637750820173,-1.1150072480354
1580423770.28493,-0.0197756923781185,1.00904859998474,-1.1662775616083
1580423770.31702,0.874280918593119,0.482185091935605,-1.20973525597009
1580423770.3491,0.633554589150837,0.697520408941788,-1.12526131074998
1580423770.38119,0.142824444953078,0.340581368734263,-0.615487907225146
1580423770.41336,-0.00317387655451284,0.140383001449607,-0.376226443884947
1580423770.44545,-1.42848859388113,0.387945372701608,-0.703868162050812
1580423770.47753,-2.16531624322881,0.505622949568934,-0.354253452353705
1580423770.50962,-2.04324406805524,0.786877241168842,-0.391851682307164
1580423770.54171,-2.26688029297322,1.06178377965972,-0.469489585717556
1580423770.57379,-1.76296635385672,0.694590676737622,-0.665781643396658
1580423770.60588,-1.61452658884565,0.216556038757915,-0.437750820172427
1580423770.63796,-1.2863965819791,-0.214114595254443,-0.411383230334936
1580423770.67005,-1.38649576562142,-1.92556649118792,0.212649729152361
1580423770.70214,0.151125352864881,1.70046540016785,0.108644235904478
1580423770.73422,1.07643244068055,-0.276615548943314,-0.719493400473029
1580423770.76631,0.103273060196841,0.0573739223315783,-0.452399481193256
1580423770.7984,-0.230228122377355,0.599374380102237,0.00708018616006711
1580423770.83048,-0.91773861295491,1.14235141527428,-1.02174410620279
1580423770.86257,-1.08229190508888,-0.407965209430076,0.0432135500114441
1580423770.89466,-2.12381170366979,-0.45972381170367,1.01344319829099
1580423770.92674,-1.63796444647898,0.156496528572518,-0.375738155184253
1580423770.95883,-1.9011520561532,0.527595941100177,-0.333745326924545
1580423770.99091,-1.99246204318303,-0.267826352330816,-0.530525673304341
1580423771.023,-1.96218814373999,0.456794079499502,-0.585702296482795
1580423771.05509,-1.43288319218738,0.740978103303579,-0.632089723048752
1580423771.08717,-0.805432211795225,1.29665064469367,-1.16334782940413
1580423771.11926,-0.246341649500266,0.61451132982376,-1.09596398870832
1580423771.15135,0.766369115739682,0.491462577248797,-1.33864347295338
1580423771.18343,0.862561989776456,0.963149462119478,-0.772716868848708
1580423771.21552,0.0554207675288012,0.437750820172425,-0.441657129777981
1580423771.24761,-0.11450370031281,0.00268558785381856,-0.303959716182193
1580423771.27969,-1.67312123292897,0.658457312886245,-1.12184328984512
1580423771.31178,-1.85085831998169,0.166750591287098,-0.870374608987564
1580423771.34386,-2.09842069123369,0.732677195391776,-0.307377737087053
1580423771.37595,-2.16726939803159,1.07350270847639,-0.322026398107882
1580423771.40804,-1.63161669336995,1.01637293049516,-0.834729533836882
1580423771.44012,-1.567650873579,0.476813916227968,-0.681406881818875
1580423771.47221,-1.34840924696727,-0.0651865415426869,-0.117433432516975
1580423771.5043,-1.04859998474098,-1.11647211413748,0.203860532539863
1580423771.53638,0.0422369726100555,0.844007019150073,-0.0388189517051956
1580423771.56847,0.591561760891128,0.326909285114823,-0.995864805065995
1580423771.60056,0.186282139314869,0.502204928664074,-0.245365072098878
1580423771.63264,-0.224368657969023,0.0896009765774011,0.293705653467612
1580423771.66473,-0.898695353627833,0.348393987945371,-0.835217822537576
1580423771.69681,-0.954848554207675,0.409918364232851,-0.244876783398183
1580423771.72889,-2.00955214770733,0.556893263141834,-0.550057221332112
1580423771.76098,-1.59011215381094,-0.134523537041275,0.365484092469671
1580423771.79307,-1.91970702677958,0.40747692072938,-0.144289311055161
1580423771.82515,-1.95339894712749,0.105226214999618,-0.593514915693904
1580423771.85724,-1.77419699397269,0.00610360875867855,-0.719493400473029
1580423771.88933,-1.48659494926375,0.295170519569695,-0.908461127641718
1580423771.92141,-1.30788128480964,1.03688105592432,-0.738048371099412
1580423771.9535,-0.32642099641413,0.827405203326467,-1.06178377965972
1580423771.98558,0.532967116807814,0.53247882810712,-1.69802395666438
1580423772.01767,0.947035934996567,1.20241092545968,-0.626230258640421
1580423772.04976,0.284916456855115,0.633066300450142,-0.458258945601587
1580423772.08184,-0.073975738155184,0.179934386205844,-0.441657129777981
1580423772.11393,-0.979751277943084,0.153566796368352,-0.733165484092469
1580423772.14602,-2.1999847409781,-0.0227054245822842,-0.514900434882124
1580423772.1781,-2.01931792172122,0.293217364766917,-0.721446555275806
1580423772.21019,-1.98171969176776,1.1921568627451,-0.0690928511482412
1580423772.24228,-1.43190661478599,0.858655680170902,-0.577889677271687
1580423772.27436,-1.34352635996033,0.415777828641183,-0.762462806134128
1580423772.30645,-1.40749217975128,-0.510017547875181,-0.192141603723201
1580423772.33853,-1.96316472114137,-0.865980010681316,1.66335545891508
1580423772.37062,0.865003433279927,0.695078965438316,-1.85232318608377
1580423772.40271,0.0300297550926985,0.347905699244677,0.613534752422371
1580423772.43479,0.063721675440604,0.463630121309222,-0.616464484626535
1580423772.46688,-0.0397955291065841,0.78443579766537,-0.636484321355001
1580423772.49897,-1.18776226443885,0.294682230869,-0.632578011749446
1580423772.53105,-1.61403830014496,-0.261966887922485,-0.567147325856412
1580423772.56314,-1.78396276798657,-0.0134279392690928,0.891371023117419
1580423772.59523,-1.82107270923934,0.171145189593346,-0.232669565880826
1580423772.62731,-1.81863126573587,0.306401159685663,-0.414801251239796
1580423772.6594,-2.18875410086213,-0.222415503166246,-0.537361715114061
1580423772.69148,-1.75759517814908,0.306401159685663,-0.912367437247273
1580423772.72357,-1.3542687113756,0.778576333257039,-0.693614099336232
1580423772.75566,-0.430914778362707,0.935317006179904,-1.15065232318608
1580423772.78774,0.0676279850461583,0.432379644464788,-1.38112458991379
1580423772.81983,1.31276417181659,1.49440756847486,-1.16920729381247
1580423772.85192,0.47925535973144,0.571053635461968,-0.82887006942855
1580423772.884,-0.165774013885709,0.073975738155184,-0.356694895857176
1580423772.91609,-0.905043106736859,-0.127687495231555,-0.549568932631418
1580423772.94818,-2.46805523765927,0.113527122911421,-0.640878919661249
1580423772.98025,-1.97244220645457,0.518318455786986,-0.177981231403066
1580423773.01234,-2.12137026016632,1.11012436102846,-0.330815594720379
1580423773.04443,-1.72097352559701,0.743907835507745,-0.919203479056993
1580423773.07651,-1.52907606622415,0.46900129701686,-0.697520408941786
1580423773.1086,-1.87087815671016,0.041260395208667,0.192629892423895
1580423773.14069,-1.48952468146792,-0.658457312886243,0.96900892652781
1580423773.17277,0.586678873884185,0.815686274509805,-0.981216144045167
1580423773.20486,0.173586633096818,-0.597909514000152,0.0466315709163041
1580423773.23695,0.0524910353246355,0.928969253070878,-0.857679102769513
1580423773.26903,-0.0993667505912867,0.531502250705731,-0.0183108262760356
1580423773.30112,-0.747325856412603,-0.0148928053711757,-0.562752727550164
1580423773.3332,-0.658945601586938,0.12475776302739,-0.0588387884336612
1580423773.36529,-2.22000457770657,0.878187228198673,-0.533943694209201
1580423773.39738,-1.41969939726864,-0.441657129777981,0.627206836041811
1580423773.42946,-2.2683451590753,0.690196078431374,-0.437750820172427
1580423773.46155,-1.8752727550164,-0.236087586785686,-0.717051956969557
1580423773.49364,-2.11355764095521,0.187258716716258,-0.564217593652247
1580423773.52572,-1.65993743801022,0.502693217364769,-0.668223086900129
1580423773.55781,-1.04274052033265,1.3112993057145,-1.06324864576181
1580423773.5899,0.430914778362705,0.88014038300145,-1.38405432211795
1580423773.62198,0.764904249637599,0.703868162050814,-1.41676966506447
1580423773.65407,0.450446326390477,0.773205157549402,-0.741466392004272
1580423773.68615,0.073975738155184,0.228274967574578,-0.437750820172427
1580423773.71824,-0.287846189059282,0.110109102006561,-0.317631799801633
1580423773.75033,-2.37381551842527,0.991958495460441,-0.955825131609064
1580423773.78241,-2.15945677882048,0.403570611123826,-0.421637293049516
1580423773.8145,-2.02761882963302,0.958266575112535,-0.370366979476616
1580423773.84659,-2.1828946364538,0.689219501029985,-0.68091859311818
1580423773.87867,-1.61843289845121,0.282475013351643,-0.578377965972381
1580423773.91076,-1.56520943007553,-0.518318455786984,-0.575936522468909
1580423773.94285,-1.57302204928664,-2.14578469520104,0.864026855878539
1580423773.97493,0.343999389639123,1.87722590981918,-1.02320897230488
1580423774.00702,0.610116731517511,-0.56226443884947,-0.142824444953078
1580423774.0391,0.0646982528419926,0.231692988479438,-0.288334477759976
1580423774.07119,-0.0935072861829553,0.41089494163424,-0.144777599755855
1580423774.10328,-0.468513008316167,0.0563973449301898,-0.24682993820096
1580423774.13536,-0.646250095368886,0.914808880750744,-0.880628671702144
1580423774.16745,-2.53690394445716,0.125734340428778,-0.214602883955138
1580423774.19954,-1.44167238879988,-0.662363622491798,0.134523537041275
1580423774.23162,-2.13601892118715,0.352300297550926,-0.128175783932249
1580423774.2637,-1.83718623636225,0.260990310521095,-0.378667887388419
1580423774.29579,-2.0124818799115,-0.321538109407188,-0.82203402761883
1580423774.32787,-1.86599526970321,0.296635385671777,-0.445563439383536
1580423774.35996,-1.36940566109712,0.981704432745861,-0.933852140077821
1580423774.39205,-0.0417486839093613,1.14186312657359,-1.52175173571374
1580423774.42413,0.452399481193254,0.667246509498742,-1.47927061875334
1580423774.45622,0.855237659266042,1.09840543221179,-1.00953688868544
1580423774.48831,0.225345235370412,0.357183184557869,-0.663828488593881
1580423774.52039,-0.251224536507211,-0.0866712443732354,-0.419684138246739
1580423774.55248,-1.2517280842298,0.36987869077592,-0.713633936064697
1580423774.58457,-2.18826581216144,0.47583733882658,-0.403570611123827
1580423774.61665,-2.15408560311284,0.628671702143894,-0.390875104905776
1580423774.64874,-2.20144960708019,0.934340428778516,-0.577401388570992
1580423774.68082,-1.58767071030747,0.678477149614711,-0.561776150148775
1580423774.71291,-1.48464179446098,0.295170519569695,-0.626718547341115
1580423774.745,-1.38063630121309,-0.255619134813459,0.266849774929426
1580423774.77708,-1.11549553673609,-0.216556038757915,1.02174410620279
1580423774.80917,0.530525673304343,0.0896009765774011,-0.789806973373008
1580423774.84126,0.377203021286334,0.96559090562295,-0.168703746089875
1580423774.87334,0.0266117341878385,0.538338292515451,-0.676035706111238
1580423774.90543,-0.225833524071106,0.471931029221025,0.00854505226214997
1580423774.93752,-1.1237964446479,0.0588387884336612,-0.850354772259099
1580423774.9696,-0.516853589684901,0.124269474326695,-0.0393072404058898
1580423775.00169,-2.59061570153353,-0.0441901274128327,-0.0622568093385212
1580423775.03377,-1.3972381170367,-0.0476081483176927,0.0124513618677042
1580423775.06586,-2.17898832684825,0.736583504997331,-0.248783093003738
1580423775.09795,-1.97927824826429,-0.333745326924545,-0.471931029221027
1580423775.13003,-1.90701152056153,0.171633478294041,-1.03639276722362
1580423775.16212,-1.45387960631724,0.95191882200351,-0.618417639429312
1580423775.19421,-0.786388952468148,1.11647211413748,-0.970962081330587
1580423775.22629,0.140871290150301,0.555428397039751,-1.31032272831312
1580423775.25838,0.944106202792401,0.698985275043871,-1.4914778362707
1580423775.29047,0.576424811169606,1.0129549095903,-0.43237964446479
1580423775.32255,-0.037842374303807,0.435797665369648,-0.363530937666896
1580423775.35464,-0.529060807202258,0.254642557412069,-0.333745326924545
1580423775.38672,-2.79423208972305,0.576424811169606,-0.43579766536965
1580423775.41881,-1.91433585107195,0.288334477759975,-0.644785229266803
1580423775.4509,-1.99929808499275,0.908461127641718,-0.237552452887769
1580423775.48298,-1.82204928664073,0.843518730449379,-0.456794079499504
1580423775.51507,-1.37477683680476,0.496833752956434,-0.873792629892424
1580423775.54721,-1.59645990691997,-0.191653315022506,-0.740978103303577
1580423775.5793,-1.88064393072404,-1.37380025940337,0.321538109407186
1580423775.61138,-0.204837109941252,1.50026703288319,-0.0461432822156098
1580423775.64347,0.817151140611887,-0.140383001449607,-0.98951705195697
1580423775.67556,0.0686045624475469,0.577401388570994,-0.202395666437781
1580423775.70764,-0.0896009765774011,0.264408331425955,-0.00952162966353853
1580423775.73973,-0.672129396505683,-0.293705653467613,0.156984817273212
1580423775.77181,-0.968032349126421,1.29176775768673,-1.25368123903258
1580423775.8039,-1.65700770580606,0.377691309987028,0.533943694209203
1580423775.83599,-1.77029068436713,-1.38307774471656,0.335210193026626
1580423775.86807,-1.70974288548104,0.650156404974442,-0.122804608224612
1580423775.90016,-1.71267261768521,0.487067978942548,-0.412359807736324
1580423775.93225,-1.94998092622263,-0.39478141451133,-0.805920500495919
1580423775.96433,-1.72683299000534,0.0983901731898982,-0.768810559243153
1580423775.99642,-1.29176775768673,0.964614328221561,-0.658945601586938
1580423776.02851,-0.462165255207141,1.31374074921797,-1.11744869153887
1580423776.06059,0.158937972075989,0.536873426413369,-1.26393530174716
1580423776.09268,1.04274052033265,1.12916762035553,-1.37575341420615
1580423776.12476,0.358648050659951,0.718516823071642,-0.441657129777981
1580423776.15685,-0.220462348363469,0.196536202029449,-0.201419089036392
1580423776.18894,-1.08131532768749,0.196047913328755,-0.427496757457847
1580423776.22102,-1.76150148775464,0.408941786831463,-0.44605172808423
1580423776.25311,-1.87478446631571,0.571053635461968,-0.727794308384832
1580423776.2852,-2.16482795452811,0.683360036621654,-0.465583276112001
1580423776.31728,-1.82937361715114,0.683360036621654,-0.573983367666132
1580423776.34937,-1.63454642557412,0.497810330357822,-0.465094987411307
1580423776.38146,-1.3625696192874,0.00122072175173571,-0.286869611657893
1580423776.41354,-1.29811551079576,-1.2004577706569,0.617441062027925
1580423776.44563,0.242435339894712,0.559822995346,-0.716563668268863
1580423776.47772,0.267826352330815,0.633066300450142,0.00561532005798426
1580423776.5098,0.238040741588463,0.703379873350119,-0.800549324788282
1580423776.54189,-0.153078507667658,0.0646982528419926,0.264896620126649
1580423776.57397,-1.1579766536965,-0.747814145113297,-0.403570611123827
1580423776.60606,-0.347417410543985,2.11551079575799,-1.88943312733654
1580423776.63815,-2.47586785687037,-0.225345235370412,-0.216556038757915
1580423776.67023,-1.52614633401999,-0.528572518501564,0.197024490730143
1580423776.70232,-1.96414129854276,0.680430304417488,0.0871595330739297
1580423776.73441,-1.75173571374075,0.329350728618294,-0.751720454718853
1580423776.76649,-2.03250171663996,-0.310795757991913,-0.615487907225146
1580423776.79858,-1.66140230411231,0.30835431448844,-0.864515144579233
1580423776.83069,-1.30983443961242,1.14576943617914,-0.587167162584878
1580423776.86277,-0.298100251773862,1.03932249942779,-1.28004882887007
1580423776.89486,0.558846417944611,0.317631799801632,-1.33229571984436
1580423776.92695,1.0041657129778,1.07106126497291,-1.0378576333257
1580423776.95903,0.317631799801632,0.607186999313345,-0.659433890287632
1580423776.99112,-0.101808194094758,0.0109864957656214,-0.361089494163425
1580423777.02321,-0.747325856412603,-0.0559090562294955,-0.506111238269627
1580423777.0553,-2.63407339589532,0.40405889982452,-0.571053635461967
1580423777.08738,-1.92996108949416,0.559334706645306,-0.603768978408484
1580423777.11947,-2.3371938658732,1.33327229724575,-0.265873197528039
1580423777.15156,-1.78005645838102,1.04469367513542,-0.92457465476463
1580423777.18364,-1.63259327077134,0.413336385137711,-0.79468986037995
1580423777.21573,-1.48464179446098,-0.142824444953078,0.193118181124589
1580423777.24782,-1.20631723506523,-1.04762340733959,-0.0749523155565726
1580423777.2799,-0.120851453421835,0.840100709544519,-0.322514686808576
1580423777.31199,0.755626764324408,-0.0759288929579611,-0.850843060959793
1580423777.34408,0.367925535973143,1.0207675288014,-0.677988860914015
1580423777.37616,-0.112550545510032,0.717540245670254,-0.0563973449301898
1580423777.40825,-0.77418173495079,-0.54859235523003,-0.155519951171129
1580423777.44034,-0.903578240634776,0.819104295414665,-0.675547417410543
1580423777.47242,-2.02664225223163,0.90064850843061,-0.588143739986267
1580423777.50451,-1.63064011596857,-0.746349279011215,0.704844739452202
1580423777.5366,-1.95437552452888,0.884534981307699,-0.0886243991760125
1580423777.56869,-1.84255741206989,0.148683909361409,-0.298588540474556
1580423777.60077,-1.99246204318303,0.12475776302739,-0.431891355764096
1580423777.63286,-1.64968337529564,-0.0158693827725642,-1.04274052033265
1580423777.66495,-1.28102540627146,0.817151140611887,-0.93482871747921
1580423777.69703,-0.394293125810636,0.771252002746625,-1.07887388418402
1580423777.72912,0.346929121843289,0.47925535973144,-1.68337529564355
1580423777.76121,0.961196307316701,1.27174792095827,-1.07008468757153
1580423777.79329,0.330815594720377,0.928480964370184,-0.319096665903716
1580423777.82538,-0.10083161669337,0.265384908827343,-0.210696574349583
1580423777.85747,-0.651621271076523,-0.0402838178072784,-0.536873426413367
1580423777.88955,-2.39285877775235,0.044678416113527,-0.675059128709849
1580423777.92164,-2.13699549858854,0.101808194094758,-0.351323720149539
1580423777.95373,-1.97439536125734,1.09596398870832,-0.0251468680857556
1580423777.98581,-1.49538414587625,1.08278019378958,-0.608651865415426
1580423778.0179,-1.37331197070268,0.760997940032045,-0.918226901655604
1580423778.04999,-1.53542381933318,0.0104982070649271,-0.530037384603647
1580423778.08207,-1.42067597467002,-0.996841382467384,0.167238879987792
1580423778.11426,-0.175051499198901,0.772716868848708,-0.169192034790569
1580423778.14634,0.336186770428014,0.0549324788281069,-0.781506065461205
1580423778.17843,0.169680323491264,0.878187228198673,-0.489021133745327
1580423778.21052,0.0407721065079727,0.529549095902954,0.0485847257190812
1580423778.2426,-0.808850232700085,-0.278568703746091,-0.267338063630122
1580423778.27469,-0.892835889219501,0.741466392004273,-0.635019455252918
1580423778.30678,-2.11844052796216,0.87672236209659,-0.608163576714732
1580423778.33887,-1.44167238879988,-0.555916685740444,0.334721904325932
1580423778.37095,-1.99880979629206,0.812268253604945,-0.0905775539787896
1580423778.40304,-1.7990997177081,-0.0437018387121384,-0.620859082932784
1580423778.43513,-2.01638818951705,-0.00610360875867855,-0.556893263141832
1580423778.46721,-1.50270847638666,0.443610284580757,-0.843030441748684
1580423778.4993,-1.13502708476387,1.33278400854505,-0.943129625391013
1580423778.53139,-0.260502021820402,0.80494392309453,-0.993423361562524
1580423778.56347,0.483649958037688,0.485603112840465,-1.51345082780194
1580423778.59556,1.14772259098192,1.17067215991455,-0.918226901655604
1580423778.62765,0.200442511635003,0.432379644464788,-0.543221179522392
1580423778.65973,-0.235599298084992,-0.0236820019836728,-0.237552452887769
1580423778.69182,-1.76394293125811,0.437750820172425,-1.16481269550622
1580423778.72391,-1.94607461661708,0.377203021286334,-0.447516594186313
1580423778.75599,-1.98953231097887,0.894300755321584,-0.421637293049516
1580423778.78808,-2.30008392462043,0.766369115739682,-0.512458991378653
1580423778.82017,-1.57204547188525,0.679453727016099,-0.327397573815519
1580423778.85225,-1.3283894102388,0.425055313954374,-0.553475242236972
1580423778.88434,-1.56374456397345,-0.601327534905012,0.0813000686655982
1580423778.91643,-0.896742198825056,0.165285725185015,0.705333028152896
1580423778.94852,0.401617456321048,-0.122804608224612,-0.976821545738918
1580423778.9806,0.207278553444723,1.15504692149233,0.0681162737468526
1580423779.01269,0.0759288929579611,0.763439383535516,-0.550545510032807
1580423779.04478,-0.285404745555811,0.354253452353703,-0.214602883955138
1580423779.07686,-1.30592813000687,-0.393804837109942,0.0417486839093613
1580423779.10895,-1.76394293125811,0.356694895857174,-0.471931029221027
1580423779.14104,-1.58620584420539,0.272709239337757,0.297611963073166
1580423779.17312,-1.94216830701152,0.244388494697489,-0.134035248340581
1580423779.20521,-1.78689250019074,-0.103761348897535,-0.639414053559166
1580423779.2373,-2.04080262455177,-0.163820859082932,-0.578377965972381
1580423779.26938,-1.661890592813,0.630624856946671,-0.694102388036926
1580423779.30147,-1.2175478751812,0.792248416876479,-1.06959639887083
1580423779.33356,-0.454352635996033,1.02223239490349,-1.01637293049516
1580423779.36564,0.62476539253834,0.679453727016099,-1.36696421759365
1580423779.39777,1.25221637293049,1.10963607232776,-1.11989013504234
1580423779.42985,0.0817883573662925,0.488532845044631,-0.647714961470969
1580423779.46194,-0.232181277180132,-0.0334477759975584,-0.287846189059282
1580423779.49403,-1.28688487067979,0.114015411612115,-0.724864576180666
1580423779.52611,-2.07644769970245,0.34937056534676,-0.688242923628595
1580423779.5582,-2.03250171663996,0.802014190890365,-0.259037155718319
1580423779.59029,-2.36160830090791,0.934340428778516,-0.382574196993973
1580423779.62237,-1.75710688944839,0.543221179522394,-0.746837567711909
1580423779.65446,-1.28395513847562,0.395757991912717,-0.472419317921721
1580423779.68655,-1.36696421759365,-0.183352407110704,0.188723582818341
1580423779.71863,-1.66775005722133,-0.619882505531395,1.21412985427634
1580423779.75072,0.545662623025866,0.256107423514152,-1.10084687571527
1580423779.78281,0.47241931792172,1.01393148699168,0.44507515068284
1580423779.81489,-0.0461432822156098,0.290287632562752,-0.588143739986267
1580423779.84698,-0.0832532234683754,0.4143129625391,-0.12475776302739
1580423779.87907,-1.19655146105135,-0.0515144579232469,-0.97926298924239
1580423779.91115,-1.19899290455482,0.972915236133364,-0.419684138246739
1580423779.94324,-1.9358205539025,-0.804455634393836,0.87330434119173
1580423779.97533,-1.81472495613031,0.0124513618677042,-0.537850003814755
1580423780.00742,-1.9099412527657,0.594979781795988,-0.297611963073168
1580423780.0395,-2.1150225070573,-0.399176012817579,-0.624277103837644
1580423780.07159,-1.82156099794003,0.544197756923783,-0.847425040054933
1580423780.10368,-1.31618219272145,0.834241245136187,-0.567635614557107
1580423780.13576,-0.587167162584878,1.25270466163119,-1.0896162355993
1580423780.16785,0.240482185091935,0.356694895857174,-1.25661097123674
1580423780.19994,0.96217288471809,0.887464713511864,-1.20582894636454
1580423780.23202,0.614023041123065,0.846936751354239,-0.733165484092469
1580423780.26411,0.00708018616006711,0.193118181124589,-0.299565117875945
1580423780.2962,-0.578377965972381,-0.00219729915312428,-0.32983901731899
1580423780.32828,-2.6531166552224,0.482185091935605,-0.635996032654306
1580423780.36037,-2.07888914320592,0.305424582284274,-0.509040970473793
1580423780.39246,-2.30106050202182,1.12281986724651,-0.259037155718319
1580423780.42454,-1.79812314030671,0.89039444571603,-0.847913328755627
1580423780.45663,-1.59206530861372,0.552010376134891,-0.780529488059816
1580423780.48872,-1.64675364309148,0.152590218966964,-0.0813000686655982
1580423780.5208,-1.45192645151446,-0.551522087434195,0.101808194094758
1580423780.55289,-1.00807202258335,0.144289311055161,1.08863965819791
1580423780.58498,0.768810559243153,0.0622568093385212,-1.20436408026245
1580423780.61707,0.272709239337757,1.20387579156176,0.177981231403066
1580423780.64915,-0.134523537041275,0.145754177157244,-0.2434119172961
1580423780.6813,-0.287846189059282,0.537361715114063,-0.134035248340581
1580423780.71339,-1.04811169604028,0.259037155718318,-1.19557488364996
1580423780.74548,-1.69753566796368,-0.0256351567864499,-0.534431982909895
1580423780.77757,-1.70290684367132,-0.633066300450141,1.24000915541314
1580423780.80965,-1.8069123369192,0.442633707179368,-0.0847180895704582
1580423780.84174,-1.91384756237125,0.147707331960021,-0.552986953536278
1580423780.87383,-2.03836118104829,-0.323491264209965,-0.652597848477912
1580423780.90592,-1.97927824826429,-0.0563973449301898,-0.778088044556345
1580423780.938,-1.46852826733806,0.952407110704204,-0.629159990844586
1580423780.97009,-0.621347371633478,1.48561837186236,-1.0129549095903
1580423781.00218,0.384039063096054,0.655039291981385,-1.53005264362554
1580423781.03427,0.837659266041047,0.910414282444496,-1.48464179446098
1580423781.06635,0.0554207675288012,0.40405889982452,-0.604257267109178
1580423781.09844,0.0563973449301898,0.382574196993971,-0.361089494163425
1580423781.13053,-0.177004654001678,0.264896620126649,-0.412848096437019
1580423781.16261,-1.8752727550164,0.690684367132068,-0.766857404440376
1580423781.1947,-2.30984969863432,0.52222476539254,-0.273197528038454
1580423781.22679,-2.17752346074617,0.476325627527274,-0.511482413977264
1580423781.25888,-2.43045700770581,0.947035934996567,-0.363530937666896
1580423781.29096,-1.65554283970397,0.767833981841765,-0.835217822537576
1580423781.32305,-1.64333562218662,-0.0554207675288012,-0.615976195925841
1580423781.35514,-1.5847409781033,-0.664805065995269,0.247806515602349
1580423781.38723,-1.43776607919432,-0.482185091935607,1.49098954757
1580423781.41931,0.704356450751508,0.446540016784922,-1.414328221561
1580423781.4514,0.221927214465552,1.15602349889372,0.4143129625391
1580423781.48349,-0.0187991149767299,0.144289311055161,-0.437750820172427
1580423781.51557,-0.126222629129472,0.821057450217442,-0.276127260242619
1580423781.54766,-0.666758220798046,0.172121766994735,-0.656992446784161
1580423781.57975,-1.9778133821622,-0.518806744487678,0.0661631189440754
1580423781.61184,-1.52126344701305,0.198001068131532,0.0729991607537954
1580423781.64392,-1.8157015335317,-0.428473334859236,0.177981231403066
1580423781.67601,-1.92312504768444,0.558358129243917,-0.563729304951552
1580423781.7081,-1.82497901884489,0.151125352864881,-0.663340199893186
1580423781.74019,-2.05105668726635,0.0173342488746471,-0.442145418478676
1580423781.77227,-1.51198596169985,0.448004882887005,-0.796643015182728
1580423781.80436,-0.901136797131304,1.32106507972839,-0.973403524834058
1580423781.83645,0.0939955748836496,0.94850080109865,-1.09889372091249
1580423781.86854,0.538338292515451,0.471442740520331,-1.40651560234989
1580423781.90062,0.628671702143894,0.809826810101473,-0.898695353627833
1580423781.93271,0.108644235904478,0.433844510566871,-0.46655985351339
1580423781.96478,-0.451911192492561,0.182864118410009,-0.350835431448845
1580423781.99687,-2.72050049591821,0.850354772259099,-0.435309376668956
1580423782.02896,-1.87283131151293,0.197024490730143,-0.451911192492561
1580423782.06104,-1.79665827420462,0.992446784161135,-0.348882276646068
1580423782.09313,-1.89919890135042,0.662851911192494,-0.621835660334172
1580423782.12522,-1.80349431601434,0.374761577782863,-0.717540245670252
1580423782.15731,-1.65114824139773,-0.238529030289158,-0.505134660868238
1580423782.18939,-1.61452658884565,-0.305912870984971,0.565682459754331
1580423782.22148,-0.952895399404898,0.738048371099413,0.810315098802167
1580423782.25357,0.630624856946671,-0.455817502098116,-1.15651178759441
1580423782.28566,-0.220950637064163,1.07057297627222,0.597909514000154
1580423782.31774,0.0227054245822842,0.491462577248797,-0.328374151216908
1580423782.34983,-0.202883955138475,0.176516365300984,-0.141847867551689
1580423782.38192,-1.34059662775616,0.393316548409246,-1.08131532768749
1580423782.41401,-1.2771190966659,0.81177996490425,-0.416754406042573
1580423782.44609,-1.77175555046922,-0.861097123674373,1.22047760738537
1580423782.47818,-1.88503852903029,0.122316319523918,-0.525154497596704
1580423782.51027,-1.86892500190738,0.592050049591823,-0.283939879453728
1580423782.54235,-2.06033417257954,0.0417486839093613,-0.423102159151599
1580423782.57444,-1.71462577248798,0.426031891355763,-0.973891813534753
1580423782.60653,-1.19948119325551,0.897718776226444,-0.86646829938201
1580423782.63862,-0.341557946135653,0.777111467154956,-1.00025940337224
1580423782.6707,0.648203250171665,0.313237201495383,-1.72634470130465
1580423782.70279,1.0036774242771,1.18727397573815,-0.782482642862593
1580423782.73488,0.195071335927366,0.731700617990388,-0.474860761425193
1580423782.76696,-0.272709239337759,0.206301976043335,-0.193118181124589
1580423782.79905,-1.32252994583047,0.209719996948195,-0.838635843442436
1580423782.83114,-1.90554665445945,0.101319905394064,-0.574959945067521
1580423782.86323,-1.90554665445945,0.527595941100177,-0.509040970473793
1580423782.89531,-2.25760280766003,0.693125810635539,-0.342046234836348
1580423782.9274,-1.76150148775464,0.782482642862593,-0.377203021286336
1580423782.95949,-1.46071564812696,0.824475471122302,-0.599374380102235
1580423782.99158,-1.43239490348669,0.127687495231555,-0.239017318989852
1580423783.02366,-1.54128328374151,-0.79127183947509,1.17360189211871
1580423783.05575,0.41089494163424,0.169680323491264,-1.08375677119097
1580423783.08784,0.080811779964904,0.358648050659951,0.136476691844052
1580423783.11993,0.118898298619058,0.623300526436257,-0.725841153582055
1580423783.15201,-0.0129396505683985,0.3630426489662,0.247806515602349
1580423783.1841,-1.04029907682918,-0.603768978408484,-0.517341878385595
1580423783.21619,-0.561776150148775,1.17067215991455,-0.835217822537576
1580423783.24838,-2.29959563591974,-0.294193942168308,-0.513923857480735
1580423783.28047,-1.67995727473869,-0.174074921797512,0.107179369802395
1580423783.31256,-1.90261692225528,1.12867933165484,0.256107423514152
1580423783.34464,-1.91287098496986,-0.188723582818341,-0.733165484092469
1580423783.37673,-1.9358205539025,-0.105714503700312,-0.848401617456322
1580423783.40882,-1.6023193713283,0.255619134813458,-0.853284504463264
1580423783.44091,-1.21901274128328,1.32594796673533,-0.592538338292515
1580423783.47299,-0.143801022354467,0.89039444571603,-0.853772793163959
1580423783.50508,0.572030212863357,0.298588540474555,-1.56960402838178
1580423783.53717,1.0378576333257,0.96900892652781,-0.983657587548638
1580423783.56925,0.105714503700312,0.58374914168002,-0.588632028686961
1580423783.60134,-0.166262302586404,0.0178225375753414,-0.148683909361409
1580423783.63343,-1.30202182040131,0.204837109941252,-0.834729533836882
1580423783.66552,-1.96169985503929,0.151125352864881,-0.553963530937667
1580423783.6976,-1.93435568780041,0.697032120241094,-0.697520408941786
1580423783.72969,-2.21609826810101,0.961684596017395,-0.198977645532921
1580423783.76178,-1.74148165102617,0.834729533836882,-0.752697032120242
1580423783.79387,-1.5593499656672,0.585702296482797,-0.655039291981383
1580423783.82595,-1.52419317921721,-0.414312962539102,-0.261478599221791
1580423783.85804,-1.43727779049363,-1.81423666742962,0.510017547875183
1580423783.89013,0.342046234836346,1.02467383840696,-0.468513008316167
1580423783.92222,0.524177920195317,-0.339604791332876,-0.587167162584878
1580423783.9543,0.127687495231555,0.895765621423667,-0.730235751888303
1580423783.98639,-0.0661631189440754,0.550057221332114,-0.0383306630045013
1580423784.01848,-0.92457465476463,0.0974135957885096,-0.419195849546044
1580423784.05057,-0.701915007248035,0.102784771496147,-0.46655985351339
1580423784.08265,-2.16531624322881,1.00807202258335,-0.505134660868238
1580423784.11474,-1.30836957351034,-0.218509193560692,0.179934386205844
1580423784.14683,-1.91140611886778,0.854749370565347,-0.310795757991913
1580423784.17892,-1.77468528267338,-0.252201113908599,-0.786877241168842
1580423784.211,-2.04568551155871,-0.0246585793850613,-0.399176012817579
1580423784.24309,-1.66042572671092,0.480720225833522,-0.686778057526512
1580423784.27518,-1.25905241474022,1.15016403448539,-0.847425040054933
1580423784.30726,-0.590585183489738,1.01393148699168,-1.02565041580835
1580423784.33935,0.227786678873883,0.338628213931486,-1.70681315327687
1580423784.37144,1.32350652323186,0.914808880750744,-0.901136797131304
1580423784.40353,0.56324101625086,0.715587090867476,-0.793713282978562
1580423784.43561,-0.109620813305867,0.31860837720302,-0.397711146715496
1580423784.4677,-1.61745632104982,0.275150682841229,-0.658457312886243
1580423784.49979,-1.7820096131838,0.0803234912642097,-0.261478599221791
1580423784.53195,-1.9436331731136,0.703868162050814,-0.552986953536278
1580423784.56404,-2.02566567483024,0.920668345159076,-0.411383230334936
1580423784.59613,-1.52468146791791,0.596444647898071,-1.05885404745556
1580423784.62821,-1.60866712443732,0.251224536507209,-0.793224994277868
1580423784.6603,-1.59645990691997,-0.0886243991760125,0.512458991378654
1580423784.69239,-0.922133211261158,-0.733653772793163,-0.157473105973907
1580423784.72448,0.0256351567864499,0.612558175020983,0.160402838178072
1580423784.75657,0.722423132677196,0.41773098344396,-0.614511329823758
1580423784.78865,0.0305180437933927,0.218509193560692,-0.468513008316167
1580423784.82074,-0.225833524071106,0.0451667048142212,0.118410009918364
1580423784.85283,-1.02223239490349,1.19118028534371,-1.16334782940413
1580423784.88492,-2.24588387884337,-0.847425040054933,0.327885862516212
1580423784.917,-1.57497520408942,-0.212649729152361,0.400152590218966
1580423784.94909,-1.93923857480736,0.350347142748149,-0.244388494697489
1580423784.98118,-1.76687266346227,0.329350728618294,-0.627695124742504
1580423785.01327,-2.05398641947051,-0.338139925230793,-0.50074006256199
1580423785.04536,-1.66286717021439,0.55640497444114,-0.862073701075762
1580423785.07744,-1.24489204242008,0.735118638895248,-0.712169069962615
1580423785.10953,-0.547615777828641,1.21608300907912,-0.977309834439613
1580423785.14162,0.0251468680857556,0.541268024719617,-1.13600366216525
1580423785.17371,1.17653162432288,0.79127183947509,-1.35329213397421
1580423785.20579,0.627695124742505,0.624277103837645,-0.720958266575112
1580423785.23788,-0.0803234912642097,0.226321812771801,-0.229739833676661
1580423785.26997,-0.79468986037995,-0.0393072404058898,-0.310307469291219
1580423785.30206,-2.3288929579614,0.45874723430228,-0.488532845044633
1580423785.33415,-1.92703135729,0.468024719615471,-0.677988860914015
1580423785.36623,-2.33963530937667,0.979751277943084,0.0173342488746471
1580423785.39832,-1.70681315327687,0.857190814068819,-0.885023270008393
1580423785.43041,-1.72634470130465,0.503669794766157,-0.652109559777218
1580423785.4625,-1.5847409781033,0.175051499198901,-0.312748912794691
1580423785.49459,-1.35280384527352,-0.932875562676433,-0.0363775082017241
1580423785.52667,-0.299076829175251,0.92115663385977,0.201419089036392
1580423785.55876,0.812756542305639,0.0598153658350498,-0.787365529869536
1580423785.59085,0.150148775463492,1.06080720225834,-0.441168841077287
1580423785.62294,-0.0905775539787896,0.323979552910657,0.027588311589227
1580423785.65503,-0.789806973373008,-0.313725490196079,-0.0778820477607383
1580423785.68711,-1.00465400167849,0.937270160982681,-0.956801709010453
1580423785.7192,-2.25467307545586,0.692149233234151,-0.0759288929579611
1580423785.75129,-1.62917524986648,-1.00563057907988,0.601327534905014
1580423785.78338,-2.00271610589761,0.764904249637599,-0.217532616159303
1580423785.81543,-1.82888532845045,0.107179369802395,-0.420660715648127
1580423785.84752,-2.16482795452811,0.0222171358815899,-0.502204928664073
1580423785.8796,-1.75124742504006,0.175539787899595,-1.10719462882429
1580423785.91169,-1.14723430228122,0.788342107270925,-0.747814145113297
1580423785.94378,0.0954604409857325,1.28395513847562,-1.25661097123674
1580423785.97587,0.282963302052337,0.734630350194553,-1.26979476615549
1580423786.00795,0.758556496528573,1.1574883649958,-1.33962005035477
1580423786.04004,0.227786678873883,0.390875104905774,-0.625253681239032
1580423786.07213,-0.132082093537804,-0.0144045166704814,-0.208743419546806
1580423786.10421,-0.927504386968796,0.304448004882886,-0.619882505531395
1580423786.1363,-2.23221179522393,0.651621271076525,-0.414801251239796
1580423786.16839,-1.9695124742504,0.546639200427254,-0.395269703212024
1580423786.20048,-1.94119172961013,0.857679102769513,-0.805920500495919
1580423786.23256,-1.7898222323949,0.554940108339057,-0.671152819104295
1580423786.26465,-1.51052109559777,0.099855039291981,-0.779064621957733
1580423786.29674,-1.71218432898451,-0.790295262073702,0.217532616159303
1580423786.32883,-1.24440375371939,0.33911650263218,1.23170824750133
1580423786.36091,0.734142061493859,1.01539635309377,-1.95681696803235
1580423786.393,0.199954222934309,1.01441977569238,0.280521858548866
1580423786.42509,0.115480277714198,0.43482108796826,-0.373296711680782
1580423786.45718,-0.221438925764858,0.190676737621118,-0.0813000686655982
1580423786.48926,-1.05299458304723,-0.199954222934309,-1.06129549095903
1580423786.52135,-0.572030212863355,1.64187075608454,-0.679942015716792
1580423786.55344,-1.98123140306706,-1.11305409323262,0.728282597085528
1580423786.58553,-1.80642404821851,0.156984817273212,-0.448493171587701
1580423786.61761,-1.79421683070115,0.685801480125125,0.041260395208667
1580423786.6497,-1.99978637369345,-0.00317387655451284,-0.785900663767453
1580423786.68179,-1.87624933241779,0.203860532539863,-0.730235751888303
1580423786.71387,-1.63942931258106,0.468513008316165,-0.489021133745327
1580423786.74596,-0.740001525902189,1.49147783627069,-1.48024719615473
1580423786.77805,0.332768749523154,0.593514915693905,-1.35768673228046
1580423786.81014,0.913344014648661,0.909437705043107,-1.25709925993744
1580423786.84222,0.512458991378654,0.819104295414665,-0.83570611123827
1580423786.87431,0.0432135500114441,0.138918135347524,-0.328374151216908
1580423786.9064,-0.427496757457847,-0.0676279850461583,-0.436774242771039
1580423786.93849,-2.88065918974594,0.906019684138247,-1.09889372091249
1580423786.97057,-2.11404592965591,0.476813916227968,-0.316166933699551
1580423787.00266,-1.88259708552682,0.822522316319525,-0.355718318455787
1580423787.03475,-1.77712672617685,0.739024948500802,-0.588632028686961
1580423787.06683,-1.34059662775616,0.607186999313345,-0.696543831540398
1580423787.099,-1.33620202944991,0.254154268711375,-0.498786907759213
1580423787.13109,-1.5080796520943,-0.567635614557107,0.160891126878766
1580423787.16317,-0.581795986877241,0.714122224765394,0.252689402609292
1580423787.19526,0.456794079499502,-0.0256351567864499,-0.949477378500038
1580423787.22735,0.120851453421835,0.581307698176548,-0.0231937132829785
1580423787.25944,0.137941557946135,0.598397802700848,-0.145754177157244
1580423787.29152,-0.529549095902953,-0.0363775082017241,-0.0710460059510183
1580423787.32361,-1.16969558251316,0.297611963073166,-0.684824902723735
1580423787.3557,-1.84548714427405,1.51979858091097,-0.932875562676433
1580423787.38779,-1.55837338826581,-0.55542839703975,0.844983596551462
1580423787.41988,-1.77029068436713,0.809826810101473,-0.0549324788281069
1580423787.45196,-1.88162050812543,0.0109864957656214,-0.595956359197375
1580423787.48405,-2.03006027313649,-0.133058670939192,-0.766857404440376
1580423787.51614,-1.81374837872892,0.224368657969023,-0.773693446250096
1580423787.54823,-1.37624170290684,0.851819638361182,-0.476325627527276
1580423787.58032,-0.523689631494621,1.36842908369573,-1.20143434805829
1580423787.6124,0.257572289616235,0.368413824673837,-1.3801480125124
1580423787.64449,1.11256580453193,0.92799267566949,-1.56276798657206
1580423787.67658,0.425055313954374,0.765392538338293,-0.543221179522392
1580423787.70867,-0.174563210498206,0.212649729152361,-0.263920042725262
1580423787.74075,-0.800549324788282,0.0925307087815668,-0.539803158617532
1580423787.77284,-2.45828946364538,0.259037155718318,-0.468024719615473
1580423787.80493,-2.19803158617533,0.3972228580148,-0.472419317921721
1580423787.83702,-2.00906385900664,0.93824673838407,-0.190188448920424
1580423787.86911,-1.66970321202411,0.915785458152133,-0.594979781795987
1580423787.90119,-1.48757152666514,0.707774471656368,-0.620370794232089
1580423787.93328,-1.59206530861372,0.145754177157244,-0.266361486228734
1580423787.96537,-1.59157701991302,-1.21217669947356,0.209719996948195
1580423787.99746,-0.190676737621118,0.549080643930726,0.0290531776913099
1580423788.02954,0.644785229266805,-0.181887541008621,-0.96559090562295
1580423788.06163,0.350835431448843,0.545662623025866,-0.379156176089113
1580423788.09372,0.234622720683603,0.784924086366065,-0.294682230869002
1580423788.12581,-0.756603341725796,0.340581368734263,-0.334233615625239
1580423788.1579,-0.916762035553521,0.394293125810634,-0.267338063630122
1580423788.18998,-2.12381170366979,-0.0935072861829553,-0.649179827573052
1580423788.22207,-1.65896086060883,-0.0822766460669868,0.0246585793850613
1580423788.25416,-1.79372854200046,0.912367437247273,-0.189700160219729
1580423788.28625,-2.07058823529412,-0.221927214465552,-0.320073243305105
1580423788.31833,-1.97537193865873,0.0139162279697871,-0.728282597085526
1580423788.35042,-1.58669413290608,0.150148775463492,-0.748790722514686
1580423788.38251,-1.23414969100481,1.05055313954376,-0.663828488593881
1580423788.41459,-0.335698481727322,1.30153353170062,-1.07789730678263
1580423788.44668,-0.00122072175173571,0.271732661936369,-1.18239108873121
1580423788.47877,1.20241092545968,0.993911650263218,-1.49587243457694
1580423788.51086,0.489997711146714,0.685801480125125,-0.664805065995269
1580423788.54295,-0.0319829098954756,0.207766842145418,-0.188235294117646
1580423788.57503,-1.08033875028611,0.217044327458609,-0.608651865415426
1580423788.60712,-1.81179522392615,0.319584954604409,-0.875257495994507
1580423788.63921,-2.14969100480659,0.33569848172732,-0.445075150682841
1580423788.6713,-2.39920653086137,0.969497215228504,0.00122072175173571
1580423788.70338,-1.83376821545739,0.858167391470207,-0.81177996490425
1580423788.73547,-1.54763103685054,0.466559853513388,-0.561287861448081
1580423788.76756,-1.31911192492561,-0.0856946669718468,-0.374761577782865
1580423788.79965,-1.35573357747768,-1.05445944914931,0.40405889982452
1580423788.83174,-0.205325398641946,0.640878919661251,0.237552452887769
1580423788.86382,0.885023270008393,0.192141603723201,-0.960219729915313
1580423788.89591,0.256595712214846,0.602304112306403,-0.455817502098116
1580423788.928,-0.0759288929579611,0.390875104905774,0.0324711985961699
1580423788.96009,-1.00904859998474,-0.199954222934309,-0.332768749523156
1580423788.99217,-0.755138475623713,1.47682917524986,-1.44313725490196
1580423789.02426,-2.40946059357595,-0.729747463187609,-0.0202639810788128
1580423789.05635,-1.6023193713283,-0.271244373235676,-0.237064164187075
1580423789.08844,-1.80837720302129,0.987563897154192,-0.159914549477378
1580423789.12053,-1.70632486457618,-0.139894712748912,-0.637460898756389
1580423789.15261,-2.01541161211566,-0.321049820706493,-0.36401922636759
1580423789.1847,-1.57058060578317,0.349858854047454,-0.771252002746625
1580423789.21679,-1.32448310063325,1.22194247348745,-0.551033798733501
1580423789.24888,-0.559822995345998,1.11940184634165,-1.09889372091249
1580423789.28096,0.0339360646982527,0.461188677805751,-1.28200198367285
1580423789.31305,1.10719462882429,0.47583733882658,-1.41872281986725
1580423789.34514,0.609140154116123,1.09596398870832,-0.751720454718853
1580423789.37723,-0.149660486762798,0.370855268177309,-0.241458762493323
1580423789.40932,-0.530037384603647,-0.124269474326695,-0.315190356298162
1580423789.4414,-2.65848783093004,0.0827649347676811,-0.526619363698787
1580423789.47349,-2.0974441138323,0.301029983978026,-0.69117265583276
1580423789.50558,-2.28738841840238,0.923109788662547,-0.182375829709315
1580423789.53767,-1.7390402075227,0.912855725947967,-0.431403067063401
1580423789.56976,-1.508567940795,0.708262760357062,-0.736583504997329
1580423789.60184,-1.44167238879988,0.119386587319752,-0.529060807202258
1580423789.63393,-1.2771190966659,-0.461188677805753,0.299076829175249
1580423789.66605,-0.752208743419548,-0.181887541008621,0.595468070496683
1580423789.69813,0.44507515068284,0.0993667505912867,-0.947524223697261
1580423789.73022,0.202395666437781,0.925551232166018,-0.0866712443732354
1580423789.76231,0.0729991607537954,0.406012054627297,-0.135500114442664
1580423789.7944,-0.388921950102999,0.373785000381474,-0.108155947203784
1580423789.82648,-0.957289997711147,0.418707560845348,-0.865491721980622
1580423789.85857,-1.81521324483101,0.994399938963912,-0.381597619592585
1580423789.89066,-1.77712672617685,-1.27028305485618,0.83228809033341
1580423789.92275,-1.86208896009766,0.782482642862593,-0.255619134813459
1580423789.95484,-1.66872663462272,0.255619134813458,-0.665293354695963
1580423789.98692,-2.07791256580453,-0.10766765850309,-0.359624628061342
1580423790.01901,-1.55544365606165,0.404547188525214,-0.972915236133364
1580423790.0511,-1.20192263675898,0.896253910124361,-0.606698710612649
1580423790.08319,-0.594003204394598,1.01832608529793,-0.870374608987564
1580423790.11527,0.0813000686655982,0.418219272144654,-1.05006485084306
1580423790.14736,1.14235141527428,0.865491721980622,-1.55300221255817
1580423790.17945,0.538338292515451,0.795666437781339,-0.530037384603647
1580423790.21154,-0.208255130846112,0.389410238803691,0.0690928511482412
1580423790.24363,-0.701915007248035,0.416266117341877,-0.347417410543985
1580423790.27571,-2.00808728160525,0.247318226901655,-0.707774471656366
1580423790.3078,-2.12674143587396,0.101319905394064,-0.716563668268863
1580423790.33989,-2.58915083543145,0.692149233234151,-0.253665980010682
1580423790.37198,-1.9695124742504,0.887464713511864,-0.341069657434959
1580423790.40406,-1.51003280689708,0.684824902723737,-0.472419317921721
1580423790.43615,-1.32545967803464,0.254154268711375,-0.408941786831464
1580423790.46824,-1.45143816281376,-1.15114061188678,0.391851682307163
1580423790.50033,-0.060303654535744,0.945571068894484,0.589120317387657
1580423790.53242,0.564705882352943,-0.158449683375295,-0.957778286411841
1580423790.5645,0.0178225375753414,0.625253681239034,-0.118410009918364
1580423790.59659,0.125734340428778,0.793224994277868,-0.409430075532159
1580423790.62868,-0.297123674372473,0.471442740520331,-0.515388723582818
1580423790.66077,-1.08766308079652,0.110597390707255,-0.000732433051041426
1580423790.69285,-2.26150911726558,0.35278858625162,-0.313725490196079
1580423790.72494,-1.63454642557412,-0.424567025253682,-0.164309147783626
1580423790.75703,-1.82156099794003,1.11598382543679,-0.273685816739148
1580423790.78912,-1.91921873807889,-0.108644235904478,-0.41187151903563
1580423790.82121,-2.08621347371633,-0.0666514076447697,-0.600350957503624
1580423790.85329,-1.40651560234989,0.54615091172656,-0.745372701609826
1580423790.88538,-1.05055313954376,1.06276035706111,-0.655039291981383
1580423790.91747,-0.521736476691844,0.895765621423667,-0.925062943465324
1580423790.94852,0.10424963759823,0.328374151216906,-1.33424887464714
1580423790.9806,1.28004882887007,0.81519798580911,-1.65212481879911
1580423791.01269,0.52906080720226,0.709727626459145,-0.366460669871062
1580423791.04478,-0.096437018387121,0.361089494163423,-0.259037155718319
1580423791.07687,-1.54079499504082,0.389410238803691,-0.661875333791103
1580423791.10895,-1.82839703974975,0.128664072632944,-0.912855725947967
1580423791.14104,-2.13553063248646,0.240970473792629,-0.656992446784161
1580423791.17313,-2.40946059357595,0.996841382467384,0.261966887922483
1580423791.20522,-1.65749599450675,0.963149462119478,-0.727794308384832
1580423791.23731,-1.51345082780194,0.499763485160599,-0.442145418478676
1580423791.26939,-1.33034256504158,0.0505378805218584,-0.204837109941252
1580423791.30148,-1.19948119325551,-1.63112840466926,0.067139696345464
1580423791.33357,0.237552452887769,0.55640497444114,-0.109132524605172
1580423791.36566,0.927016098268101,0.180910963607232,-0.397222858014802
1580423791.39775,0.0974135957885096,0.364507515068283,-0.568123903257801
1580423791.42983,-0.0471198596169984,1.09108110170138,-0.776623178454262
1580423791.46192,-1.661890592813,0.60767528801404,-0.315190356298162
1580423791.49401,-2.03250171663996,-0.146242465857938,-0.460700389105059
1580423791.5261,-1.53640039673457,-0.00854505226214997,0.748302433813993
1580423791.55818,-1.94607461661708,-0.264408331425956,-0.527595941100175
1580423791.59027,-1.64040588998245,0.187747005416952,-0.740489814602883
1580423791.62236,-1.95681696803235,-0.0197756923781185,-0.338139925230793
1580423791.65445,-1.50514991989014,0.707286182955674,-0.677988860914015
1580423791.68654,-1.03981078812848,0.970473792629893,-0.865491721980622
1580423791.71862,-0.607186999313344,1.16383611810483,-0.806897077897307
1580423791.75071,0.00317387655451284,0.154543373769741,-1.45290302891585
1580423791.7828,1.00611886778058,0.726817730983445,-1.30739299610895
1580423791.81489,0.940199893186847,0.773693446250096,-0.578377965972381
1580423791.84697,0.104737926298924,0.373785000381474,-0.445075150682841
1580423791.87906,-1.08180361638819,-0.00366216525520713,-0.627206836041809
1580423791.91115,-2.1658045319295,-0.124269474326695,-0.176028076600289
1580423791.94324,-2.09695582513161,0.477790493629357,-0.928969253070878
1580423791.97533,-2.75907530327306,0.830334935530633,0.0202639810788128
1580423792.00741,-1.70876630807965,0.952407110704204,-0.554451819638361
1580423792.0395,-1.42751201647974,0.742442969405662,-0.495368886854353
1580423792.07159,-1.40456244754711,0.144777599755855,-0.201419089036392
1580423792.10368,-1.55495536736095,-1.86404211490044,0.684336614023042
1580423792.13576,0.381597619592583,0.734142061493859,-0.48706797894255
1580423792.16785,0.556893263141834,-0.0695811398489354,-0.0842298008697639
1580423792.19994,0.099855039291981,0.45532921339742,-0.758556496528573
1580423792.23209,-0.0778820477607383,0.586678873884185,-0.163332570382238
1580423792.26417,-0.928480964370184,-0.0256351567864499,-0.475837338826581
1580423792.29626,-0.700938429846646,0.479743648432134,-0.523201342793927
1580423792.32835,-2.81278706034943,-0.53833829251545,1.06276035706111
1580423792.36044,-1.69021133745327,-0.261478599221791,-0.356694895857176
1580423792.39253,-2.08377203021286,0.406012054627297,-0.149660486762798
1580423792.42461,-1.90017547875181,-0.161379415579461,-0.505622949568933
1580423792.4567,-2.01297016861219,0.171145189593346,-0.669687953002212
1580423792.48879,-1.52858777752346,0.411383230334934,-0.679942015716792
1580423792.52088,-0.938735027084764,1.47780575265125,-1.18287937743191
1580423792.55297,-0.222903791866941,0.851819638361182,-1.22291905088884
1580423792.58506,0.739513237201496,0.175051499198901,-1.69509422446021
1580423792.61714,1.02809185931182,1.06324864576181,-0.978286411841001
1580423792.64923,-0.240482185091935,0.312748912794689,-0.535896849011978
1580423792.68132,-0.263920042725262,0.031006332494087,-0.363530937666896
1580423792.71341,-1.46218051422904,0.41089494163424,-0.792736705577173
1580423792.7455,-2.21560997940032,0.375249866483557,-0.38452735179675
1580423792.77759,-2.19217212176699,0.925062943465324,-0.291752498664836
1580423792.80967,-2.36063172350652,0.791760128175785,-0.386968795300222
1580423792.84176,-1.93435568780041,0.618417639429314,-0.94850080109865
1580423792.87385,-1.75027084763867,-0.0896009765774011,-0.372320134279393
1580423792.90594,-1.33473716334783,-0.0368657969024184,0.343022812237734
1580423792.93803,-1.13112077515831,0.0393072404058898,1.3713588158999
1580423792.97012,0.776134889753568,-0.153078507667658,-1.0207675288014
1580423793.0022,-0.0319829098954756,0.728282597085528,0.387945372701608
1580423793.03429,0.0192874036774242,0.353765163653009,-0.34009308003357
1580423793.06638,-0.265873197528039,0.668711375600825,-0.286381322957199
1580423793.09847,-1.02272068360418,1.03199816891737,-0.948012512397955
1580423793.13056,-2.01589990081636,-0.160402838178072,-0.311284046692608
1580423793.16265,-1.45925078202487,-0.822522316319525,0.784924086366065
1580423793.19473,-2.04373235675593,0.388433661402303,-0.137941557946135
1580423793.22682,-1.67946898603799,0.325932707713434,-0.683848325322346
1580423793.25891,-2.20437933928435,-0.309819180590525,-0.285893034256505
1580423793.291,-1.65114824139773,0.485603112840465,-0.732677195391775
1580423793.32309,-1.16188296330205,0.753673609521631,-0.749767299916074
1580423793.35518,-0.46655985351339,1.09401083390555,-1.05104142824445
1580423793.38726,-0.150148775463492,0.342046234836346,-1.10914778362707
1580423793.41935,1.00807202258335,0.961196307316701,-1.38307774471656
1580423793.45144,0.630624856946671,0.668711375600825,-0.606210421911955
1580423793.48353,0.0744640268558783,0.31860837720302,-0.379156176089113
1580423793.51566,-0.566170748455024,0.0627450980392155,-0.424078736552987
1580423793.54774,-2.75028610666056,0.0124513618677042,-0.226321812771801
1580423793.57983,-1.91970702677958,0.271732661936369,-0.469001297016861
1580423793.61192,-2.25271992065309,1.01930266269932,-0.121828030823224
1580423793.64401,-1.80105287251087,0.934340428778516,-0.565194171053635
1580423793.6761,-1.64577706569009,0.640878919661251,-0.748302433813992
1580423793.70818,-1.56911573968109,0.144289311055161,-0.306889448386359
1580423793.74027,-1.67702754253452,-0.933363851377127,0.293217364766917
1580423793.77236,-0.36060120546273,0.936293583581293,0.930434119172961
1580423793.80445,0.877698939497979,-0.175539787899595,-1.07106126497291
1580423793.83654,0.073975738155184,0.713145647364005,-0.0153810940718699
1580423793.86863,-0.0598153658350498,0.528572518501566,-0.339604791332876
1580423793.90071,-0.418219272144656,0.411383230334934,-0.204837109941252
1580423793.9328,-0.849866483558404,0.266361486228732,-0.786877241168842
1580423793.96489,-1.71902037079423,0.416754406042571,-0.377203021286336
1580423793.99698,-1.79616998550393,-0.760509651331351,0.942641336690318
1580423794.02907,-2.01687647821775,0.294682230869,-0.365484092469673
1580423794.06116,-1.68093385214008,0.368902113374531,-0.433844510566873
1580423794.09324,-2.17996490424964,-0.181887541008621,-0.404058899824522
1580423794.12533,-1.78640421149004,0.286869611657892,-0.937270160982681
1580423794.15742,-1.29127946898604,1.01100175478752,-0.692149233234149
1580423794.18951,-0.372320134279393,1.13453879606317,-1.11989013504234
1580423794.2216,-0.183840695811398,0.294193942168306,-1.14332799267567
1580423794.25369,1.18141451132982,0.901136797131304,-1.60915541313802
1580423794.28577,0.632089723048754,0.779064621957733,-0.694102388036926
1580423794.31786,-0.0476081483176927,0.349858854047454,-0.299076829175251
1580423794.34995,-0.684824902723735,-0.0148928053711757,-0.205325398641946
1580423794.38204,-2.77811856260014,0.0759288929579611,-0.724864576180666
1580423794.41413,-2.06033417257954,0.491462577248797,-0.550545510032807
1580423794.44621,-2.30545510032807,0.62134737163348,-0.0607919432364383
1580423794.4783,-1.82546730754559,0.977798123140307,-0.595468070496681
1580423794.51039,-1.72097352559701,0.96559090562295,-0.440680552376593
1580423794.54248,-1.51100938429847,0.390875104905774,-0.144289311055161
1580423794.57457,-1.71902037079423,-1.02809185931182,0.487067978942548
1580423794.60666,-0.447516594186313,0.81177996490425,0.747814145113299
1580423794.63874,0.384527351796748,-0.0822766460669868,-0.507087815671015
1580423794.67083,0.314213778896772,0.718516823071642,-0.00659189745937283
1580423794.70292,0.307377737087052,1.12526131074998,-0.74586099031052
1580423794.73501,-0.400640878919662,-0.409918364232853,0.256107423514152
1580423794.7671,-1.29323262378882,0.370366979476614,-1.19899290455482
1580423794.79916,-1.4402075226978,1.03150988021668,-0.358648050659953
1580423794.83125,-1.71902037079423,-0.862073701075762,1.00123598077363
1580423794.86334,-1.81326009002823,0.677500572213322,-0.464606698710613
1580423794.89543,-1.85525291828794,0.202395666437781,-0.652597848477912
1580423794.92752,-2.18191805905241,-0.588632028686961,-0.429449912260624
1580423794.9596,-1.88015564202335,0.471931029221025,-0.772228580148013
1580423794.99169,-1.31569390402075,1.26491187914855,-0.630624856946669
1580423795.02378,-0.570077058060578,1.21998931868467,-1.13258564126039
1580423795.05587,0.0427252613107498,0.153078507667658,-1.2771190966659
1580423795.08796,1.19411001754787,0.561287861448083,-1.43874265659571
1580423795.12005,0.453864347295337,1.13502708476387,-0.716075379568169
1580423795.15213,-0.0847180895704582,0.344975967040511,-0.204837109941252
1580423795.18422,-0.431403067063401,0.144777599755855,-0.355230029755093
1580423795.21631,-2.71561760891127,0.61792935072862,-0.810315098802167
1580423795.2484,-2.13894865339132,0.348393987945371,-0.484138246738384
1580423795.28049,-2.11990539406424,0.773693446250096,-0.395269703212024
1580423795.31258,-1.94607461661708,0.838147554741742,-0.506111238269627
1580423795.34466,-1.52321660181582,0.711192492561228,-0.692637521934843
1580423795.37675,-1.48171206225681,0.142336156252384,-0.608651865415426
1580423795.40884,-1.64040588998245,-0.799572747386893,1.00465400167849
1580423795.44093,-0.900160219729916,0.30151827267872,1.10865949492637
1580423795.47302,0.671641107804991,0.326909285114823,-1.61843289845121
1580423795.50511,0.135500114442664,1.08717479209583,0.183352407110704
1580423795.53719,0.067139696345464,0.468024719615471,-0.352788586251622
1580423795.56928,-0.372808422980087,-0.0524910353246355,0.0559090562294955
1580423795.60137,-1.11549553673609,0.432379644464788,-0.776623178454262
1580423795.63346,-0.00170901045242999,1.40212100404364,-0.345952544441902
1580423795.66555,-2.78397802700847,-1.49684901197833,1.25465781643397
1580423795.69763,-1.82302586404212,0.177004654001678,-0.573495078965438
1580423795.72972,-1.71413748378729,0.792248416876479,-0.36060120546273
1580423795.76181,-2.1575036240177,-0.0197756923781185,-0.393316548409247
1580423795.7939,-1.92996108949416,-0.0651865415426869,-0.982192721446555
1580423795.82599,-1.51882200350957,0.795666437781339,-0.502204928664073
1580423795.85808,-0.362066071564813,1.55397878995957,-1.21364156557565
1580423795.89016,-0.138429846646829,0.514900434882126,-1.3796597238117
1580423795.92225,1.41774624246586,0.889417868314641,-1.70193026626993
1580423795.95434,0.494880598153657,0.679453727016099,-0.690196078431372
1580423795.98643,-0.0681162737468526,0.456794079499502,-0.343999389639125
1580423796.01852,-0.506599526970321,-0.0139162279697871,-0.442145418478676
1580423796.05061,-2.71854734111543,0.164797436484321,-0.921644922560464
1580423796.08279,-2.03054856183719,0.346929121843289,-0.44263370717937
1580423796.11488,-2.14773785000381,1.07789730678263,-0.101319905394064
1580423796.14697,-1.98806744487678,0.87330434119173,-0.716075379568169
1580423796.17906,-1.74148165102617,0.716075379568171,-0.436774242771039
1580423796.21115,-1.48513008316167,0.286381322957197,-0.621835660334172
1580423796.24323,-1.48757152666514,-0.371343556878005,0.55298695353628
1580423796.27532,-0.92115663385977,-0.37085526817731,0.785412375066759
1580423796.30741,0.605233844510568,0.192141603723201,-1.01734950789654
1580423796.3395,0.214114595254443,0.795666437781339,0.378179598687723
1580423796.37159,-0.0114747844663157,0.103273060196841,-0.451911192492561
1580423796.40368,-0.235111009384298,1.17262531471733,-0.713633936064697
1580423796.43577,-0.906507972838941,0.530525673304343,-0.712169069962615
1580423796.46785,-2.1062333104448,0.0686045624475469,-0.396734569314107
1580423796.49994,-1.42360570687419,-0.358648050659953,1.08229190508888
1580423796.53203,-2.04568551155871,0.24682993820096,-0.352300297550928
1580423796.56412,-1.72048523689631,0.379156176089111,-0.358648050659953
1580423796.59621,-2.17508201724269,0.00415045395590141,-0.200442511635003
1580423796.62829,-2.01931792172122,-0.024170290684367,-0.92457465476463
1580423796.66038,-1.77615014877546,0.592050049591823,-0.678965438315403
1580423796.69247,-0.68433661402304,1.29762722209506,-1.31081101701381
1580423796.72456,0.259037155718318,0.91432059205005,-1.41091020065614
1580423796.75665,1.34889753566796,0.721934843976502,-1.5422598611429
1580423796.78874,0.0842298008697639,0.606210421911957,-0.772716868848708
1580423796.82082,0.0974135957885096,0.116945143816281,-0.291264209964142
1580423796.85291,-0.136964980544747,-0.0891126878767068,-0.454840924696727
1580423796.885,-1.98757915617609,0.787365529869536,-1.04274052033265
1580423796.91709,-2.31326771953918,0.633066300450142,-0.153078507667658
1580423796.94918,-1.95535210193027,0.901136797131304,-0.319096665903716
1580423796.98127,-2.39530022125582,1.09303425650416,-0.646738384069581
1580423797.01335,-1.72243839169909,0.57349507896544,-0.879652094300756
1580423797.04544,-1.738551918822,-0.135011825741969,-0.716563668268863
1580423797.07753,-1.53151750972763,-0.676523994811932,0.52906080720226
1580423797.10962,-1.50124361028458,-0.903089951934081,1.81667811093309
1580423797.14171,0.849866483558404,1.58181124589914,-2.40115968566415
1580423797.17379,0.612558175020983,0.530037384603649,0.214114595254443
1580423797.20588,0.102784771496147,-0.00659189745937283,-0.586678873884184
1580423797.23797,-0.432867933165484,0.610116731517511,-0.0949721522850382
1580423797.27006,-0.738048371099412,0.290287632562752,-1.18629739833677
1580423797.30215,-1.01490806439307,0.485114824139771,-0.205325398641946
1580423797.33424,-1.90408178835737,-0.783947508964676,1.11647211413748
1580423797.3663,-1.93972686350805,-0.0866712443732354,-0.407965209430076
1580423797.39839,-1.85378805218586,0.538826581216146,-0.229251544975966
1580423797.43048,-2.05252155336843,0.0124513618677042,-0.762951094834822
1580423797.46257,-1.95437552452888,0.121828030823224,-0.78443579766537
1580423797.49466,-1.47145799954223,0.438727397573814,-0.798596169985505
1580423797.52675,-0.488532845044633,1.55397878995957,-1.39333180743114
1580423797.55884,0.248294804303043,0.606210421911957,-1.34987411306935
1580423797.59092,0.860608834973679,0.713145647364005,-1.30592813000687
1580423797.62301,0.218509193560692,0.520759899290457,-0.92799267566949
1580423797.6551,0.132082093537804,0.220462348363469,-0.332768749523156
1580423797.68719,-0.125734340428778,0.124269474326695,-0.513923857480735
1580423797.71928,-2.21268024719615,0.891859311818113,-0.957778286411841
1580423797.75137,-2.3118028534371,0.30151827267872,-0.0837415121690697
1580423797.78346,-1.96365300984207,0.773693446250096,-0.282475013351645
1580423797.81554,-2.18533607995727,0.872327763790341,-0.325444419012742
1580423797.84763,-1.6360112916762,0.76392767223621,-0.598886091401541
1580423797.87972,-1.50514991989014,0.251224536507209,-0.838147554741742
1580423797.91181,-1.36208133058671,-0.354253452353705,-0.0222171358815899
1580423797.9439,-1.40114442664225,-1.06178377965972,0.506111238269629
1580423797.97599,0.296147096971083,0.734142061493859,-0.566170748455024
1580423798.00808,0.748790722514688,0.350835431448843,-0.469489585717556
1580423798.04017,0.219974059662775,0.333257038223849,-0.776623178454262
1580423798.07225,-0.114991989013504,0.622323949034868,-0.343999389639125
1580423798.10434,-0.860120546272984,0.271732661936369,-0.55201037613489
1580423798.13643,-1.61452658884565,-0.334721904325933,-0.0485847257190812
1580423798.16852,-2.16287479972534,0.152590218966964,0.571541924162663
1580423798.20061,-1.82107270923934,-0.157473105973907,-0.0510261692225527
1580423798.2327,-1.80447089341573,0.40064087891966,-0.261478599221791
1580423798.26479,-1.98709086747539,-0.100343327992675,-0.508552681773098
1580423798.29688,-1.7986114290074,0.222415503166246,-0.718028534370946
1580423798.32896,-1.36501106279088,0.579842832074466,-0.703868162050812
1580423798.36105,-0.854261081864653,1.32448310063325,-1.26588845654994
1580423798.39314,-0.281986724650951,0.603280689707791,-1.02320897230488
1580423798.42523,0.895277332722973,0.717051956969559,-1.53444724193179
1580423798.45732,0.879163805600061,0.916273746852827,-0.899671931029221
1580423798.48941,-0.0515144579232469,0.233646143282215,-0.399176012817579
1580423798.5215,-0.301029983978028,0.133058670939192,-0.407965209430076
1580423798.55359,-2.60819409475853,0.694102388036928,-1.26979476615549
1580423798.58568,-2.14676127260243,0.235599298084992,-0.632089723048752
1580423798.61776,-2.31912718394751,0.674082551308462,-0.104737926298924
1580423798.64996,-2.04910353246357,0.99293507286183,-0.36743724727245
1580423798.68205,-1.36208133058671,0.776134889753568,-0.474372472724498
1580423798.71414,-1.37331197070268,0.409918364232851,-0.489021133745327
1580423798.74623,-1.6535896849012,-1.35817502098116,0.0852063782711525
1580423798.77832,0.0778820477607383,0.432867933165483,-0.114991989013504
1580423798.81041,0.406012054627297,-0.342534523537042,-0.80494392309453
1580423798.8425,0.0974135957885096,0.936781872281987,-0.592050049591821
1580423798.87458,0.264896620126649,0.959243152513924,-0.54175631342031
1580423798.90667,-0.53150225070573,-0.208743419546806,-0.103273060196841
1580423798.93876,-1.15895323109789,0.135011825741969,-0.162355992980849
1580423798.97085,-1.94851606012055,0.89723048752575,-0.484626535439078
1580423799.00294,-1.57058060578317,-0.314213778896773,0.56324101625086
1580423799.03503,-1.94509803921569,0.645761806668194,-0.457282368200199
1580423799.06712,-2.03299000534066,-0.172610055695429,-0.244388494697489
1580423799.09921,-1.97097734035248,-0.0856946669718468,-0.797619592584116
1580423799.13129,-1.48464179446098,0.434332799267565,-0.7219348439765
1580423799.16338,-1.07838559548333,1.17994964522774,-0.730724040588997
1580423799.19547,-0.46997787441825,0.993423361562524,-0.956801709010453
1580423799.22756,0.577401388570994,0.698496986343176,-1.45290302891585
1580423799.25965,1.13502708476387,0.722911421377891,-1.05641260395209
1580423799.29174,0.2605020218204,0.590096894789045,-0.555916685740444
1580423799.32383,-0.162844281681544,0.137453269245441,-0.237552452887769
1580423799.35592,-1.8332799267567,0.443121995880063,-0.961684596017395
1580423799.388,-1.74782940413519,0.297611963073166,-0.707774471656366
1580423799.42009,-2.07058823529412,0.596932936598765,-0.471931029221027
1580423799.45218,-2.24246585793851,0.800549324788282,-0.226810101472495
1580423799.48427,-1.60769054703593,0.814709697108416,-0.647226672770275
1580423799.51636,-1.37721828030823,0.678477149614711,-0.592538338292515
1580423799.54845,-1.41628137636378,-0.00708018616006711,-0.157473105973907
1580423799.58054,-1.50612649729152,-1.41579308766308,0.318120088502326
1580423799.61263,0.230228122377355,0.558358129243917,-0.590096894789044
1580423799.64471,0.629648279545282,0.127199206530861,-0.0813000686655982
1580423799.6768,0.070557717250324,0.444098573281451,-0.784924086366065
1580423799.70889,-0.10083161669337,0.553475242236974,0.0759288929579611
1580423799.74098,-1.32155336842908,-0.285893034256505,-0.603768978408484
1580423799.77307,-0.497810330357824,0.823498893720913,-0.466071564812696
1580423799.80516,-2.50955977721828,-0.626230258640421,0.269779507133592
1580423799.83725,-1.36989394979782,-0.209231708247501,-0.235111009384298
1580423799.86934,-2.06179903868162,0.837170977340353,-0.179934386205844
1580423799.90142,-1.90359349965667,-0.192141603723201,-0.312748912794691
1580423799.93356,-1.81326009002823,0.152101930266269,-0.700450141145952
1580423799.96565,-1.40895704585336,0.40405889982452,-0.825940337224385
1580423799.99774,-1.18141451132982,1.03688105592432,-0.657480735484855
1580423800.02983,-0.627695124742504,0.758068207827879,-1.15846494239719
1580423800.06192,0.600350957503625,0.466559853513388,-1.59694819562066
1580423800.09401,1.16969558251316,1.17213702601663,-0.499275196459907
1580423800.12609,0.213626306553749,0.691172655832762,-0.694102388036926
1580423800.15818,-0.313725490196079,0.024170290684367,-0.240970473792629
1580423800.19027,-2.29178301670863,0.492927443350879,-1.01490806439307
1580423800.22236,-1.82839703974975,0.321538109407186,-0.608651865415426
1580423800.25445,-1.96560616464485,0.754161898222325,-0.309819180590525
1580423800.28654,-2.11013962005035,0.88355840390631,-0.368413824673839
1580423800.31863,-1.6106202792401,0.729259174486916,-0.578866254673075
1580423800.35072,-1.50319676508736,0.304448004882886,-0.569588769359884
1580423800.3828,-1.3283894102388,-0.432867933165484,-0.0363775082017241
1580423800.41489,-1.41091020065614,-1.38991378652628,0.454840924696725
1580423800.44698,0.248294804303043,0.639414053559168,-0.582284275577935
1580423800.47907,0.830334935530633,0.932875562676433,-0.228274967574578
1580423800.51116,0.121828030823224,0.428473334859234,-0.502204928664073
1580423800.54325,-0.265873197528039,0.422125581750208,-0.115480277714198
1580423800.57534,-1.39821469443809,0.615976195925843,-1.1403982604715
1580423800.60743,-2.30594338902876,-0.700938429846646,-0.335698481727322
1580423800.63952,-1.42653543907836,-0.33667505912871,0.734142061493859
1580423800.6716,-1.67360952162966,0.477302204928662,-0.198977645532921
1580423800.70369,-1.87380788891432,0.0710460059510183,-0.565194171053635
1580423800.73578,-2.11648737315938,-0.483161669336996,-0.494392309452964
1580423800.76787,-1.68239871824216,0.41089494163424,-0.764904249637599
1580423800.79996,-1.31081101701381,0.78443579766537,-0.584725719081407
1580423800.83205,-0.729747463187609,1.43190661478599,-1.24538033112077
1580423800.86414,-0.128175783932249,0.499763485160599,-1.01441977569238
1580423800.89623,0.574471656366828,0.318120088502326,-1.4309300373846
1580423800.92831,1.06569008926528,1.10328831921874,-0.760509651331351
1580423800.9604,0.0300297550926985,0.38696879530022,-0.448004882887007
1580423800.99249,-0.146242465857938,0.0075684748607614,-0.259037155718319
1580423801.02458,-2.95878538185702,0.879163805600061,-0.965102616922255
1580423801.05667,-1.84744029907683,0.0266117341878385,-0.663340199893186
1580423801.08876,-2.10183871213855,1.07301441977569,-0.331303883421073
1580423801.12085,-2.08474860761425,0.906996261539636,-0.352300297550928
1580423801.15294,-1.69069962615396,0.930922407873656,-0.748790722514686
1580423801.18502,-1.54177157244221,0.357671473258563,-0.517341878385595
1580423801.21716,-1.2263370717937,-0.291752498664836,-0.0925307087815668
1580423801.24925,-1.34889753566796,-2.05154497596704,0.34253452353704
1580423801.28134,0.352300297550926,0.600350957503625,-0.527107652399481
1580423801.31343,0.6110933089189,0.622323949034868,-0.315190356298162
1580423801.34552,0.205325398641946,0.273197528038452,-0.380621042191196
1580423801.37761,-0.189700160219729,0.558358129243917,0.130128938735027
1580423801.4097,-1.31813534752422,0.217532616159303,-1.25514610513466
1580423801.44179,-1.21266498817426,0.448004882887005,-0.632089723048752
1580423801.47388,-2.06668192568856,-0.823010605020219,1.15016403448539
1580423801.50597,-1.92898451209278,0.132570382238498,-0.136964980544747
1580423801.53805,-1.77907988097963,0.653086137178608,-0.154055085069047
1580423801.57014,-2.00662241550317,-0.0368657969024184,-0.407476920729382
1580423801.60223,-1.78689250019074,0.146242465857938,-0.811291676203556
1580423801.63432,-1.20680552376593,0.46216525520714,-0.785900663767453
1580423801.66641,-0.665293354695963,1.03248645761807,-1.02858014801251
1580423801.6985,-0.404058899824522,0.859143968871596,-0.877698939497979
1580423801.73059,0.634531166552225,0.762462806134128,-1.3796597238117
1580423801.76268,0.991470206759747,0.777111467154956,-1.0378576333257
1580423801.79477,0.0935072861829553,0.346929121843289,-0.304448004882888
1580423801.82686,-0.364507515068285,0.114991989013504,-0.277592126344702
1580423801.85895,-2.77811856260014,0.465094987411305,-0.666758220798046
1580423801.89104,-1.91580071717403,0.0554207675288012,-0.302983138780805
1580423801.92313,-2.22928206301976,0.666269932097354,-0.52466620889601
1580423801.95521,-1.94851606012055,1.14332799267567,-0.172610055695429
1580423801.9873,-1.69069962615396,1.09401083390555,-0.746837567711909
1580423802.01939,-1.65017166399634,0.487556267643242,-0.432867933165484
1580423802.05148,-1.44704356450752,-0.281986724650951,-0.323979552910659
1580423802.08357,-1.5168688487068,-2.01052872510872,0.380621042191194
1580423802.11566,0.552498664835586,0.629159990844588,-0.771252002746625
1580423802.14775,0.490485999847408,0.169680323491264,0.153566796368352
1580423802.17984,-0.0319829098954756,0.511482413977266,-0.73560692759594
1580423802.21193,0.01196307316701,0.909437705043107,-0.190676737621118
1580423802.24402,-0.93824673838407,0.0046387426565957,-0.667734798199435
1580423802.27611,-0.308354314488442,0.122316319523918,-0.239017318989852
1580423802.3082,-2.58670939192798,0.41773098344396,0.106202792401007
1580423802.34029,-1.44557869840543,-0.300053406576639,-0.201419089036392
1580423802.37238,-2.03494316014343,0.944106202792401,-0.183840695811398
1580423802.40446,-1.86941329060807,-0.230228122377355,-0.673105973907072
1580423802.43655,-2.0119935912108,-0.160891126878766,-0.675059128709849
1580423802.46864,-1.61550316624704,0.461188677805751,-0.646250095368886
1580423802.50085,-1.10035858701457,1.36745250629435,-0.717051956969557
1580423802.53294,-0.428473334859236,1.09742885481041,-0.916762035553521
1580423802.56503,-0.144777599755855,0.338139925230792,-1.01637293049516
1580423802.59712,1.22438391699092,0.898695353627833,-1.74392309452964
1580423802.62921,0.605233844510568,0.703379873350119,-0.598886091401541
1580423802.6613,-0.131105516136415,0.304448004882886,-0.100343327992675
1580423802.69339,-1.65065995269703,0.384039063096054,-0.723887998779277
1580423802.72548,-1.58425268940261,0.401617456321048,-0.840100709544519
1580423802.75757,-2.27029831387808,0.412848096437017,-0.697032120241092
1580423802.78966,-2.54569314106966,0.697520408941788,0.184817273212786
1580423802.82175,-1.54909590295262,0.722423132677196,-0.523201342793927
1580423802.85384,-1.29127946898604,0.6281834134432,-0.603768978408484
1580423802.88592,-1.35768673228046,0.00268558785381856,-0.412359807736324
1580423802.91801,-1.4997787441825,-2.09304951552605,0.419684138246737
1580423802.9501,0.414801251239794,0.484138246738382,-0.164797436484321
1580423802.98219,0.805432211795225,0.122316319523918,-0.463630121309224
1580423803.01428,0.175051499198901,0.370366979476614,-0.592538338292515
1580423803.04637,0.0847180895704582,1.05397116044862,-0.499275196459907
1580423803.07846,-1.11207751583123,0.406012054627297,-0.617929350728618
1580423803.11055,-1.39919127183948,-0.119874876020447,-0.0949721522850382
1580423803.14264,-2.18191805905241,-0.403570611123827,1.10572976272221
1580423803.17473,-1.92458991378653,-0.0510261692225527,-0.39478141451133
1580423803.20682,-1.92898451209278,0.53931486991684,-0.24682993820096
1580423803.23891,-2.20486762798505,-0.273197528038454,-0.364995803768979
1580423803.271,-1.83083848325322,0.327885862516212,-0.839612420843824
1580423803.30308,-1.36452277409018,0.562264438849471,-0.594003204394598
1580423803.33517,-0.55884641794461,1.10524147402151,-1.12233157854581
1580423803.36726,0.116945143816281,0.411871519035628,-1.28981460288396
1580423803.39935,0.967055771725033,1.27809567406729,-1.34938582436866
1580423803.43144,0.601327534905014,0.964614328221561,-0.36743724727245
1580423803.46353,-0.0813000686655982,0.396734569314106,-0.263920042725262
1580423803.49562,-0.684824902723735,0.037842374303807,-0.352788586251622
1580423803.52771,-2.36404974441138,0.107179369802395,-0.608163576714732
1580423803.5598,-2.16971084153506,0.0549324788281069,-0.659922178988326
1580423803.59189,-2.25711451895934,0.64869153887236,-0.124269474326695
1580423803.62398,-1.86599526970321,0.789318684672313,-0.386968795300222
1580423803.65607,-1.27858396276799,0.844495307850767,-0.776623178454262
1580423803.68816,-1.35329213397421,0.370855268177309,-0.55542839703975
1580423803.72024,-1.45534447241932,-0.581795986877241,0.830823224231327
1580423803.75233,-0.53833829251545,0.0363775082017241,0.476813916227968
1580423803.78442,0.742931258106356,0.12475776302739,-1.08326848249027
1580423803.81651,0.129152361333638,0.761974517433433,-0.133546959639887
1580423803.8486,0.0656748302433812,0.679942015716794,-0.127687495231555
1580423803.88069,-0.397711146715496,0.104737926298924,-0.293217364766919
1580423803.91278,-0.95191882200351,0.613046463721677,-0.512947280079347
1580423803.94487,-2.39139391165026,0.528572518501566,-0.786877241168842
1580423803.97696,-1.50563820859083,-0.658457312886243,-0.0764171816586554
