Timestamp_seconds,Accel_X_g,Accel_Y_g,Accel_Z_g
1580423750.45148,-0.916273746852827,0.34253452353704,-0.196047913328755
1580423750.48324,-0.913832303349356,0.338628213931486,-0.183352407110704
1580423750.515,-0.918226901655604,0.334233615625237,-0.183352407110704
1580423750.54676,-0.922133211261158,0.328374151216906,-0.196047913328755
1580423750.57852,-0.92115663385977,0.340093080033569,-0.184817273212786
1580423750.61028,-0.919203479056993,0.346929121843289,-0.187258716716258
1580423750.64197,-0.930434119172961,0.331303883421072,-0.193118181124589
1580423750.67373,-0.92115663385977,0.34253452353704,-0.200442511635003
1580423750.70549,-0.908949416342413,0.343022812237734,-0.196536202029449
1580423750.73725,-0.918715190356298,0.340093080033569,-0.201419089036392
1580423750.76901,-0.91773861295491,0.337651636530097,-0.192629892423895
1580423750.80077,-0.935317006179904,0.337163347829403,-0.189211871519035
1580423750.83253,-0.908949416342413,0.339604791332874,-0.185305561913481
1580423750.86429,-0.906507972838941,0.329350728618294,-0.212649729152361
1580423750.89605,-0.923598077363241,0.345464255741206,-0.186282139314869
1580423750.92781,-0.930922407873656,0.337651636530097,-0.166750591287098
1580423750.95957,-0.915297169451438,0.337163347829403,-0.146730754558632
1580423750.99133,-0.909925993743801,0.33228046082246,-0.165774013885709
1580423751.0231,-0.908949416342413,0.345464255741206,-0.192629892423895
1580423751.05486,-0.908461127641718,0.371831845578697,-0.182864118410009
1580423751.08662,-0.903578240634776,0.378667887388417,-0.206301976043335
1580423751.11838,-0.924086366063936,0.35278858625162,-0.196047913328755
1580423751.15014,-0.906996261539636,0.348393987945371,-0.208255130846112
1580423751.1819,-0.911390859845884,0.323979552910657,-0.215579461356526
1580423751.21366,-0.920668345159076,0.33228046082246,-0.202395666437781
1580423751.24542,-0.92457465476463,0.35620660715648,-0.205325398641946
1580423751.27718,-0.917250324254216,0.355718318455786,-0.234622720683603
1580423751.30894,-0.906019684138247,0.362554360265506,-0.266849774929428
1580423751.3407,-0.892347600518807,0.368902113374531,-0.243900205996795
1580423751.37246,-0.901625085831999,0.3801327534905,-0.230716411078049
1580423751.40422,-0.966567483024338,0.385503929198137,-0.281986724650951
1580423751.43598,-0.833264667734799,0.241458762493323,-0.441657129777981
1580423751.46774,-0.621347371633478,0.0881361104753182,-0.632578011749446
1580423751.49951,-0.848889906157016,0.220950637064163,-0.530525673304341
1580423751.53127,-0.973403524834058,0.534920271610591,-0.437750820172427
1580423751.56303,-0.586190585183489,0.333745326924543,-0.662851911192492
1580423751.59479,-0.471931029221027,-0.0280766002899213,-0.618417639429312
1580423751.62655,-0.768322270542459,0.2434119172961,-0.586678873884184
1580423751.65831,-1.02516212710765,0.374761577782863,-0.49390402075227
1580423751.69007,-0.888441290913253,0.284916456855115,-0.667246509498741
1580423751.72183,-1.00953688868544,0.505622949568934,-0.574471656366827
1580423751.75359,-1.18776226443885,0.411383230334934,-0.170656900892652
1580423751.78535,-1.04811169604028,-0.126222629129472,-0.475837338826581
1580423751.81711,-0.95533684290837,-0.331792172121768,-0.442145418478676
1580423751.84887,-0.950453955901427,-0.42896162355993,-0.313237201495385
1580423751.88063,-0.894789044022279,-0.44605172808423,-0.331792172121768
1580423751.91229,-0.85621423666743,-0.158449683375295,-0.491462577248798
1580423751.94405,-0.987563897154192,0.214114595254443,-0.417730983443962
1580423751.97581,-1.12867933165484,0.175539787899595,-0.345952544441902
1580423752.00757,-1.00123598077363,0.351812008850231,-0.409430075532159
1580423752.03933,-0.805432211795225,0.109132524605172,-0.316655222400245
1580423752.07109,-0.752208743419548,-0.214602883955138,-0.295658808270391
1580423752.10285,-0.77418173495079,-0.142336156252384,-0.351323720149539
1580423752.13461,-0.907972838941024,-0.063721675440604,-0.520759899290455
1580423752.16637,-0.819592584115359,-0.182375829709315,-0.516365300984207
1580423752.19813,-0.946059357595178,-0.237064164187075,-0.309819180590525
1580423752.22989,-0.936781872281987,-0.0661631189440754,-0.287846189059282
1580423752.26165,-0.90406652933547,-0.113038834210727,-0.296147096971085
1580423752.29341,-0.866956588082704,-0.235599298084992,-0.403082322423133
1580423752.32518,-0.933363851377127,-0.308842603189136,-0.46997787441825
1580423752.35694,-0.905043106736859,-0.301029983978028,-0.574471656366827
1580423752.3887,-0.870374608987564,-0.2434119172961,-0.388433661402305
1580423752.42046,-0.891859311818113,-0.0388189517051956,-0.337651636530099
1580423752.45222,-0.974380102235447,0.132082093537804,-0.307866025787748
1580423752.48398,-1.07643244068055,0.177004654001678,-0.403082322423133
1580423752.51574,-1.04127565423056,0.172121766994735,-0.378667887388419
1580423752.5475,-1.12233157854581,0.198001068131532,-0.406988632028687
1580423752.57926,-0.889417868314641,0.341557946135651,-0.624277103837644
1580423752.61102,-0.823498893720913,0.0993667505912867,-0.581307698176547
1580423752.64278,-0.842053864347296,0.110597390707255,-0.46997787441825
1580423752.67454,-0.857679102769513,0.112062256809338,-0.447516594186313
1580423752.7063,-0.793224994277868,0.137453269245441,-0.527107652399481
1580423752.73806,-0.783459220263982,0.0690928511482412,-0.53492027161059
1580423752.76982,-0.781506065461205,0.0441901274128327,-0.50415808346685
1580423752.80158,-0.747814145113297,0.00708018616006711,-0.513923857480735
1580423752.83334,-0.760997940032045,-0.0612802319371326,-0.522224765392538
1580423752.8651,-0.748302433813992,-0.113527122911421,-0.48023193713283
1580423752.89686,-0.775158312352179,-0.0256351567864499,-0.503181506065461
1580423752.92862,-0.933852140077821,0.125246051728084,-0.457770656900893
1580423752.96038,-1.16139467460136,0.0725108720531011,-0.325932707713436
1580423752.99214,-1.2087586785687,0.0368657969024184,-0.385015640497445
1580423753.0239,-1.29616235599298,-0.122804608224612,-0.401129167620356
1580423753.05566,-1.34157320515755,-0.485114824139773,-0.580819409475852
1580423753.08742,-0.987075608453498,-0.527595941100175,-1.1237964446479
1580423753.11918,-0.494392309452964,-0.0905775539787896,-1.04420538643473
1580423753.15094,-0.0280766002899213,0.133058670939192,-0.738048371099412
1580423753.18265,-0.466071564812696,-0.457770656900893,-0.682383459220263
1580423753.21441,-0.978286411841001,0.354741741054397,-0.542244602121004
1580423753.24617,-0.719981689173723,0.30151827267872,-0.177981231403066
1580423753.27793,-0.385992217898833,0.160402838178072,-0.11108567940795
1580423753.30969,-0.762462806134128,0.244876783398183,-0.572030212863355
1580423753.34145,-2.36404974441138,-0.494392309452964,-1.15553521019303
1580423753.37321,-1.41091020065614,-0.83912413214313,-0.722911421377889
1580423753.40497,-1.10914778362707,0.405035477225908,-0.301029983978028
1580423753.43673,-0.991958495460441,-0.157473105973907,-0.695078965438315
1580423753.46849,-0.837170977340353,-0.0153810940718699,-0.709727626459143
1580423753.50025,-0.476325627527276,0.596444647898071,-0.602792401007095
1580423753.53201,-0.185793850614175,0.168703746089875,-0.68433661402304
1580423753.56377,-0.327397573815519,-0.462165255207141,-0.571053635461967
1580423753.59553,-0.643808651865415,-0.431403067063401,-0.184328984512092
1580423753.62729,-0.841565575646602,-0.11450370031281,0.0407721065079727
1580423753.65905,-1.15162890058747,0.132082093537804,-0.720469977874417
1580423753.69081,-0.531990539406424,-0.227786678873883,-1.06324864576181
1580423753.72257,-0.626718547341115,-1.0207675288014,-0.768810559243153
1580423753.75433,-1.38796063172351,0.717540245670254,0.153078507667658
1580423753.78609,-1.39479667353323,0.198977645532921,0.384039063096054
1580423753.81785,-1.81228351262684,-0.210696574349583,-1.1233081559472
1580423753.84961,-1.53200579842832,-0.756115053025102,-0.156008239871824
1580423753.88137,-1.83230334935531,-0.242923628595406,-0.266849774929428
1580423753.91313,-1.28834973678187,-0.168703746089875,-1.33034256504158
1580423753.94489,-0.740978103303577,0.163332570382238,-1.14235141527428
1580423753.97665,-0.389410238803693,-1.04469367513542,-1.12916762035553
1580423754.00841,0.149172198062104,-0.797131303883422,-1.26784161135271
1580423754.04017,0.991958495460441,0.201907377737086,-0.762951094834822
1580423754.07193,0.23657587548638,-0.0109864957656214,-0.544686045624475
1580423754.10369,-0.253177691309988,-0.148683909361409,-0.359624628061342
1580423754.13545,-3.11747920958267,0.195071335927366,-0.459235523002976
1580423754.16721,-1.93728542000458,-0.239017318989852,-0.438239108873121
1580423754.19897,-2.3025253681239,-0.129152361333638,-1.21608300907912
1580423754.23073,-1.58815899900816,-0.0954604409857325,-1.70876630807965
1580423754.2625,-1.97878995956359,-0.399664301518273,-0.397711146715496
1580423754.29426,-1.909452964065,-0.54859235523003,1.1237964446479
1580423754.32601,-1.45485618371862,-0.906507972838941,0.915297169451438
1580423754.35777,0.569588769359886,0.532967116807814,-1.7043717097734
1580423754.38954,0.541756313420311,-0.0856946669718468,0.214114595254443
1580423754.4213,-0.134035248340581,-0.729259174486915,-0.403570611123827
1580423754.45303,0.0046387426565957,-0.354741741054399,-0.517341878385595
1580423754.48479,-0.135500114442664,0.0656748302433812,-1.03492790112154
1580423754.51655,-1.1916685740444,-2.07498283360037,-0.312260624093996
1580423754.54831,-2.04129091325246,0.708262760357062,0.130128938735027
1580423754.58007,-1.7302510109102,0.305912870984969,0.954360265506981
1580423754.61183,-2.10720988784619,0.0563973449301898,-0.277103837644008
1580423754.64359,-2.45535973144121,-1.09108110170138,-0.133546959639887
1580423754.67535,-2.0295719844358,-0.621835660334172,-0.761974517433433
1580423754.70711,-1.66091401541161,-0.605722133211261,-0.743907835507743
1580423754.73887,-0.740978103303577,0.42456702525368,-1.69704737926299
1580423754.77063,0.041260395208667,-0.32642099641413,-1.56325627527275
1580423754.80239,0.961196307316701,-0.702403295948729,-1.29762722209506
1580423754.83415,0.665781643396659,-0.230716411078049,-1.03981078812848
1580423754.86591,0.213626306553749,-0.205325398641946,-0.539803158617532
1580423754.89767,-0.268314641031511,-0.0769054703593497,-0.304448004882888
1580423754.92943,-1.78640421149004,0.297611963073166,-0.191653315022506
1580423754.96119,-2.19900816357671,-0.234134431982909,-0.935805294880598
1580423754.99295,-1.50563820859083,-0.248294804303043,-1.28297856107424
1580423755.02471,-2.48807507438773,-0.583260852979324,-1.0466468299382
1580423755.05647,-2.22732890821698,-0.146730754558632,-0.175539787899595
1580423755.08823,-1.68386358434424,-0.323491264209965,0.510505836575877
1580423755.11999,-1.21950102998398,0.617441062027925,-1.1574883649958
1580423755.15175,0.150148775463492,-0.74927901121538,0.0129396505683985
1580423755.18351,-0.0163576714732585,0.34937056534676,-0.567635614557107
1580423755.21527,-0.0495613031204698,-0.292240787365531,-0.644785229266803
1580423755.24703,0.113527122911421,0.128664072632944,-0.334721904325933
1580423755.27879,-0.171145189593346,-0.0593270771343555,-0.36743724727245
1580423755.31055,-0.616464484626535,-0.414312962539102,-0.784924086366065
1580423755.34231,-2.13504234378576,-0.744884412909132,-0.468024719615473
1580423755.37407,-1.56716258487831,0.469489585717554,0.307377737087052
1580423755.40582,-2.00320439459831,0.675547417410545,0.887953002212559
1580423755.43758,-2.03396658274205,0.338628213931486,-0.343999389639125
1580423755.46934,-2.32449835965515,-0.682871747920958,-0.221438925764858
1580423755.5011,-2.35037766079194,-1.07887388418402,-0.467536430914778
1580423755.53286,-1.22194247348745,-0.443121995880064,-1.87234302281224
1580423755.56462,-0.553475242236972,-0.190188448920424,-1.68239871824216
1580423755.59638,0.397711146715494,-0.12133974212253,-1.17409018081941
1580423755.62814,1.33620202944991,-0.379156176089113,-1.3029983978027
1580423755.6599,0.0393072404058898,-0.099855039291981,-0.968520637827115
1580423755.69166,-0.0148928053711757,-0.280521858548868,-0.412848096437019
1580423755.72345,-0.417730983443962,-0.314702067597468,-0.399664301518273
1580423755.75521,-2.81229877164874,-0.0451667048142212,0.133546959639887
1580423755.78697,-1.82497901884489,0.0578622110322726,-0.949477378500038
1580423755.81873,-1.91628900587472,-0.0134279392690928,-1.50319676508736
1580423755.85049,-2.2004730296788,-0.364507515068285,-0.969985503929198
1580423755.88225,-2.07644769970245,-0.409430075532159,-0.0754406042572668
1580423755.91401,-1.49245441367208,-0.132570382238498,1.07838559548333
1580423755.94577,-1.25026321812772,-0.498786907759213,0.0197756923781185
1580423755.97753,0.195071335927366,-0.0881361104753182,-0.297123674372473
1580423756.00929,0.0148928053711757,0.137941557946135,-0.304936293583582
1580423756.04105,0.232669565880826,-0.272220950637065,-0.370366979476616
1580423756.07281,-0.024170290684367,-0.01196307316701,-0.406500343327993
1580423756.10457,-0.181887541008621,0.0500495918211641,-0.828381780727856
1580423756.13633,-0.936781872281987,-2.11013962005035,-0.0666514076447697
1580423756.16809,-2.08328374151217,0.343511100938429,0.305424582284274
1580423756.19984,-1.51393911650263,0.269779507133592,0.487067978942548
1580423756.2316,-2.4568245975433,0.136476691844052,0.228763256275272
1580423756.26337,-2.42020294499123,-1.06080720225834,-0.0681162737468526
1580423756.29513,-2.18728923476005,-0.731212329289692,-0.831799801632716
1580423756.32688,-1.43434805828946,-0.439703974975204,-1.31667048142214
1580423756.35864,-0.649668116273746,0.430914778362705,-1.45534447241932
1580423756.3904,0.85963225757229,-0.312748912794691,-1.76931410696574
1580423756.42216,1.08473334859235,-0.493415732051576,-1.34059662775616
1580423756.45392,0.0822766460669868,-0.449958037689784,-0.74586099031052
1580423756.48568,-0.0910658426794839,-0.192141603723201,-0.450934615091173
1580423756.51744,-0.927016098268101,-0.0920424200808725,-0.202395666437781
1580423756.5492,-2.92607003891051,-0.0554207675288012,-0.0402838178072784
1580423756.58096,-1.45778591592279,0.58716716258488,-1.14821087968261
1580423756.61272,-2.26150911726558,-0.347905699244679,-1.70144197756924
1580423756.64448,-2.18728923476005,-0.774670023651485,-0.903578240634776
1580423756.67624,-1.84939345387961,-0.443610284580759,0.396246280613411
1580423756.708,-1.50563820859083,-0.486579690241856,2.00808728160525
1580423756.73976,-1.07106126497291,0.711680781261922,-1.51540398260471
1580423756.77152,0.698985275043871,-0.648203250171663,-0.328862439917602
1580423756.80328,0.415777828641183,0.692149233234151,-0.491950865949493
1580423756.83504,-0.176028076600289,-0.573983367666132,-0.359624628061342
1580423756.8668,0.0910658426794839,-0.0124513618677042,-1.04469367513542
1580423756.89856,-0.717051956969557,0.157473105973907,-0.960219729915313
1580423756.93032,-3.53398947127489,-0.305912870984971,0.419195849546043
1580423756.96208,-1.70046540016785,0.516853589684903,0.500251773861297
1580423756.99374,-2.05300984206912,0.122316319523918,0.45874723430228
1580423757.0255,-2.16433966582742,-0.244876783398183,-0.073975738155184
1580423757.05726,-2.28738841840238,-0.629648279545281,-0.399176012817579
1580423757.08902,-2.12381170366979,-0.624765392538338,-0.596444647898069
1580423757.12078,-0.964126039520867,-0.323979552910659,-1.85915922789349
1580423757.15254,-0.11108567940795,-0.00952162966353853,-1.63991760128176
1580423757.1843,0.855237659266042,-0.566170748455024,-1.3884489204242
1580423757.21606,0.799572747386893,0.000244144350347142,-1.18873884184024
1580423757.24782,0.000732433051041426,-0.320561532005799,-0.794201571679256
1580423757.27958,0.0046387426565957,-0.283451590753033,-0.283939879453728
1580423757.31134,-0.416266117341879,-0.152101930266269,-0.294193942168308
1580423757.3431,-3.28691538872358,-0.561287861448081,-0.210696574349583
1580423757.37486,-1.56667429617761,0.0612802319371326,-1.0891279468986
1580423757.40662,-1.93191424429694,-0.297123674372473,-1.43630121309224
1580423757.43838,-1.86404211490044,-0.274174105439842,-0.987563897154192
1580423757.47014,-1.87624933241779,-0.200442511635003,-0.554940108339055
1580423757.5019,-1.53493553063249,-0.177004654001678,0.276615548943312
1580423757.53366,-1.34352635996033,-0.877698939497979,0.464606698710611
1580423757.56542,0.0187991149767299,0.424078736552985,-0.844983596551462
1580423757.59718,0.0725108720531011,-0.315678644998856,-0.213138017853055
1580423757.62894,0.269779507133592,-0.106202792401007,-0.376714732585642
1580423757.6607,-0.0104982070649271,-0.0124513618677042,-0.0114747844663157
1580423757.69246,-0.317143511100939,0.0148928053711757,-0.611093308918898
1580423757.72422,-0.870862897688259,-0.598886091401541,-0.556404974441138
1580423757.75598,-1.82302586404212,0.694102388036928,-0.337651636530099
1580423757.78774,-1.78249790188449,-0.0134279392690928,0.879652094300756
1580423757.8195,-2.02468909742885,0.707774471656368,0.327397573815517
1580423757.85126,-2.30838483253224,-0.178469520103761,-0.325444419012742
1580423757.88302,-2.32596322575723,-1.03248645761807,-0.592050049591821
1580423757.91478,-2.07937743190661,-0.92457465476463,-1.00221255817502
1580423757.94654,-1.04078736552987,-0.418219272144656,-1.98855573357748
1580423757.97829,-0.443610284580759,0.279545281147477,-1.39919127183948
1580423758.01005,1.66091401541161,-0.0959487296864268,-1.3459678034638
1580423758.04182,0.448004882887005,-0.298588540474556,-1.17067215991455
1580423758.07358,0.0324711985961699,-0.54175631342031,-0.641367208361943
1580423758.10533,-0.251224536507211,-0.354253452353705,-0.268802929732205
1580423758.13709,-0.85963225757229,-0.130617227435721,-0.283451590753033
1580423758.16885,-2.75468070496681,-0.305424582284276,-0.40845349813077
1580423758.20061,-1.91091783016709,0.310307469291217,-1.07057297627222
1580423758.23237,-2.4568245975433,-0.341557946135653,-1.12281986724651
1580423758.2641,-1.89382772564279,-0.506599526970321,-0.685801480125123
1580423758.29586,-1.72829785610742,-0.195071335927366,0.0612802319371326
1580423758.32762,-1.27614251926452,-0.188723582818341,1.89431601434348
1580423758.35938,-0.914808880750744,0.143312733653772,-1.91677729457542
1580423758.39114,0.797131303883422,-0.648203250171663,-0.303471427481499
1580423758.4229,0.544197756923783,0.626230258640422,-0.729747463187609
1580423758.45466,-0.073975738155184,-0.212161440451666,-0.235111009384298
1580423758.48642,-0.202395666437781,-0.000732433051041426,-0.933363851377127
1580423758.51818,-0.599374380102235,-0.131593804837109,-0.803479056992447
1580423758.54994,-2.07644769970245,-1.16725413900969,0.447516594186311
1580423758.5817,-2.00271610589761,0.488044556343937,-0.0432135500114441
1580423758.61346,-1.73513389791714,0.376226443884946,0.482673380636299
1580423758.64522,-2.2605325398642,-0.146730754558632,-0.037842374303807
1580423758.67698,-2.05886930647745,-0.673105973907072,-0.412848096437019
1580423758.70873,-2.09597924773022,-0.628183413443198,-0.536385137712672
1580423758.74049,-1.38991378652628,-0.0222171358815899,-1.09401083390555
1580423758.77225,-0.683360036621652,-0.644296940566109,-1.88845654993515
1580423758.80401,-0.113038834210727,-0.870862897688259,-1.2517280842298
1580423758.83577,1.42360570687419,-0.0202639810788128,-0.877698939497979
1580423758.86753,0.510994125276572,0.250736247806515,-1.30836957351034
1580423758.89929,-0.0236820019836728,-0.283939879453728,-0.687266346227206
1580423758.93105,-0.332768749523156,-0.411383230334936,-0.393316548409247
1580423758.96281,-2.26492713817044,0.0383306630045013,-0.286381322957199
1580423758.99457,-2.2947127489128,-0.214114595254443,-0.638437476157778
1580423759.02633,-1.70388342107271,-0.247318226901655,-1.09449912260624
1580423759.05809,-2.20486762798505,-0.324467841611353,-1.29176775768673
1580423759.08985,-2.04812695506218,-0.240482185091935,-0.225345235370412
1580423759.12161,-1.85720607309072,-0.104737926298924,1.37819485770962
1580423759.15337,-1.1403982604715,0.623788815136951,-0.760997940032045
1580423759.18513,0.0153810940718699,-1.14186312657359,-0.2434119172961
1580423759.21689,0.00366216525520713,0.431891355764094,-0.547615777828641
1580423759.24865,0.00317387655451284,-0.399176012817579,-0.319096665903716
1580423759.28041,0.0974135957885096,-0.0959487296864268,-0.278080415045396
1580423759.31217,-0.247806515602349,-0.130128938735027,-0.561287861448081
1580423759.34393,-1.14772259098192,0.100343327992675,-0.890882734416724
1580423759.37569,-1.67800411993591,1.36012817578393,-0.378667887388419
1580423759.40745,-1.66921492332341,-0.628671702143892,0.721934843976502
1580423759.43921,-1.81423666742962,0.23657587548638,0.629648279545282
1580423759.47097,-2.0207827878233,-0.0612802319371326,-0.51099412527657
1580423759.50273,-2.33279926756695,-0.486091401541161,0.00366216525520713
1580423759.53445,-2.07449454489967,-0.53492027161059,-0.521736476691844
1580423759.56621,-0.957289997711147,-0.122316319523918,-1.7219501029984
1580423759.59797,-0.496345464255741,-0.458747234302281,-1.71560234988937
1580423759.62973,0.526131074998094,-0.579354543373769,-1.16481269550622
1580423759.66149,1.01637293049516,0.194583047226672,-1.21559472037842
1580423759.69325,-0.0231937132829785,-0.248294804303043,-0.78101777676051
1580423759.72501,-0.0881361104753182,-0.314213778896773,-0.457282368200199
1580423759.75677,-0.46314183260853,-0.389898527504387,-0.349858854047456
1580423759.78853,-3.10869001297017,-0.0876478217746239,-0.106691081101701
1580423759.82029,-1.88943312733654,0.0251468680857556,-1.04029907682918
1580423759.85205,-2.31326771953918,-0.222415503166246,-0.997329671168078
1580423759.88381,-2.12722972457465,-0.163820859082932,-0.598886091401541
1580423759.91557,-1.7556420233463,-0.152590218966964,-0.215091172655832
1580423759.94733,-1.18434424353399,-0.0407721065079727,1.1833676661326
1580423759.97909,-1.08570992599374,-0.759533073929962,-0.164797436484321
1580423760.01085,0.596932936598765,-0.00415045395590141,-0.39136339360647
1580423760.04261,0.186282139314869,0.356694895857174,-0.611093308918898
1580423760.07437,-0.0285648889906156,0.0676279850461583,-0.393316548409247
1580423760.10613,0.0368657969024184,0.0334477759975584,-0.186282139314869
1580423760.13789,-0.560799572747387,-0.148195620660715,-0.636972610055695
1580423760.16965,-0.727306019684137,-3.1575188830396,-0.48023193713283
1580423760.20141,-1.44753185320821,0.704356450751508,-0.0925307087815668
1580423760.23317,-1.79079880979629,-0.130128938735027,0.84596017395285
1580423760.26493,-2.04422064545663,0.843518730449379,0.0437018387121384
1580423760.29669,-2.47879758907454,-0.158449683375295,0.0617685206378269
1580423760.32845,-2.39969481956207,-0.616464484626535,-0.547615777828641
1580423760.36021,-1.77663843747616,-0.599374380102235,-1.04762340733959
1580423760.39197,-0.668223086900129,-0.921644922560464,-1.73464560921645
1580423760.42373,-0.235111009384298,-0.311284046692608,-1.19703974975204
1580423760.45549,1.53835355153735,0.0397955291065841,-1.67995727473869
1580423760.48725,-0.034424353398947,-0.360112916762036,-1.19508659494926
1580423760.51901,0.0588387884336612,-0.599862668802929,-0.514900434882124
1580423760.55077,-0.0925307087815668,-0.204348821240558,-0.223880369268329
1580423760.58253,-0.748790722514686,-0.106202792401007,-0.166262302586404
1580423760.61428,-2.91386282139315,0.218509193560692,-0.0417486839093613
1580423760.64604,-1.5334706645304,0.446540016784922,-0.856702525368124
1580423760.6778,-1.99050888838025,0.191653315022506,-1.14332799267567
1580423760.70956,-1.67214465552758,-0.594979781795987,-1.47682917524987
1580423760.74132,-1.7048599984741,-0.884046692607004,-0.528572518501564
1580423760.77308,-1.65065995269703,-0.833752956435493,0.957778286411841
1580423760.80484,-1.55739681086442,-0.831311512932022,0.453376058594642
1580423760.8366,0.384039063096054,1.30788128480964,-0.685313191424429
1580423760.86836,0.0861829556725411,0.222415503166246,-0.48364995803769
1580423760.90012,-0.0373540856031127,-0.461676966506447,-0.293705653467613
1580423760.93188,-0.288822766460671,-0.252201113908599,-0.0920424200808725
1580423760.96364,-0.420660715648127,0.000244144350347142,-1.14137483787289
1580423760.9954,-0.56226443884947,-2.50272373540856,-0.525154497596704
1580423761.02716,-1.70095368886854,0.581795986877243,-0.0983901731898982
1580423761.05892,-1.65749599450675,-0.281498435950256,0.868909742885482
1580423761.09068,-1.99197375448234,0.548592355230031,0.0173342488746471
1580423761.12244,-2.17605859464408,-0.38452735179675,-0.376226443884947
1580423761.1542,-2.41971465629053,-0.399664301518273,-0.279056992446785
1580423761.18596,-1.84695201037614,-0.598886091401541,-0.712169069962615
1580423761.21772,-1.19606317235065,-0.223880369268329,-1.61355001144427
1580423761.24948,-0.271732661936371,-0.597909514000152,-2.10867475394827
1580423761.28124,1.02418554970626,-0.772228580148013,-1.27370107576104
1580423761.313,0.727794308384833,-0.070557717250324,-0.716563668268863
1580423761.34475,0.113038834210727,-0.179446097505149,-1.11256580453193
1580423761.37651,-0.0949721522850382,-0.0593270771343555,-0.594003204394598
1580423761.40827,-1.05348287174792,0.0217288471808956,-0.339116502632182
1580423761.44003,-2.78690775921264,-0.280521858548868,0.0520027466239412
1580423761.47179,-1.84646372167544,0.141847867551689,-0.568612191958495
1580423761.50355,-1.98953231097887,-0.00610360875867855,-1.27663080796521
1580423761.53531,-1.76345464255741,-0.190188448920424,-1.10475318532082
1580423761.56707,-1.83523308155947,-0.48023193713283,-0.0925307087815668
1580423761.59883,-1.48708323796445,-0.238040741588463,2.51346608682384
1580423761.63059,-0.689219501029983,0.54956893263142,-1.76833752956436
1580423761.66235,0.519295033188374,-0.984634164950027,-0.203860532539863
1580423761.69411,0.187747005416952,1.14528114747845,-0.739513237201495
1580423761.72587,-0.0573739223315783,-0.344975967040513,-0.385503929198139
1580423761.75763,0.099855039291981,0.432379644464788,-0.38794537270161
1580423761.78939,-0.594979781795987,-0.284428168154422,-0.785412375066759
1580423761.82115,-1.3547570000763,-2.97685206378271,-0.299565117875945
1580423761.85291,-1.91335927367056,0.240482185091935,0.130128938735027
1580423761.88467,-1.70974288548104,-0.124269474326695,0.914808880750744
1580423761.91643,-1.89626916914626,0.504646372167546,-0.396246280613413
1580423761.94819,-2.36160830090791,-0.295170519569696,-0.0246585793850613
1580423761.97995,-2.5764553292134,-0.680430304417486,0.0402838178072784
1580423762.01171,-1.63308155947204,-0.567635614557107,-1.25368123903258
1580423762.04347,-0.916273746852827,-0.608651865415426,-2.02420080872816
1580423762.07522,0.0715342946517126,-0.317631799801633,-1.53688868543526
1580423762.10698,1.4309300373846,-0.208743419546806,-1.23707942320897
1580423762.13874,0.24682993820096,0.198489356832226,-0.995376516365301
1580423762.1705,-0.245853360799572,-0.499275196459907,-0.733653772793163
1580423762.20226,-0.138429846646829,-0.289799343862059,-0.319096665903716
1580423762.23402,-1.25758754863813,0.153566796368352,-0.00952162966353853
1580423762.26578,-2.52079041733425,-0.202883955138475,-0.380621042191196
1580423762.29754,-1.44460212100404,0.10424963759823,-1.03150988021668
1580423762.3293,-2.34988937209125,-0.327397573815519,-1.16578927290761
1580423762.36106,-1.90017547875181,-0.54175631342031,-0.827405203326467
1580423762.39282,-1.98025482566567,-0.443610284580759,0.0417486839093613
1580423762.42458,-1.45241474021515,-0.157961394674601,1.33913176165408
1580423762.45634,-0.901625085831999,0.97584496833753,-1.90017547875181
1580423762.4881,0.47241931792172,-0.905531395437553,-0.0710460059510183
1580423762.51986,0.387945372701608,0.593514915693905,-0.776134889753568
1580423762.55161,-0.0632333867399097,-0.38452735179675,-0.181887541008621
1580423762.58337,-0.118898298619058,0.137941557946135,-0.658457312886243
1580423762.61513,-0.688242923628595,-0.252689402609294,-1.01539635309377
1580423762.64689,-2.09353780422675,-0.857190814068819,0.0861829556725411
1580423762.67865,-1.7644312199588,0.599862668802931,0.210696574349583
1580423762.71041,-1.69948882276646,0.530037384603649,0.478278782330051
1580423762.74217,-2.15066758220798,0.00805676356145568,0.0305180437933927
1580423762.77393,-2.35574883649958,-0.724376287479972,-0.298100251773862
1580423762.80569,-2.17898832684825,-0.823987182421607,-0.47339589532311
1580423762.83745,-1.10280003051804,-0.292240787365531,-1.3713588158999
1580423762.86921,-0.582284275577935,-0.293705653467613,-1.61452658884565
1580423762.90097,-0.0842298008697639,-0.652109559777218,-0.997817959868772
1580423762.93273,1.25075150682841,0.133546959639887,-0.993423361562524
1580423762.96448,0.36646066987106,0.100343327992675,-1.23024338139925
1580423762.99624,0.00512703135728998,-0.281010147249562,-0.674570840009155
1580423763.028,-0.334721904325933,-0.302983138780805,-0.431891355764096
1580423763.05976,-2.57254901960784,0.360601205462729,-0.0813000686655982
1580423763.09152,-2.20584420538643,-0.00854505226214997,-0.427008468757153
1580423763.12328,-1.7898222323949,0.0915541313801782,-0.99635309376669
1580423763.15504,-2.12137026016632,-0.302983138780805,-1.13795681696803
1580423763.1868,-1.9099412527657,-0.51099412527657,-0.482185091935607
1580423763.21856,-1.90603494316014,-0.152590218966964,0.887953002212559
1580423763.25032,-1.95437552452888,-0.282475013351645,-0.118898298619058
1580423763.28208,0.345464255741206,-0.85279621576257,-0.562752727550164
1580423763.31384,0.201419089036392,0.00122072175173571,-0.260013733119708
1580423763.34558,0.0935072861829553,-0.187258716716258,-0.418219272144656
1580423763.37734,0.0505378805218584,-0.181399252307926,-0.243900205996795
1580423763.4091,-0.321049820706493,0.103273060196841,-0.491950865949493
1580423763.44086,-1.0383459220264,-0.060303654535744,-0.796643015182728
1580423763.47262,-2.10769817654688,0.754161898222325,-0.742931258106355
1580423763.50438,-1.83865110246433,-0.317631799801633,0.60425726710918
1580423763.53614,-1.87429617761502,0.26392004272526,0.670176241702908
1580423763.5679,-2.07156481269551,-0.0456549935149155,-0.456794079499504
1580423763.59966,-2.42459754329747,-0.663828488593881,0.00708018616006711
1580423763.63142,-2.11160448615244,-0.690684367132066,-0.672617685206378
1580423763.66318,-1.2863965819791,-0.238040741588463,-1.68386358434424
1580423763.69494,-0.48364995803769,-0.280521858548868,-1.95046921492332
1580423763.7267,0.437750820172425,-0.351812008850233,-1.17653162432288
1580423763.75846,0.987075608453498,0.0417486839093613,-1.51979858091096
1580423763.79022,0.0251468680857556,-0.234134431982909,-0.885999847409781
1580423763.82198,0.11450370031281,-0.342046234836348,-0.512947280079347
1580423763.85374,-0.385992217898833,-0.428473334859236,-0.371831845578699
1580423763.8855,-2.94657816433967,0.169680323491264,-0.00903334096284425
1580423763.91726,-2.16043335622187,-0.132570382238498,-0.622812237735561
1580423763.94902,-1.832791638056,0.378667887388417,-1.14137483787289
1580423763.98078,-2.18680094605936,-0.156496528572518,-1.1662775616083
1580423764.01254,-1.88503852903029,-0.486579690241856,-0.306401159685665
1580423764.0443,-1.55837338826581,-0.283939879453728,0.313237201495383
1580423764.07607,-1.51882200350957,0.170168612191958,0.510017547875183
1580423764.10783,-0.000244144350347142,-0.258060578316931,-0.878675516899367
1580423764.13959,0.115968566414892,-0.445075150682841,-0.275638971541925
1580423764.17135,0.319584954604409,-0.0529793240253298,-0.528572518501564
1580423764.20311,0.10766765850309,-0.197024490730143,-0.244876783398183
1580423764.23487,-0.120363164721141,0.277103837644006,-0.477790493629358
1580423764.26663,-1.06080720225834,-0.292729076066225,-0.417242694743267
1580423764.29839,-1.92898451209278,0.749279011215382,-0.564705882352941
1580423764.33015,-1.56227969787137,-0.262943465323874,0.418219272144654
1580423764.36191,-2.06228732738231,0.716075379568171,0.724376287479974
1580423764.39367,-2.19803158617533,0.0534676127260241,-0.299565117875945
1580423764.42543,-2.25467307545586,-0.559822995345998,-0.543221179522392
1580423764.45719,-1.8840619516289,-0.961196307316701,-0.759044785229268
1580423764.48895,-0.871839475089647,-0.417730983443962,-1.56618600747692
1580423764.52071,-0.400152590218967,-0.274662394140536,-1.43776607919432
1580423764.55247,0.556893263141834,-0.371343556878005,-1.0896162355993
1580423764.58423,0.998794537270161,0.170168612191958,-1.4138399328603
1580423764.61594,0.206790264744029,-0.335210193026628,-1.0637369344625
1580423764.6477,0.0402838178072784,-0.412848096437019,-0.468024719615473
1580423764.67946,-0.761974517433433,-0.365972381170367,-0.450934615091173
1580423764.71122,-2.70048065918975,-0.621347371633478,-0.0788586251621268
1580423764.74297,-1.78054474708171,0.167727168688486,-0.742931258106355
1580423764.77473,-2.17361715114061,0.261478599221789,-1.09205767910277
1580423764.80649,-2.10867475394827,-0.137453269245441,-0.962661173418784
1580423764.83825,-1.81765468833448,-0.589608606088349,-0.379644464789807
1580423764.87001,-1.53102922102693,-0.0192874036774242,1.11403067063401
1580423764.90177,-1.25123979552911,-0.551522087434195,-0.0744640268558783
1580423764.93353,0.350347142748149,-0.0256351567864499,-0.393804837109942
1580423764.96529,0.146730754558632,-0.193118181124589,-0.429938200961319
1580423764.99705,0.326909285114823,0.136476691844052,-0.468513008316167
1580423765.02881,-0.0949721522850382,-0.293217364766919,-0.254154268711376
1580423765.06057,-0.581795986877241,-0.0441901274128327,-0.693614099336232
1580423765.09233,-0.632578011749446,-0.51783016708629,-0.573006790264744
1580423765.12409,-2.43338673990997,0.926039520866713,-0.178469520103761
1580423765.15585,-1.28786144808118,0.00854505226214997,0.343022812237734
1580423765.18761,-1.72243839169909,0.187258716716258,0.388433661402303
1580423765.21937,-2.35086594949264,-0.396246280613413,-0.265873197528039
1580423765.25113,-2.2087739375906,-0.577401388570992,-0.364507515068285
1580423765.28289,-1.92507820248722,-0.617929350728618,-0.632578011749446
1580423765.31465,-1.17848477912566,-0.0417486839093613,-1.08668650339513
1580423765.34641,-0.564217593652247,-0.862073701075762,-1.95388723582818
1580423765.37817,0.5769130998703,-0.692149233234149,-1.16139467460136
1580423765.40993,1.08473334859235,0.285404745555809,-1.01002517738613
1580423765.44169,0.168215457389181,-0.127199206530861,-1.00074769207294
1580423765.47345,-0.0422369726100555,-0.246341649500266,-0.577889677271687
1580423765.50521,-0.601815823605707,-0.249759670405126,-0.316655222400245
1580423765.53697,-2.79667353322652,-0.607186999313344,-0.123292896925307
1580423765.56873,-1.68484016174563,0.00122072175173571,-1.01783779659724
1580423765.60049,-2.19754329747463,-0.146730754558632,-0.877698939497979
1580423765.63225,-2.13406576638437,-0.077393759060044,-0.821057450217442
1580423765.66401,-1.87966735332265,-0.181399252307926,-0.43579766536965
1580423765.69577,-1.48024719615473,0.00512703135728998,0.888929579613947
1580423765.72753,-1.20192263675898,-0.120851453421835,0.109620813305867
1580423765.75929,0.212649729152361,-0.569588769359884,-0.421149004348822
1580423765.79105,0.108644235904478,0.0856946669718468,-0.331792172121768
1580423765.82281,0.0578622110322726,-0.302494850080111,-0.371343556878005
1580423765.85457,0.031006332494087,0.0632333867399097,-0.132570382238498
1580423765.88632,-0.565194171053635,-0.0437018387121384,-0.455817502098116
1580423765.91808,-0.82203402761883,-0.0349126420996413,-0.779552910658428
1580423765.94984,-1.96755931944762,1.26686503395132,-0.607675288014038
1580423765.9816,-1.47341115434501,-0.874769207293813,0.566170748455026
1580423766.01336,-1.91335927367056,0.182864118410009,0.612558175020983
1580423766.04512,-2.07791256580453,0.0598153658350498,-0.464118410009918
1580423766.07688,-2.27273975738155,-0.388433661402305,-0.0451667048142212
1580423766.10864,-2.00857557030594,-0.684824902723735,-0.789806973373008
1580423766.1404,-1.2600289921416,-0.274174105439842,-1.58083466849775
1580423766.17216,-0.49390402075227,-0.211673151750972,-1.3972381170367
1580423766.20392,0.872816052491036,-0.685801480125123,-1.60866712443732
1580423766.23568,0.406012054627297,-0.108644235904478,-1.15065232318608
1580423766.26744,-0.123292896925307,-0.192141603723201,-0.683360036621652
1580423766.2992,0.063721675440604,-0.266849774929428,-0.42554360265507
1580423766.33096,-0.56226443884947,-0.263431754024568,-0.282475013351645
1580423766.36272,-2.84013122758831,0.0212405584802013,-0.0314946211947813
1580423766.39448,-1.76687266346227,0.323979552910657,-0.726817730983443
1580423766.42624,-1.98611429007401,0.288334477759975,-1.14576943617914
1580423766.458,-1.84597543297475,-0.361577782864119,-1.48317692835889
1580423766.48976,-2.01834134431983,-0.45972381170367,-0.183352407110704
1580423766.52152,-1.70681315327687,-0.499763485160601,0.452887769893948
1580423766.55328,-1.75710688944839,-0.650644693675135,0.419684138246737
1580423766.58504,0.54956893263142,1.23317311360342,-0.708751049057755
1580423766.6168,-0.0515144579232469,-0.0349126420996413,-0.137941557946135
1580423766.64856,0.0075684748607614,-0.517341878385595,-0.397222858014802
1580423766.68032,-0.0871595330739297,-0.302494850080111,-0.165285725185015
1580423766.71207,-0.256107423514154,0.351812008850231,-0.656015869382772
1580423766.74383,-0.876234073395896,-0.216067750057221,-1.04322880903334
1580423766.77559,-1.93435568780041,1.70534828717479,-0.530525673304341
1580423766.80735,-1.60866712443732,-0.434332799267567,0.892835889219501
1580423766.83911,-1.93191424429694,0.531502250705731,0.647714961470971
1580423766.87087,-2.13650720988785,0.125734340428778,-0.525642786297398
1580423766.90263,-2.22928206301976,-0.549568932631418,-0.0485847257190812
1580423766.93439,-2.03445487144274,-0.738536659800106,-0.722423132677195
1580423766.96615,-1.44557869840543,-0.331792172121768,-1.46901655603876
1580423766.99791,-0.50415808346685,-0.351812008850233,-2.15945677882048
1580423767.02967,0.555916685740446,-0.499763485160601,-1.21657129777981
1580423767.06143,0.928969253070878,0.102784771496147,-0.918226901655604
1580423767.09319,0.150148775463492,0.338628213931486,-0.830823224231327
1580423767.12495,-0.103761348897535,-0.380621042191196,-0.552498664835584
1580423767.15674,-0.378179598687725,-0.334721904325933,-0.34692912184329
1580423767.1885,-2.06033417257954,-0.11792172121767,-0.157473105973907
1580423767.22026,-2.21023880369268,-0.0988784618905925,-0.611581597619592
1580423767.25202,-1.98367284657053,0.0192874036774242,-0.97242694743267
1580423767.28378,-2.04422064545663,-0.210208285648889,-1.43288319218738
1580423767.31554,-1.96755931944762,0.00805676356145568,-0.645273517967498
1580423767.3473,-1.70925459678035,-0.0632333867399097,0.031006332494087
1580423767.37906,-1.01539635309377,-0.180422674906538,1.16188296330205
1580423767.41082,-1.09205767910277,-0.39136339360647,-1.909452964065
1580423767.44258,0.53931486991684,-0.238529030289158,-0.0915541313801782
1580423767.47433,0.420172426947431,0.331792172121766,-0.695567254139009
1580423767.50609,0.0490730144197755,0.171145189593346,-0.352300297550928
1580423767.53785,-0.0651865415426869,0.225833524071106,-0.334233615625239
1580423767.56961,-0.935317006179904,-0.231204699778743,-0.829846646829939
1580423767.60137,-0.971938658731975,-3.06718547341115,-0.309819180590525
1580423767.63313,-1.74685282673381,0.610605020218205,-0.067139696345464
1580423767.66489,-1.78884565499352,-0.0549324788281069,0.801037613488976
1580423767.69665,-2.02810711833371,0.637460898756391,-0.114015411612115
1580423767.72841,-2.31619745174334,-0.351812008850233,-0.197024490730143
1580423767.76017,-2.30496681162738,-0.827405203326467,-0.32642099641413
1580423767.79193,-1.70974288548104,-0.868909742885482,-1.06959639887083
1580423767.82369,-0.722911421377889,-0.210208285648889,-1.98611429007401
1580423767.85545,0.0788586251621268,-0.412848096437019,-1.44948500801099
1580423767.88721,1.34694438086519,-0.163332570382238,-1.25319295033188
1580423767.91897,0.428961623559928,0.254154268711375,-1.17604333562219
1580423767.95073,-0.0476081483176927,-0.644296940566109,-0.927016098268101
1580423767.98249,-0.171633478294041,-0.399176012817579,-0.403082322423133
1580423768.01425,-2.09256122682536,-0.0192874036774242,0.067139696345464
1580423768.04601,-2.19217212176699,0.0231937132829785,-0.42212558175021
1580423768.07777,-1.77468528267338,0.341557946135651,-0.963149462119478
1580423768.10953,-2.15848020141909,0.0627450980392155,-1.20241092545968
1580423768.14129,-1.90359349965667,-0.290287632562753,-0.749767299916074
1580423768.17305,-1.8586709391928,-0.499763485160601,0.151613641565575
1580423768.20481,-1.24196231021591,0.0285648889906156,1.25368123903258
1580423768.23657,-0.872327763790341,0.184328984512092,-1.39870298313878
1580423768.26833,0.314213778896772,-0.88697642481117,-0.417242694743267
1580423768.30009,0.568612191958497,0.612069886320288,-1.01930266269932
1580423768.33185,0.137453269245441,0.118898298619058,-0.199465934233615
1580423768.36361,-0.221438925764858,-0.0236820019836728,-0.312748912794691
1580423768.39537,-0.935317006179904,-0.128664072632944,-0.811291676203556
1580423768.42712,-1.90359349965667,-1.81374837872892,-0.385992217898833
1580423768.45888,-1.84402227817197,0.540291447318229,0.231692988479438
1580423768.49064,-1.76003662165255,0.281986724650949,0.668711375600825
1580423768.5224,-1.96023498893721,0.0490730144197755,-0.238529030289158
1580423768.55416,-2.21414511329824,-0.872816052491036,-0.178469520103761
1580423768.58592,-2.03640802624552,-0.686778057526512,-0.497810330357824
1580423768.61768,-1.31081101701381,-0.217532616159303,-1.35915159838254
1580423768.64944,-0.796643015182728,-0.127199206530861,-1.35231555657282
1580423768.6812,-0.153566796368352,-0.870374608987564,-1.49489585717556
1580423768.71296,1.12965590905623,-0.286869611657893,-1.02760357061112
1580423768.74472,0.464606698710611,0.454352635996031,-1.07154955367361
1580423768.77648,-0.168703746089875,-0.322514686808576,-0.78785381857023
1580423768.80824,-0.269291218432899,-0.399176012817579,-0.484138246738384
1580423768.84,-2.18191805905241,-0.12133974212253,-0.044678416113527
1580423768.87176,-2.25076676585031,-0.249759670405126,-0.600350957503624
1580423768.90352,-2.04177920195315,-0.123292896925307,-0.928480964370184
1580423768.93528,-2.21853971160449,-0.0192874036774242,-1.12672617685206
1580423768.96704,-1.90701152056153,-0.0290531776913099,-0.498786907759213
1580423768.9988,-1.79470511940185,-0.172121766994735,0.334721904325932
1580423769.03056,-1.54079499504082,-0.24682993820096,0.551033798733503
1580423769.06232,0.110109102006561,-0.10424963759823,-0.77759975585565
1580423769.09408,0.151613641565575,-0.778088044556345,-0.215579461356526
1580423769.12584,0.118898298619058,-0.0505378805218584,-0.549568932631418
1580423769.1576,0.0559090562294955,0.211673151750972,-0.230716411078049
1580423769.18936,-0.332768749523156,0.105226214999618,-0.71168078126192
1580423769.22112,-0.913832303349356,-0.564705882352941,-0.667734798199435
1580423769.25288,-2.17898832684825,1.08863965819791,-0.370366979476616
1580423769.28464,-1.68923476005188,-0.0935072861829553,0.753185320820936
1580423769.3164,-1.83718623636225,0.40064087891966,0.483649958037688
1580423769.34816,-2.04861524376287,-0.0866712443732354,-0.269779507133594
1580423769.37992,-2.26981002517739,-0.690684367132066,-0.175051499198901
1580423769.41168,-1.88552681773098,-0.695567254139009,-0.703868162050812
1580423769.44343,-0.87672236209659,-0.206301976043335,-1.50417334248875
1580423769.47519,-0.451422903791867,-0.42554360265507,-1.78738078889143
1580423769.50695,0.581795986877243,-0.880628671702144,-1.37428854810407
1580423769.53871,0.93141069657435,0.222415503166246,-0.987075608453498
1580423769.57047,0.0695811398489354,-0.044678416113527,-1.05348287174792
1580423769.60223,-0.145754177157244,-0.142336156252384,-0.713633936064697
1580423769.63399,-0.877210650797284,-0.156008239871824,-0.488044556343938
1580423769.66575,-2.93778896772717,-0.361089494163425,0.193118181124589
1580423769.69754,-1.70974288548104,0.126222629129472,-0.728282597085526
1580423769.7293,-2.16189822232395,-0.170656900892652,-1.66482032501717
1580423769.76106,-1.92947280079347,-0.290775921263448,-0.871839475089647
1580423769.79282,-1.77663843747616,-0.323979552910659,0.0568856336308841
1580423769.82458,-1.32790112153811,0.101319905394064,1.44216067750057
1580423769.85634,-1.19118028534371,0.33911650263218,-0.508552681773098
1580423769.8881,0.717051956969559,-0.855725947966736,-0.577401388570992
1580423769.91986,0.385015640497443,0.541756313420311,-0.257572289616236
1580423769.95162,-0.0910658426794839,-0.545662623025864,-0.321538109407188
1580423769.98338,-0.01196307316701,0.0324711985961699,-0.991958495460441
1580423770.01514,-0.750255588616771,-0.0871595330739297,-0.959243152513924
1580423770.0469,-2.82938887617304,0.136964980544747,0.0236820019836728
1580423770.07866,-1.69900053406577,0.0319829098954756,0.435309376668954
1580423770.11042,-1.88552681773098,0.455817502098114,0.310795757991912
1580423770.14218,-2.25320820935378,-0.149660486762798,0.0256351567864499
1580423770.17394,-2.3801632715343,-0.822522316319525,-0.159426260776684
1580423770.2057,-1.8157015335317,-0.605722133211261,-0.74244296940566
1580423770.23746,-1.16334782940413,-0.250247959105822,-1.14772259098192
1580423770.26922,-0.746349279011215,-0.119386587319752,-1.43776607919432
1580423770.30098,0.420172426947431,-0.204837109941252,-1.33034256504158
1580423770.33274,0.988540474555581,-0.37085526817731,-1.25075150682841
1580423770.3645,-0.073975738155184,-0.356694895857176,-0.944594491493095
1580423770.39627,0.147219043259327,-0.324467841611353,-0.637460898756389
1580423770.42803,-0.441657129777981,-0.308842603189136,-0.399176012817579
1580423770.45978,-2.85673304341192,0.00366216525520713,0.0427252613107498
1580423770.49154,-1.84353398947128,0.220462348363469,-0.586678873884184
1580423770.52331,-2.09500267032883,0.237064164187075,-0.846448462653544
1580423770.55507,-2.01150530251011,-0.113038834210727,-1.21364156557565
1580423770.58683,-1.83523308155947,-0.323491264209965,-0.729259174486915
1580423770.61859,-1.74489967193103,-0.329350728618296,0.210696574349583
1580423770.65035,-1.19459830624857,-0.34692912184329,1.58425268940261
1580423770.68211,-1.09742885481041,0.134035248340581,-1.01783779659724
1580423770.71387,1.06715495536736,-1.30885786221103,-0.0363775082017241
1580423770.74563,0.872327763790341,0.815686274509805,-0.762951094834822
1580423770.77739,-0.177981231403066,-0.161379415579461,-0.223392080567635
1580423770.80915,-0.309819180590525,0.360112916762034,-0.990005340657664
1580423770.84091,-0.68433661402304,-0.494392309452964,-0.723399710078583
1580423770.87267,-2.35184252689403,0.840588998245213,0.0813000686655982
1580423770.90443,-1.48610666056306,-0.0437018387121384,0.689219501029985
1580423770.93619,-1.78738078889143,0.251224536507209,0.232181277180132
1580423770.96805,-2.16824597543297,-0.231204699778743,-0.128175783932249
1580423770.99981,-2.21805142290379,-0.667734798199435,-0.223392080567635
1580423771.03157,-1.72390325780117,-0.512458991378653,-0.740001525902189
1580423771.06333,-1.18629739833677,0.0554207675288012,-1.07887388418402
1580423771.09509,-0.957778286411841,-0.292729076066225,-1.59645990691997
1580423771.12685,-0.0324711985961699,-0.68433661402304,-1.42946517128252
1580423771.15861,1.26784161135271,-0.213138017853055,-0.902601663233387
1580423771.19037,0.440192263675897,0.184328984512092,-0.94508278019379
1580423771.22213,-0.0715342946517126,-0.348393987945373,-0.700450141145952
1580423771.25389,-0.135988403143358,-0.424078736552987,-0.589120317387655
1580423771.28565,-2.31277943083848,-0.0402838178072784,0.12133974212253
1580423771.31741,-2.23953612573434,-0.188723582818341,-0.51099412527657
1580423771.34917,-1.76101319905394,0.105226214999618,-0.952407110704204
1580423771.38093,-2.17264057373922,0.132570382238498,-1.31960021362631
1580423771.41269,-1.97488364995804,0.0876478217746239,-0.622323949034866
1580423771.44445,-1.78005645838102,-0.212649729152361,-0.219974059662775
1580423771.47621,-1.03199816891737,0.00805676356145568,0.766369115739682
1580423771.50797,-0.840100709544519,-1.2600289921416,-0.288822766460671
1580423771.53973,0.357183184557869,0.329350728618294,-0.276127260242619
1580423771.57149,0.26733806363012,-0.106202792401007,-0.342534523537042
1580423771.60325,0.0231937132829785,0.133546959639887,-0.169680323491264
1580423771.63501,-0.266849774929428,0.0402838178072784,-0.229739833676661
1580423771.66677,-0.7390249485008,0.118410009918364,-0.827405203326467
1580423771.69853,-1.2946974898909,-2.93192950331884,-0.854261081864653
1580423771.73029,-1.69509422446021,0.317631799801632,-0.115480277714198
1580423771.76205,-1.51589227130541,0.447028305485617,0.599862668802931
1580423771.79381,-2.01443503471427,0.220462348363469,0.174074921797512
1580423771.82557,-2.37381551842527,-0.766369115739682,-0.378179598687725
1580423771.85733,-1.80984206912337,-0.757091630426491,-0.462165255207141
1580423771.88909,-1.49440756847486,-0.69459067673762,-0.644296940566109
1580423771.92085,-1.10768291752499,-0.177981231403066,-1.70388342107271
1580423771.95261,-0.619882505531395,-0.548104066529335,-1.4826886396582
1580423771.98438,0.745860990310522,-0.594979781795987,-1.07447928587777
1580423772.01613,0.84937819485771,0.409430075532157,-1.17409018081941
1580423772.04789,0.230716411078049,-0.185305561913481,-0.98609903105211
1580423772.07965,-0.0646982528419926,-0.36401922636759,-0.530525673304341
1580423772.11141,-0.698985275043869,-0.310795757991913,-0.46314183260853
1580423772.14318,-2.96220340276188,-0.627206836041809,0.0744640268558783
1580423772.17494,-1.72487983520256,-0.137941557946135,-0.610605020218204
1580423772.2067,-1.83083848325322,0.0578622110322726,-1.37917143511101
1580423772.23849,-1.53786526283665,0.120851453421835,-1.06080720225834
1580423772.27025,-1.75320057984283,-0.373785000381476,-0.430914778362707
1580423772.30201,-1.62819867246509,-0.177492942702372,1.70339513237202
1580423772.33378,-1.62136263065537,0.527595941100177,0.122316319523918
1580423772.36554,0.540291447318229,-1.27223620965896,-0.578866254673075
1580423772.3973,-0.0837415121690697,0.573983367666134,-0.163332570382238
1580423772.42906,-0.0642099641412983,-0.368902113374533,-0.407476920729382
1580423772.46082,0.0075684748607614,0.0129396505683985,-0.793713282978562
1580423772.49258,-0.713145647364003,-0.325444419012742,-0.903089951934081
1580423772.52434,-2.05300984206912,-0.623300526436255,0.120851453421835
1580423772.5561,-1.70534828717479,0.868421454184787,0.157961394674601
1580423772.58786,-1.76931410696574,0.312748912794689,0.408941786831463
1580423772.61962,-1.91189440756848,0.127199206530861,-0.107179369802395
1580423772.65138,-2.29813076981766,-0.73218890669108,-0.0930189974822611
1580423772.68314,-2.17117570763714,-0.74244296940566,-0.44605172808423
1580423772.7149,-1.2946974898909,-0.472907606622416,-1.2600289921416
1580423772.74666,-0.56568245975433,-0.396734569314107,-1.49587243457694
1580423772.77842,-0.332768749523156,-0.502693217364767,-1.08131532768749
1580423772.81018,1.23024338139925,0.222415503166246,-1.37575341420615
1580423772.84194,0.497810330357822,0.0729991607537954,-1.00123598077363
1580423772.8737,0.0339360646982527,-0.566659037155718,-0.774670023651485
1580423772.90546,-0.36060120546273,-0.49732204165713,-0.392339971007859
1580423772.93722,-2.4050659952697,-0.214602883955138,0.294682230869
1580423772.96898,-2.24588387884337,-0.155031662470435,-0.786388952468148
1580423773.00074,-1.70974288548104,0.286869611657892,-0.980239566643778
1580423773.0325,-2.22830548561837,-0.00610360875867855,-1.05201800564584
1580423773.06426,-1.98220798046845,-0.37085526817731,-0.529060807202258
1580423773.09602,-1.86013580529488,-0.216067750057221,0.25024795910582
1580423773.12778,-1.74929427023728,0.802502479591059,0.943617914091707
1580423773.15954,0.0520027466239412,0.30151827267872,-1.16090638590066
1580423773.1913,0.135500114442664,-1.31960021362631,0.0700694285496297
1580423773.22306,0.346440833142594,0.598397802700848,-1.07447928587777
1580423773.25482,-0.0695811398489354,-0.249759670405126,-0.195559624628061
1580423773.28658,-0.222415503166246,0.0822766460669868,-0.726329442282749
1580423773.31834,-0.905043106736859,0.041260395208667,-0.630136568245975
1580423773.3501,-2.10867475394827,0.423590447852291,0.0754406042572668
1580423773.38186,-1.50661478599222,0.288334477759975,0.332768749523154
1580423773.41362,-1.93923857480736,0.303959716182192,0.468024719615471
1580423773.44538,-2.25564965285725,-0.434821087968261,-0.302983138780805
1580423773.47714,-2.18631265735866,-0.843030441748684,-0.234134431982909
1580423773.50897,-1.8845502403296,-0.522713054093233,-0.52124818799115
1580423773.54073,-1.30739299610895,-0.185793850614175,-1.46657511253529
1580423773.57249,-0.600839246204318,-0.284428168154422,-1.61208514534218
1580423773.60425,0.855725947966736,-0.592050049591821,-1.69265278095674
1580423773.63601,0.371831845578697,-0.165285725185015,-1.34108491645686
1580423773.66777,0.0544441901274126,-0.230228122377355,-0.750743877317465
1580423773.69953,0.0261234454871442,-0.222415503166246,-0.552986953536278
1580423773.73129,-0.633066300450141,-0.226321812771801,-0.331303883421073
1580423773.76305,-2.86503395132372,-0.0720225833524069,0.111573968108644
1580423773.79481,-1.76931410696574,0.221927214465552,-0.886488136110476
1580423773.82657,-2.12429999237049,0.00561532005798426,-1.00123598077363
1580423773.85833,-2.04568551155871,-0.478767071030747,-1.09401083390555
1580423773.89009,-1.74880598153658,-0.502693217364767,-0.0725108720531011
1580423773.92185,-1.42555886167697,-0.765392538338293,1.74489967193103
1580423773.95361,-1.14430457007706,1.24147402151522,-1.40407415884642
1580423773.98537,0.803479056992447,-1.40358587014572,-0.105714503700312
1580423774.01713,0.429449912260623,0.79127183947509,-0.592050049591821
1580423774.04889,0.0153810940718699,-0.37427328908217,-0.44605172808423
1580423774.08066,-0.104737926298924,0.173586633096818,-0.232669565880826
1580423774.11242,-0.491950865949493,-0.172121766994735,-1.28346684977493
1580423774.14418,-1.15944151979858,-2.80155642023346,-0.0979018844892039
1580423774.17594,-1.7644312199588,0.559334706645306,-0.00708018616006711
1580423774.2077,-1.45876249332418,-0.0251468680857556,1.0207675288014
1580423774.23946,-2.27127489127947,0.239017318989852,0.0158693827725642
1580423774.27122,-2.18973067826352,-0.452399481193256,-0.404058899824522
1580423774.30298,-2.29617761501488,-0.964126039520867,0.114991989013504
1580423774.33474,-1.44948500801099,-0.307866025787748,-1.22536049439231
1580423774.3665,-0.976333257038224,0.0974135957885096,-1.39821469443809
1580423774.39826,-0.490974288548104,-0.771252002746625,-1.52272831311513
1580423774.43002,1.06666666666667,-0.359136339360647,-1.3029983978027
1580423774.46178,0.437750820172425,0.0271000228885327,-1.18190280003052
1580423774.49354,-0.0153810940718699,-0.479255359731441,-0.723887998779277
1580423774.5253,-0.320073243305105,-0.41870756084535,-0.258060578316931
1580423774.55706,-1.47096971084154,-0.0456549935149155,-0.239505607690546
1580423774.58882,-2.3201037613489,-0.0529793240253298,-0.349858854047456
1580423774.62058,-1.92117189288167,0.0769054703593497,-0.855725947966736
1580423774.65234,-2.38211642633707,-0.229739833676661,-1.28004882887007
1580423774.6841,-1.73073929961089,-0.151613641565575,-0.732677195391775
1580423774.71586,-1.82058442053864,-0.345952544441902,0.128664072632944
1580423774.74762,-1.31960021362631,-0.0402838178072784,1.07545586327916
1580423774.77945,-0.601815823605707,0.202395666437781,-1.05445944914931
1580423774.81121,0.373785000381474,-0.67750057221332,-0.363042648966202
1580423774.84297,0.409430075532157,0.411871519035628,-0.935317006179904
1580423774.87473,-0.120851453421835,0.0534676127260241,-0.217532616159303
1580423774.90649,-0.188723582818341,0.182864118410009,-0.500251773861295
1580423774.93825,-0.91773861295491,-0.410406652933547,-0.897718776226444
1580423774.97001,-1.29225604638743,-1.1403982604715,0.0959487296864268
1580423775.00177,-2.04177920195315,0.596932936598765,-0.0402838178072784
1580423775.03353,-1.48610666056306,0.143801022354467,0.380621042191194
1580423775.06529,-2.20340276188296,-0.132082093537804,-0.24682993820096
1580423775.09705,-2.09939726863508,-0.690196078431372,-0.140383001449607
1580423775.12881,-2.11551079575799,-0.69800869764248,-0.190188448920424
1580423775.16057,-1.45973907072557,-0.0935072861829553,-1.15260547798886
1580423775.19233,-0.757091630426491,-0.261966887922485,-1.64870679789425
1580423775.22409,-0.285404745555811,-0.833264667734799,-1.42067597467002
1580423775.25585,1.22096589608606,-0.434332799267567,-0.953383688105593
1580423775.28761,0.369390402075226,0.101808194094758,-1.19752803845273
1580423775.31937,0.0339360646982527,-0.231204699778743,-0.958266575112535
1580423775.35113,-0.388921950102999,-0.163332570382238,-0.587655451285572
1580423775.38289,-2.63700312809949,-0.0354009308003356,-0.280521858548868
1580423775.41465,-2.24393072404059,0.0261234454871442,-0.110597390707255
1580423775.44641,-1.82595559624628,0.155031662470435,-0.781506065461205
1580423775.47817,-1.98562600137331,-0.0471198596169984,-1.38063630121309
1580423775.50993,-1.84353398947128,-0.376226443884947,-0.651621271076523
1580423775.54169,-1.93240253299764,-0.437750820172427,0.608651865415428
1580423775.57345,-1.50466163118944,-0.283939879453728,1.68581673914702
1580423775.60521,-0.641855497062638,0.616464484626537,-1.37721828030823
1580423775.63697,0.309819180590523,-0.924086366063936,0.0168459601739528
1580423775.66874,0.289799343862057,0.231204699778743,-0.421637293049516
1580423775.7005,-0.0617685206378269,-0.308354314488442,-0.318608377203022
1580423775.73226,-0.259037155718319,0.354253452353703,-0.305912870984971
1580423775.76402,-0.82545204852369,0.0148928053711757,-0.924086366063936
1580423775.79578,-1.6360112916762,-0.92115663385977,-0.777111467154956
1580423775.82754,-2.15652704661631,-0.484138246738384,0.560311284046694
1580423775.8593,-1.53200579842832,0.370366979476614,0.779552910658428
1580423775.89106,-2.03738460364691,0.269779507133592,-0.484138246738384
1580423775.92282,-2.15262073701076,-0.625741969939726,-0.123292896925307
1580423775.95458,-2.08816662851911,-0.952895399404898,-0.112550545510032
1580423775.98634,-1.2600289921416,-0.389410238803693,-1.36842908369574
1580423776.0181,-0.637949187457084,0.0715342946517126,-1.56911573968109
1580423776.04996,-0.38452735179675,-0.532478828107118,-1.4055390249485
1580423776.08172,1.14186312657359,-0.289311055161365,-0.991470206759747
1580423776.11348,0.359136339360646,0.0349126420996413,-1.1062180514229
1580423776.14524,-0.0236820019836728,-0.235599298084992,-0.734142061493857
1580423776.177,-0.570077058060578,-0.196047913328755,-0.419684138246739
1580423776.20876,-2.25271992065309,0.0539559014267184,-0.0222171358815899
1580423776.24052,-1.88699168383307,-0.134035248340581,-0.710215915159838
1580423776.27228,-1.9436331731136,-0.299565117875945,-1.01979095140002
1580423776.30404,-2.11892881666285,-0.179934386205844,-1.01539635309377
1580423776.3358,-1.93386739909972,-0.0456549935149155,-0.510505836575875
1580423776.36756,-1.65847257190814,-0.11450370031281,-0.101319905394064
1580423776.39932,-1.26637674525063,-0.482673380636301,0.473884184023802
1580423776.43108,-0.218020904859998,0.0354009308003356,-0.775646601052873
1580423776.46285,-0.0163576714732585,-0.290287632562753,-0.401129167620356
1580423776.49461,0.328374151216906,0.307377737087052,-0.53492027161059
1580423776.52637,-0.0295414663920042,0.123781185626001,-0.126222629129472
1580423776.55813,-0.403082322423133,-0.106691081101701,-0.10083161669337
1580423776.58989,-0.954848554207675,-0.0354009308003356,-1.02760357061112
1580423776.62165,-1.38649576562142,-0.589120317387655,-1.48757152666514
1580423776.65341,-1.83669794766156,-0.45630579079881,0.591073472190434
1580423776.68517,-1.62331578545815,0.396246280613411,1.01490806439307
1580423776.71693,-1.99880979629206,0.199954222934309,-0.404547188525216
1580423776.74869,-2.24832532234684,-0.723887998779277,-0.232669565880826
1580423776.78045,-2.07302967879759,-0.912367437247273,-0.339116502632182
1580423776.81221,-1.39137865262837,-0.508064393072404,-1.11012436102846
1580423776.84397,-0.77759975585565,0.275150682841229,-1.64528877698939
1580423776.87574,-0.265384908827345,-0.740978103303577,-1.45192645151446
1580423776.9075,0.96217288471809,-0.515877012283513,-1.2688181887541
1580423776.93926,0.5940032043946,0.312748912794689,-1.01393148699168
1580423776.97102,-0.120851453421835,-0.402594033722439,-0.684824902723735
1580423777.00278,-0.146730754558632,-0.406012054627299,-0.410894941634242
1580423777.03454,-1.5681391622797,-0.117433432516975,-0.153078507667658
1580423777.0663,-2.77763027389944,-0.458747234302281,-0.248294804303043
1580423777.09806,-1.42409399557488,0.356694895857174,-0.850843060959793
1580423777.12982,-2.13748378728923,-0.00952162966353853,-1.87038986800946
1580423777.16158,-2.19510185397116,-0.258060578316931,-0.816174563210499
1580423777.19334,-1.83669794766156,-0.192629892423895,0.102296482795452
1580423777.2251,-1.30055695429923,0.0651865415426869,1.00904859998474
1580423777.25686,-1.44313725490196,-0.599374380102235,0.104737926298924
1580423777.28862,0.474372472724497,-0.816662851911193,-0.36743724727245
1580423777.32049,0.395269703212023,0.690196078431374,-0.619882505531395
1580423777.35226,0.0290531776913099,0.0476081483176927,-0.392339971007859
1580423777.38402,-0.232669565880826,0.156984817273212,-0.191653315022506
1580423777.41578,-0.793224994277868,-0.620859082932784,-0.81861600671397
1580423777.44754,-0.948012512397955,-2.58036163881895,-0.50074006256199
1580423777.4793,-1.58083466849775,0.668223086900131,0.204348821240558
1580423777.51106,-1.65700770580606,0.174074921797512,0.615976195925843
1580423777.54282,-2.02615396353094,0.634531166552225,0.218509193560692
1580423777.57458,-2.26639200427253,-0.468024719615473,-0.275638971541925
1580423777.60634,-1.99197375448234,-0.506599526970321,-0.402594033722439
1580423777.6381,-1.77419699397269,-0.801037613488976,-0.323491264209965
1580423777.66986,-1.04811169604028,-0.685313191424429,-1.59743648432135
1580423777.70162,-0.211673151750972,-0.959243152513924,-1.9949034866865
1580423777.73338,0.614999618524454,-0.356206607156482,-0.678965438315403
1580423777.76514,0.659433890287634,0.497322041657128,-1.18629739833677
1580423777.79691,0.102296482795452,0.0144045166704814,-1.08424505989166
1580423777.82867,-0.024170290684367,-0.196536202029449,-0.596932936598764
1580423777.86043,-0.625741969939726,-0.296635385671779,-0.35718318455787
1580423777.89219,-2.79179064621958,-0.755138475623713,0.207278553444723
1580423777.92395,-1.69265278095674,-0.130128938735027,-0.779064621957733
1580423777.95571,-1.94656290531777,0.171145189593346,-1.21412985427634
1580423777.98747,-1.6189211871519,0.166262302586404,-1.05836575875486
1580423778.01923,-1.81960784313726,-0.224368657969023,-0.575448233768215
1580423778.05099,-1.72097352559701,-0.0891126878767068,0.282475013351643
1580423778.08275,-1.19020370794232,-0.584725719081407,0.372320134279391
1580423778.11451,0.0930189974822611,-0.409918364232853,-0.811291676203556
1580423778.14627,-0.0368657969024184,0.00366216525520713,-0.230716411078049
1580423778.17803,0.0104982070649271,-0.0847180895704582,-0.338628213931488
1580423778.20979,0.0236820019836728,0.230228122377355,-0.0935072861829553
1580423778.24155,-0.567635614557107,-0.102784771496147,-0.614999618524452
1580423778.27332,-0.883070115205616,-1.38503089951934,-0.676035706111238
1580423778.30508,-1.58864728770886,1.01002517738613,-0.119386587319752
1580423778.33684,-1.44460212100404,-0.096437018387121,0.515877012283514
1580423778.3686,-1.92117189288167,0.523689631494623,0.386480506599526
1580423778.40036,-2.41336690318151,-0.487556267643244,-0.096437018387121
1580423778.43212,-2.04861524376287,-0.652109559777218,-0.386968795300222
1580423778.46388,-1.59450675211719,-0.621347371633478,-0.800549324788282
1580423778.49564,-0.807385366598002,0.00170901045242999,-1.52956435492485
1580423778.5274,-0.606210421911955,-0.384039063096056,-1.508567940795
1580423778.55916,0.30151827267872,-0.678477149614709,-1.23952086671244
1580423778.59024,1.07496757457847,0.374761577782863,-1.20680552376593
1580423778.622,0.208255130846112,-0.438239108873121,-1.0295567254139
1580423778.65376,0.0212405584802013,-0.342534523537042,-0.557381551842527
1580423778.68552,-1.12135500114443,-0.330327306019685,-0.419195849546044
1580423778.71728,-2.59940489814603,-0.49732204165713,-0.149660486762798
1580423778.74904,-1.76394293125811,0.0471198596169984,-1.04762340733959
1580423778.7808,-2.49344625009537,0.112062256809338,-0.990493629358358
1580423778.81255,-2.0295719844358,0.0813000686655982,-0.580819409475852
1580423778.84431,-1.69655909056229,-0.11108567940795,-0.00561532005798426
1580423778.87607,-1.12477302204929,0.0187991149767299,1.6535896849012
1580423778.90783,-1.00856031128405,-0.224856946669718,-1.26442359044785
1580423778.93959,0.286381322957197,-0.809826810101473,-0.230228122377355
1580423778.97135,0.385503929198137,0.552010376134891,-0.850354772259099
1580423779.00311,0.0290531776913099,0.10424963759823,-0.447028305485619
1580423779.03487,-0.0583504997329669,-0.0417486839093613,-0.727794308384832
1580423779.06663,-0.894300755321584,-0.44263370717937,-0.403570611123827
1580423779.09839,-1.86599526970321,-0.252201113908599,0.145265888456549
1580423779.13015,-1.58669413290608,0.681895170519571,0.0407721065079727
1580423779.16191,-1.78640421149004,0.112062256809338,0.275638971541923
1580423779.19367,-2.11355764095521,-0.108155947203784,0.123292896925307
1580423779.22543,-2.22928206301976,-0.900160219729916,-0.121828030823224
1580423779.25718,-1.87722590981918,-0.595956359197375,-0.74927901121538
1580423779.28894,-1.17946135652705,-0.321049820706493,-1.43678950179294
1580423779.3207,-0.891859311818113,-0.41870756084535,-1.71706721599145
1580423779.35246,0.0759288929579611,-0.115968566414892,-1.2942092011902
1580423779.38422,1.51491569390402,0.0788586251621268,-1.20485236896315
1580423779.41598,0.212649729152361,-0.0817883573662925,-0.974380102235447
1580423779.44774,-0.148683909361409,-0.445563439383536,-0.633066300450141
1580423779.4795,-0.42554360265507,-0.44263370717937,-0.320073243305105
1580423779.51126,-2.69852750438697,-0.34692912184329,0.202883955138475
1580423779.54302,-1.89822232394904,0.0202639810788128,-0.985122453650721
1580423779.57478,-2.15603875791562,0.141847867551689,-1.00758373388266
1580423779.60654,-2.20584420538643,-0.116456855115587,-0.992446784161135
1580423779.6383,-1.85329976348516,-0.228274967574578,-0.291752498664836
1580423779.67005,-1.38942549782559,-0.152101930266269,0.139894712748912
1580423779.70181,-1.43678950179294,0.201907377737086,0.521248187991151
1580423779.73357,-0.0847180895704582,-0.567635614557107,-0.672617685206378
1580423779.76533,0.290287632562752,-0.334233615625239,-0.374761577782865
1580423779.79709,0.266849774929426,-0.0197756923781185,-0.433356221866179
1580423779.82885,-0.0661631189440754,0.171145189593346,-0.210208285648889
1580423779.86069,-0.337163347829405,-0.267826352330816,-0.681406881818875
1580423779.89245,-1.19899290455482,-0.936293583581293,-0.362066071564813
1580423779.9242,-1.53884184023804,1.18678568703746,-0.0695811398489354
1580423779.95597,-1.53786526283665,-0.474860761425193,0.468513008316165
1580423779.98772,-2.03006027313649,0.33569848172732,0.25708400091554
1580423780.01948,-2.26932173647669,-0.496833752956436,-0.277103837644008
1580423780.05124,-2.20633249408713,-0.802502479591059,-0.211673151750972
1580423780.083,-1.58767071030747,-0.489997711146716,-0.79810788128481
1580423780.11476,-0.834241245136187,0.041260395208667,-1.42067597467002
1580423780.14652,-0.543221179522392,-0.229739833676661,-1.59060044251163
1580423780.17828,0.40064087891966,-0.751232166018159,-1.14186312657359
1580423780.21004,1.1233081559472,0.292240787365529,-1.10817120622568
1580423780.2418,0.161867704280155,-0.226810101472495,-0.884534981307699
1580423780.27356,0.031006332494087,-0.339116502632182,-0.593026626993209
1580423780.30532,-0.919203479056993,-0.261478599221791,-0.523689631494621
1580423780.33708,-2.79325551232166,-0.390875104905776,0.0451667048142212
1580423780.36883,-1.61159685664149,0.112062256809338,-0.653574425879301
1580423780.40059,-2.34891279468986,0.0158693827725642,-1.48366521705959
1580423780.43235,-2.05593957427329,-0.207766842145418,-0.902113374532693
1580423780.46411,-1.93386739909972,-0.152101930266269,-0.256595712214848
1580423780.49587,-1.57106889448386,0.10766765850309,0.203860532539863
1580423780.52763,-1.43874265659571,-0.760509651331351,1.11549553673609
1580423780.55939,0.0422369726100555,0.374273289082169,-0.830334935530633
1580423780.59115,0.424078736552985,-0.46997787441825,-0.318608377203022
1580423780.62291,0.210696574349583,0.0573739223315783,-0.447516594186313
1580423780.65467,-0.142336156252384,-0.201907377737086,-0.147219043259327
1580423780.68643,-0.35718318455787,0.150148775463492,-0.691660944533455
1580423780.71819,-1.03541618982223,-0.647714961470969,-0.686778057526512
1580423780.74995,-1.95779354543374,0.788342107270925,-0.115968566414892
1580423780.7817,-1.54665445944915,0.241458762493323,0.639414053559168
1580423780.81346,-1.71999694819562,0.395269703212023,0.321538109407186
1580423780.84522,-2.17752346074617,-0.289311055161365,-0.167238879987792
1580423780.87698,-2.27029831387808,-0.824963759822996,0.031006332494087
1580423780.90874,-1.98318455786984,-0.829358358129245,-0.283451590753033
1580423780.9405,-1.14430457007706,-0.168215457389181,-1.70339513237201
1580423780.97226,-0.905531395437553,0.101808194094758,-1.41188677805753
1580423781.00402,0.349858854047454,-0.402594033722439,-1.17213702601663
1580423781.03578,0.528084229800871,-0.637460898756389,-1.45241474021515
1580423781.06754,0.077393759060044,-0.354253452353705,-1.01197833218891
1580423781.0993,-0.00366216525520713,-0.0837415121690697,-0.612069886320286
1580423781.13119,-0.334721904325933,-0.102784771496147,-0.237064164187075
1580423781.16295,-1.87673762111849,0.222415503166246,-0.0197756923781185
1580423781.19471,-2.46073090714885,0.00903334096284425,-0.398687724116884
1580423781.22647,-1.72585641260395,0.172121766994735,-0.324467841611353
1580423781.25823,-2.3118028534371,-0.155031662470435,-1.49343099107347
1580423781.28999,-1.67800411993591,-0.440192263675899,-1.1403982604715
1580423781.32175,-2.02468909742885,-0.525154497596704,0.241458762493323
1580423781.35351,-1.55739681086442,-0.678965438315403,1.11647211413748
1580423781.38527,-0.961196307316701,0.182864118410009,-0.766369115739682
1580423781.41703,0.783459220263982,-1.07057297627222,-0.273197528038454
1580423781.44879,0.330815594720377,1.31081101701381,-0.668223086900129
1580423781.48055,-0.277592126344702,-0.439703974975204,-0.286869611657893
1580423781.51231,-0.070557717250324,0.241947051194018,-0.601327534905012
1580423781.54406,-0.420172426947433,-0.220950637064163,-0.837659266041047
1580423781.57582,-2.56473640039673,-1.52224002441443,-0.0451667048142212
1580423781.60758,-1.38210116731518,0.970962081330587,-0.0485847257190812
1580423781.63934,-1.65700770580606,-0.203372243839169,0.452399481193254
1580423781.6711,-2.10867475394827,0.297611963073166,0.251712825207903
1580423781.70286,-2.2517433432517,-0.574959945067521,-0.336186770428016
1580423781.73462,-2.12039368276493,-0.672617685206378,-0.427496757457847
1580423781.76638,-1.48513008316167,-0.571053635461967,-0.71168078126192
1580423781.79814,-0.915785458152133,-0.171145189593346,-1.64968337529564
1580423781.8299,-0.267338063630122,-0.109620813305867,-1.82107270923934
1580423781.86166,0.752208743419548,-0.749767299916074,-1.31227588311589
1580423781.89342,0.385503929198137,-0.0871595330739297,-1.12770275425345
1580423781.92518,-0.00708018616006711,-0.0939955748836496,-0.739513237201495
1580423781.95694,-0.355718318455787,-0.184328984512092,-0.364995803768979
1580423781.98869,-1.81911955443656,0.356694895857174,-0.115480277714198
1580423782.02045,-2.15701533531701,-0.209719996948195,-0.0539559014267184
1580423782.05221,-1.4402075226978,0.210696574349583,-0.85963225757229
1580423782.08397,-2.00662241550317,-0.302983138780805,-1.3713588158999
1580423782.11573,-1.99880979629206,-0.482185091935607,-0.827893492027162
1580423782.14749,-2.08328374151217,-0.469001297016861,0.239017318989852
1580423782.17925,-1.53102922102693,-0.178469520103761,0.916273746852827
1580423782.21101,-1.0295567254139,0.723399710078585,-0.92799267566949
1580423782.24277,0.5427328908217,-1.39333180743114,0.0363775082017241
1580423782.27453,-0.0334477759975584,1.07399099717708,-0.625741969939726
1580423782.30629,-0.140871290150301,-0.317631799801633,-0.316655222400245
1580423782.33805,-0.000732433051041426,0.127687495231555,-0.153566796368352
1580423782.36981,-0.858167391470207,-0.426520180056459,-1.15162890058747
1580423782.40167,-1.3972381170367,-2.07107652399481,-0.290287632562753
1580423782.43343,-1.96023498893721,0.449958037689782,0.132570382238498
1580423782.46519,-1.59206530861372,-0.147707331960021,0.699473563744565
1580423782.49695,-2.0207827878233,0.46900129701686,-0.145754177157244
1580423782.52871,-2.3113145647364,-0.473884184023804,-0.159426260776684
1580423782.56047,-2.05056839856565,-0.390386816205082,-0.376226443884947
1580423782.59223,-1.45973907072557,-0.499763485160601,-1.03492790112154
1580423782.62399,-0.712169069962615,-0.484626535439078,-1.79079880979629
1580423782.65575,0.146242465857938,-0.838147554741742,-1.40846875715267
1580423782.68751,1.24635690852216,0.117433432516975,-0.533943694209201
1580423782.71927,0.258548867017623,0.250736247806515,-1.05299458304723
1580423782.75103,-0.101808194094758,-0.180422674906538,-0.756603341725796
1580423782.78279,-0.471931029221027,-0.333745326924545,-0.44946974898909
1580423782.81455,-2.37625696192874,-0.211184863050278,0.30151827267872
1580423782.84631,-1.94509803921569,-0.358648050659953,-1.01539635309377
1580423782.87807,-1.98367284657053,-0.248783093003738,-0.709239337758449
1580423782.90983,-2.18680094605936,0.167727168688486,-0.893324177920196
1580423782.94159,-1.91580071717403,0.154055085069047,-0.690196078431372
1580423782.97335,-1.78591592278935,-0.0549324788281069,0.00366216525520713
1580423783.00511,-1.24782177462425,0.488532845044631,0.891371023117419
1580423783.03687,-0.177981231403066,-0.241947051194018,-0.949965667200733
1580423783.06863,0.103761348897535,-0.646250095368886,-0.350835431448845
1580423783.10039,0.0568856336308841,-0.0314946211947813,-0.688242923628595
1580423783.13215,0.0607919432364383,0.321049820706492,-0.180910963607232
1580423783.16391,-0.190188448920424,0.272709239337757,-0.171145189593346
1580423783.19566,-0.987563897154192,-0.260013733119708,-0.877698939497979
1580423783.22742,-1.73318074311437,-0.489997711146716,-0.958266575112535
1580423783.25918,-2.04129091325246,-0.303471427481499,0.503669794766157
1580423783.29094,-1.69362935835813,0.735606927595942,0.453864347295337
1580423783.3227,-1.78835736629282,0.23657587548638,-0.476325627527276
1580423783.35446,-2.29959563591974,-0.73560692759594,0.163820859082932
1580423783.38622,-2.13504234378576,-0.878675516899367,-0.53150225070573
1580423783.41798,-1.33815518425269,-0.508064393072404,-1.30446326390478
1580423783.44974,-0.754650186923019,0.409430075532157,-1.62917524986648
1580423783.4815,-0.168703746089875,-0.337651636530099,-1.08815136949721
1580423783.51326,0.87672236209659,-0.560311284046692,-0.946547646295873
1580423783.54502,0.440192263675897,0.112550545510032,-1.00221255817502
1580423783.57678,0.0500495918211641,-0.373296711680782,-0.872327763790341
1580423783.60854,-0.0754406042572668,-0.327397573815519,-0.522224765392538
1580423783.6403,-1.82302586404212,-0.0710460059510183,-0.147707331960021
1580423783.67221,-2.31619745174334,-0.278080415045396,-0.450446326390479
1580423783.70397,-1.81228351262684,0.169680323491264,-0.69117265583276
1580423783.73573,-2.04129091325246,0.154055085069047,-1.25026321812772
1580423783.76749,-2.07009994659342,-0.0505378805218584,-0.708751049057755
1580423783.79925,-1.90457007705806,-0.340581368734265,-0.262455176623179
1580423783.83101,-1.35622186617838,-0.152101930266269,1.21559472037842
1580423783.86277,-1.32350652323186,0.0681162737468526,-0.200442511635003
1580423783.89453,0.633554589150837,-0.795178149080645,-0.528572518501564
1580423783.92629,0.156008239871824,0.200442511635003,-0.312260624093996
1580423783.95805,0.00170901045242999,-0.201419089036392,-0.422613870450904
1580423783.98981,-0.194583047226672,0.0954604409857325,-0.368413824673839
1580423784.02157,-0.74927901121538,-0.111573968108644,-0.846936751354239
1580423784.05333,-0.995864805065995,-2.72098878461891,-0.197512779430838
1580423784.08509,-1.68435187304494,0.680918593118182,-0.063721675440604
1580423784.11685,-1.49440756847486,0.152590218966964,0.459235523002974
1580423784.14861,-1.94460975051499,0.173586633096818,-0.131105516136415
1580423784.18037,-2.34988937209125,-1.08375677119097,-0.00122072175173571
1580423784.21213,-1.92898451209278,-0.662851911192492,-0.444098573281453
1580423784.24389,-1.59792477302205,-0.227786678873883,-0.649179827573052
1580423784.27565,-1.15358205539025,0.32202639810788,-1.19752803845273
1580423784.3074,-0.996841382467384,-0.654551003280689,-1.64089417868315
1580423784.33916,0.551033798733503,-1.00318913557641,-1.3796597238117
1580423784.37092,1.10768291752499,0.0422369726100555,-1.04127565423056
1580423784.40268,0.428473334859234,-0.10766765850309,-0.890882734416724
1580423784.43444,-0.105714503700312,-0.253177691309988,-0.578377965972381
1580423784.4662,-1.18287937743191,-0.156008239871824,-0.358648050659953
1580423784.49796,-2.34451819638361,-0.393804837109942,0.128664072632944
1580423784.52972,-1.54909590295262,0.256595712214846,-0.805432211795225
1580423784.56148,-1.98269626916915,-0.180910963607232,-1.36159304188602
1580423784.59324,-1.94314488441291,-0.493415732051576,-0.896742198825056
1580423784.625,-2.03152513923857,-0.496833752956436,-0.100343327992675
1580423784.65676,-1.58376440070191,0.185305561913481,0.0256351567864499
1580423784.68852,-1.2175478751812,-0.141359578850995,1.63161669336996
1580423784.72028,0.165285725185015,-0.113527122911421,-1.10475318532082
1580423784.75204,0.27075608453498,0.264896620126649,-0.138429846646829
1580423784.7838,-0.0173342488746471,-0.250247959105822,-0.126222629129472
1580423784.81556,-0.199465934233615,-0.235111009384298,-0.488532845044633
1580423784.84732,-0.530037384603647,0.153078507667658,-1.46608682383459
1580423784.87908,-2.25662623025864,-0.823987182421607,0.0236820019836728
1580423784.91084,-1.87038986800946,0.289799343862057,0.234134431982909
1580423784.94281,-1.69997711146715,0.231204699778743,0.26392004272526
1580423784.97457,-2.03640802624552,-0.0451667048142212,-0.167238879987792
1580423785.00633,-2.23611810482948,-0.960219729915313,-0.162844281681544
1580423785.03809,-1.83376821545739,-0.531013962005035,-0.747814145113297
1580423785.06985,-1.25368123903258,-0.281010147249562,-0.956801709010453
1580423785.10161,-0.682383459220263,-0.147219043259327,-1.68191042954147
1580423785.13337,-0.396246280613413,-0.108155947203784,-1.01881437399863
1580423785.16513,1.13990997177081,-0.540291447318227,-1.07789730678263
1580423785.19689,0.685801480125125,-0.0559090562294955,-1.05738918135348
1580423785.22865,0.00415045395590141,-0.46314183260853,-0.803967345693142
1580423785.26041,-0.303959716182193,-0.289799343862059,-0.406500343327993
1580423785.29217,-2.16043335622187,0.0729991607537954,0.0578622110322726
1580423785.32393,-2.24051270313573,-0.174563210498206,-0.408941786831464
1580423785.35569,-1.68630502784771,0.211673151750972,-0.896253910124361
1580423785.38745,-2.2771343556878,-0.077393759060044,-1.18580910963607
1580423785.41921,-2.04226749065385,-0.201907377737086,-0.590585183489738
1580423785.45097,-1.83035019455253,-0.200442511635003,-0.115968566414892
1580423785.48272,-1.20827038986801,-0.198489356832226,1.53640039673457
1580423785.51448,-0.723887998779277,-0.258548867017625,-1.16285954070344
1580423785.54624,0.682383459220265,-0.345952544441902,-0.313725490196079
1580423785.578,0.398687724116883,0.573006790264746,-0.667734798199435
1580423785.60976,-0.138918135347524,0.146730754558632,-0.222415503166246
1580423785.64152,-0.32642099641413,0.0886243991760125,-0.332280460822462
1580423785.67328,-0.988052185854887,-0.166262302586404,-0.997817959868772
1580423785.70504,-1.69997711146715,-1.39577325093462,-0.554940108339055
1580423785.7368,-2.12088197146563,-0.180910963607232,0.255130846112763
1580423785.76856,-1.64675364309148,0.145754177157244,0.63160143434806
1580423785.80032,-1.91580071717403,0.214114595254443,-0.245853360799572
1580423785.83208,-2.30887312123293,-0.489021133745327,-0.109132524605172
1580423785.86384,-2.22830548561837,-0.654062714579995,-0.225345235370412
1580423785.8956,-1.30006866559854,-0.799572747386893,-1.15407034409094
1580423785.92736,-0.512947280079347,-0.229251544975966,-2.26248569466697
1580423785.95912,-0.0129396505683985,0.0544441901274126,-1.07789730678263
1580423785.99088,0.594491493095294,-0.358648050659953,-1.5422598611429
1580423786.02264,0.242435339894712,-0.0607919432364383,-1.00074769207294
1580423786.0544,-0.00219729915312428,-0.366460669871062,-0.575936522468909
1580423786.08616,-0.343022812237736,-0.216556038757915,-0.295658808270391
1580423786.11792,-1.99685664148928,0.454352635996031,-0.129640650034332
1580423786.14968,-2.26102082856489,-0.122804608224612,-0.666758220798046
1580423786.18144,-1.53737697413596,0.0314946211947813,-0.791760128175785
1580423786.21335,-1.99050888838025,-0.488044556343938,-1.29909208819715
1580423786.24511,-1.70339513237201,-0.410894941634242,-0.719981689173723
1580423786.27687,-1.87966735332265,-0.679453727016098,0.54615091172656
1580423786.30863,-1.66677347981994,-0.415777828641184,0.394781414511328
1580423786.34039,-0.272709239337759,0.95533684290837,-1.08863965819791
1580423786.37215,-0.0417486839093613,-0.370366979476616,-0.135011825741969
1580423786.40391,0.103761348897535,-0.225345235370412,-0.496833752956436
1580423786.43567,-0.0290531776913099,-0.0979018844892039,-0.106202792401007
1580423786.46743,-0.42554360265507,-0.178469520103761,-0.573495078965438
1580423786.49919,-1.01100175478752,-0.584237430380712,-0.833752956435493
1580423786.53095,-1.51052109559777,1.62282749675746,-0.764415960936905
1580423786.56271,-1.7556420233463,-0.547127489127947,0.83912413214313
1580423786.59447,-1.78640421149004,0.60767528801404,0.613534752422371
1580423786.62623,-2.17068741893645,-0.145265888456549,-0.559334706645304
1580423786.65799,-2.20144960708019,-0.700450141145952,-0.0124513618677042
1580423786.68975,-1.85671778439002,-0.773693446250096,-0.712657358663309
1580423786.72151,-1.14723430228122,-0.178469520103761,-1.53102922102693
1580423786.75327,-0.663340199893186,-0.265873197528039,-1.59255359731441
1580423786.78503,0.286381322957197,-0.320561532005799,-1.23805600061036
1580423786.81679,1.08278019378958,-0.0261234454871442,-1.11061264972915
1580423786.84855,0.0661631189440754,-0.245853360799572,-1.00318913557641
1580423786.88031,0.0158693827725642,-0.358159761959259,-0.610605020218204
1580423786.91207,-0.455329213397421,-0.363530937666896,-0.324956130312048
1580423786.94383,-2.934859235523,-0.523689631494621,0.0632333867399097
1580423786.97559,-1.80886549172198,0.00170901045242999,-1.16139467460136
1580423787.00735,-1.95877012283513,-0.0803234912642097,-1.00514229037919
1580423787.03911,-1.89822232394904,0.0324711985961699,-0.76734569314107
1580423787.07087,-1.74294651712825,-0.213138017853055,-0.664805065995269
1580423787.10263,-1.64675364309148,-0.169192034790569,0.160891126878766
1580423787.13439,-1.54860761425193,-0.208255130846112,0.258548867017623
1580423787.16615,-0.041260395208667,-0.257084000915542,-0.685313191424429
1580423787.19791,0.118898298619058,-0.203372243839169,-0.143801022354467
1580423787.22967,0.0876478217746239,-0.257084000915542,-0.382574196993973
1580423787.26144,0.077393759060044,0.336186770428014,-0.067139696345464
1580423787.2932,-0.396246280613413,0.167727168688486,-0.741954680704966
1580423787.32496,-1.07692072938125,-1.21022354467079,-0.736095216296635
1580423787.35672,-1.43239490348669,1.01979095140002,-0.317143511100939
1580423787.38848,-1.67800411993591,0.0368657969024184,0.483649958037688
1580423787.42024,-1.75954833295186,0.780041199359122,0.406012054627297
1580423787.452,-2.42606240939956,-0.566659037155718,-0.261966887922485
1580423787.48395,-2.10867475394827,-0.673105973907072,-0.271732661936371
1580423787.51571,-1.97341878385595,-0.719981689173723,-0.52466620889601
1580423787.54747,-0.992446784161135,-0.188235294117646,-1.49001297016861
1580423787.57923,-0.696055542839703,-0.130617227435721,-1.51784542610819
1580423787.61099,0.0183108262760356,-0.688242923628595,-1.36452277409018
1580423787.64275,1.11403067063401,-0.119386587319752,-0.800061036087587
1580423787.67451,0.171145189593346,-0.108155947203784,-1.12819104295415
1580423787.70627,0.0236820019836728,-0.261478599221791,-0.732677195391775
1580423787.73803,-0.581307698176547,-0.380132753490502,-0.466071564812696
1580423787.76979,-2.781536583505,-0.580331120775158,-0.195559624628061
1580423787.80155,-2.06912336919203,-0.0163576714732585,-0.609140154116121
1580423787.83331,-2.02468909742885,0.0710460059510183,-1.01832608529793
1580423787.86508,-1.86990157930877,0.149172198062104,-0.970962081330587
1580423787.89684,-1.84353398947128,-0.0778820477607383,-0.591561760891127
1580423787.9286,-1.85183489738308,0.0715342946517126,0.606210421911957
1580423787.96036,-1.09449912260624,0.484138246738382,1.661890592813
1580423787.99212,-0.55884641794461,-0.531013962005035,-1.50563820859083
1580423788.02388,0.51880674448768,-0.740489814602883,-0.375738155184253
1580423788.05564,0.474860761425191,-0.077393759060044,-0.368413824673839
1580423788.0874,0.080811779964904,-0.099855039291981,-0.355230029755093
1580423788.11916,-0.309330891889831,0.51197070267796,-0.701915007248035
1580423788.15092,-1.09449912260624,-1.05445944914931,-0.633066300450141
1580423788.18268,-1.59841306172274,0.726817730983445,0.0505378805218584
1580423788.21444,-1.567650873579,-0.00317387655451284,0.439703974975203
1580423788.2462,-1.7727321278706,0.694590676737622,0.26733806363012
1580423788.27796,-2.32059205004959,-0.404547188525216,-0.155031662470435
1580423788.30973,-2.08719005111772,-0.724864576180666,-0.275638971541925
1580423788.34149,-1.77615014877546,-0.84937819485771,-0.34351110093843
1580423788.37325,-1.14528114747845,-0.108644235904478,-1.22536049439231
1580423788.40501,-0.706309605554283,0.170168612191958,-1.37233539330129
1580423788.43677,-0.361089494163425,-0.399176012817579,-1.19899290455482
1580423788.46853,1.11158922713054,-0.495857175555047,-1.29860379949645
1580423788.50029,0.403570611123826,-0.0847180895704582,-0.995864805065995
1580423788.53205,0.202395666437781,-0.312748912794691,-0.775158312352179
1580423788.56381,-0.352300297550928,-0.32300297550927,-0.486091401541161
1580423788.59557,-2.8752880140383,-0.532478828107118,0.149660486762798
1580423788.62733,-2.0119935912108,-0.188235294117646,-0.398687724116884
1580423788.65909,-2.08523689631495,0.109620813305867,-1.01197833218891
1580423788.69085,-2.0632639047837,0.10083161669337,-1.05690089265278
1580423788.72261,-2.1316243228809,-0.245365072098878,-0.41187151903563
1580423788.75455,-1.65407797360189,-0.203372243839169,0.343511100938429
1580423788.78631,-1.00221255817502,0.113038834210727,1.54909590295262
1580423788.81807,-0.905043106736859,0.0178225375753414,-0.90064850843061
1580423788.84983,0.591561760891128,-0.636972610055695,-0.338139925230793
1580423788.88159,0.680430304417488,0.87672236209659,-0.598886091401541
1580423788.91335,-0.195559624628061,-0.256107423514154,-0.316655222400245
1580423788.94511,-0.303471427481499,0.207766842145418,-0.455329213397421
1580423788.97687,-1.18727397573815,-0.000732433051041426,-1.35231555657282
1580423789.00863,-1.94656290531777,-0.164797436484321,-0.502204928664073
1580423789.04039,-1.94558632791638,-0.183840695811398,0.651132982375831
1580423789.07215,-1.55886167696651,0.271244373235675,0.501228351262686
1580423789.10391,-2.07302967879759,0.0983901731898982,-0.198977645532921
1580423789.13567,-2.10330357824063,-0.81519798580911,-0.0187991149767299
1580423789.16744,-1.87087815671016,-0.608651865415426,-0.316166933699551
1580423789.1992,-1.28004882887007,-0.230228122377355,-1.05104142824445
1580423789.23096,-1.03248645761807,0.241947051194018,-1.38796063172351
1580423789.26272,-0.416754406042573,-0.700450141145952,-1.61989776455329
1580423789.29448,0.336186770428014,-0.913832303349356,-0.909437705043107
1580423789.32624,1.12477302204929,0.255619134813458,-0.872327763790341
1580423789.358,-0.131593804837109,0.0173342488746471,-0.98609903105211
1580423789.38976,-0.0798352025635154,-0.277592126344702,-0.571053635461967
1580423789.42152,-0.865980010681316,-0.194583047226672,-0.349370565346762
1580423789.45328,-2.67997253376059,-0.553475242236972,0.0520027466239412
1580423789.48504,-1.68630502784771,-0.0510261692225527,-0.824963759822996
1580423789.5168,-2.17850003814755,0.148683909361409,-1.47243457694362
1580423789.54856,-1.93679713130388,0.198977645532921,-0.733653772793163
1580423789.58032,-1.90701152056153,-0.299076829175251,-0.393316548409247
1580423789.61208,-1.41579308766308,0.0832532234683754,0.524666208896011
1580423789.64385,-1.35231555657282,-0.672617685206378,0.135988403143358
1580423789.67561,0.188235294117646,-0.404547188525216,-0.505134660868238
1580423789.70737,0.166750591287098,-0.142336156252384,-0.382574196993973
1580423789.73913,0.154055085069047,-0.262455176623179,-0.298100251773862
1580423789.77089,-0.00512703135728998,0.335210193026626,-0.187258716716258
1580423789.80265,-0.583749141680018,0.0734874494544897,-0.598397802700847
1580423789.83441,-0.90406652933547,-1.17555504692149,-0.7219348439765
1580423789.86617,-1.89529259174487,0.710704203860534,-0.0432135500114441
1580423789.89793,-1.81277180132754,-0.162355992980849,0.707774471656368
1580423789.92969,-1.79616998550393,0.506599526970323,-0.0461432822156098
1580423789.96145,-2.29275959411002,-0.628183413443198,-0.0549324788281069
1580423789.99321,-1.89187457084001,-0.614511329823758,-0.575936522468909
1580423790.02518,-1.64577706569009,-0.558358129243915,-0.520271610589761
1580423790.05694,-0.899671931029221,0.0642099641412983,-1.29567406729229
1580423790.0887,-0.73218890669108,-0.395757991912719,-1.44753185320821
1580423790.12046,0.193118181124589,-0.838147554741742,-1.30543984130617
1580423790.15222,1.20094605935759,-0.181399252307926,-0.686289768825818
1580423790.18398,0.189211871519035,0.0354009308003356,-0.87330434119173
1580423790.21574,0.0515144579232469,-0.0207522697795071,-1.0471351186389
1580423790.2475,-0.869398031586176,-0.00219729915312428,-0.672129396505683
1580423790.27927,-2.37283894102388,-0.248294804303043,0.158937972075989
1580423790.31103,-1.79714656290532,-0.369390402075227,-0.303471427481499
1580423790.34279,-2.62577248798352,-0.149660486762798,-1.14723430228122
1580423790.37455,-1.9529106584268,0.139894712748912,-1.12184328984512
1580423790.40631,-1.88699168383307,-0.00122072175173571,-0.361577782864119
1580423790.43807,-1.49343099107347,-0.112062256809338,0.284916456855115
1580423790.46983,-1.3371786068513,0.269291218432897,0.885511558709087
1580423790.50159,0.270267795834286,-0.567147325856412,-0.937270160982681
1580423790.53335,0.238040741588463,-0.54859235523003,-0.124269474326695
1580423790.56512,0.0866712443732354,-0.463630121309224,-0.322026398107882
1580423790.59688,0.0285648889906156,0.220462348363469,-0.489021133745327
1580423790.62864,-0.121828030823224,0.0710460059510183,-1.12477302204929
1580423790.6604,-1.14137483787289,-1.44313725490196,-0.0432135500114441
1580423790.69216,-2.12674143587396,0.207278553444723,0.277103837644006
1580423790.72392,-1.68044556343938,-0.147707331960021,0.525154497596706
1580423790.75568,-1.67946898603799,0.28784618905928,-0.255619134813459
1580423790.78744,-2.12137026016632,-0.301029983978028,-0.110597390707255
1580423790.81921,-2.3118028534371,-0.602792401007095,-0.0393072404058898
1580423790.85097,-1.56618600747692,-0.490974288548104,-0.724376287479972
1580423790.88273,-0.826428625925079,-0.129640650034332,-1.53591210803387
1580423790.91449,-0.753185320820936,-0.287357900358588,-1.32497138933394
1580423790.94625,-0.0686045624475469,-0.842053864347296,-1.38210116731518
1580423790.97801,1.225848783093,-0.11108567940795,-0.552498664835584
1580423791.00977,0.289311055161363,-0.109620813305867,-1.09645227740902
1580423791.04153,0.104737926298924,-0.260990310521096,-0.841077286945907
1580423791.07329,-0.784924086366065,-0.181399252307926,-0.590096894789044
1580423791.10506,-2.83183031967651,-0.549568932631418,0.454840924696725
1580423791.13682,-1.6018310826276,-0.208743419546806,-0.425055313954376
1580423791.16858,-2.3367055771725,0.060303654535744,-1.61647974364843
1580423791.20034,-2.06570534828717,0.24682993820096,-0.786877241168842
1580423791.2321,-1.9099412527657,-0.0075684748607614,-0.237064164187075
1580423791.26386,-1.61599145494774,0.221927214465552,0.530037384603649
1580423791.29574,-0.831799801632716,0.103761348897535,1.3713588158999
1580423791.32751,-0.034424353398947,-0.589120317387655,-1.34352635996033
1580423791.35927,0.719005111772336,-0.332768749523156,-0.322026398107882
1580423791.39103,0.231692988479438,0.0139162279697871,-0.303959716182193
1580423791.42279,-0.153566796368352,-0.178469520103761,-0.607675288014038
1580423791.45455,-0.905531395437553,0.142824444953078,-1.08229190508888
1580423791.48631,-2.40360112916762,-0.318608377203022,0.37329671168078
1580423791.51807,-1.61989776455329,0.555916685740446,0.0524910353246355
1580423791.54983,-1.80202944991226,-0.162355992980849,0.410406652933546
1580423791.5816,-1.98269626916915,-0.567635614557107,-0.159914549477378
1580423791.61336,-1.93923857480736,-0.6877546349279,-0.258060578316931
1580423791.64512,-1.74001678492409,-0.350835431448845,-0.7219348439765
1580423791.67688,-1.10768291752499,-0.0334477759975584,-0.973403524834058
1580423791.70864,-0.778088044556345,0.183840695811398,-1.28200198367285
1580423791.7404,-0.372320134279393,-0.709239337758449,-1.44313725490196
1580423791.77216,0.593514915693905,-0.743907835507743,-0.871351186388953
1580423791.80392,0.991958495460441,0.414801251239794,-0.97584496833753
1580423791.83569,0.23999389639124,-0.309330891889831,-0.759044785229268
1580423791.86745,-0.281010147249562,-0.379644464789807,-0.402594033722439
1580423791.89921,-3.33965056839857,-0.311772335393302,-0.0827649347676811
1580423791.93097,-1.91189440756848,-0.266849774929428,-0.427008468757153
1580423791.96273,-2.26346227206836,-0.0666514076447697,-1.01002517738613
1580423791.99449,-2.28690012970169,0.0583504997329669,-1.01490806439307
1580423792.02625,-1.8581826504921,0.0778820477607383,-0.557869840543221
1580423792.05801,-1.60817883573663,0.0534676127260241,0.0563973449301898
1580423792.08977,-1.35085069047074,0.444586861982145,1.51149767299916
1580423792.12154,-0.343022812237736,-0.330327306019685,-0.898695353627833
1580423792.1533,0.596932936598765,-0.489021133745327,-0.249271381704432
1580423792.18506,0.453376058594642,0.158937972075989,-0.614023041123064
1580423792.21682,-0.302983138780805,0.0236820019836728,-0.23999389639124
1580423792.24858,-0.32983901731899,0.063721675440604,-0.875257495994507
1580423792.28034,-0.783459220263982,-0.454352635996033,-0.557869840543221
1580423792.3121,-2.07693598840314,1.04957656214237,-0.205813687342641
1580423792.34386,-1.7219501029984,-0.169680323491264,0.774670023651485
1580423792.37562,-1.91677729457542,0.150637064164187,0.662363622491799
1580423792.40739,-2.02029449912261,-0.193606469825284,-0.11450370031281
1580423792.43915,-2.17117570763714,-0.746837567711909,-0.196536202029449
1580423792.47091,-1.83816281376364,-0.80494392309453,-0.495368886854353
1580423792.50267,-0.990005340657664,-0.063721675440604,-1.64773022049287
1580423792.53443,-0.823010605020219,0.251712825207903,-1.17653162432288
1580423792.56638,-0.379156176089113,-0.823498893720913,-1.13405050736248
1580423792.59814,1.59011215381094,-0.48364995803769,-1.54030670634012
1580423792.6299,0.175539787899595,-0.113527122911421,-0.884046692607004
1580423792.66166,-0.345464255741208,-0.329350728618296,-0.633066300450141
1580423792.69342,-0.431403067063401,-0.371343556878005,-0.333745326924545
1580423792.72518,-2.2942244602121,0.10424963759823,0.185305561913481
1580423792.75694,-2.20730907148852,0.0236820019836728,-0.73218890669108
1580423792.78871,-2.02615396353094,0.190676737621118,-1.02027924010071
1580423792.82047,-2.3025253681239,-0.193606469825284,-1.18043793392843
1580423792.85223,-2.25857938506142,-0.346440833142596,-0.237064164187075
1580423792.88399,-1.68874647135119,-0.273685816739148,0.278568703746089
1580423792.91575,-1.21168841077287,0.156008239871824,0.989028763256275
1580423792.94752,-0.0935072861829553,0.642343785763334,-0.573006790264744
1580423792.97928,0.133058670939192,-0.395757991912719,-0.0451667048142212
1580423793.01104,0.157961394674601,-0.438727397573816,-0.491462577248798
1580423793.0428,-0.0183108262760356,0.140871290150301,-0.127687495231555
1580423793.07456,-0.327885862516213,0.0920424200808725,-1.03248645761807
1580423793.10632,-0.71851682307164,-1.24586861982147,-0.575448233768215
1580423793.13808,-1.69460593575952,0.878187228198673,0.158937972075989
1580423793.16985,-1.64577706569009,-0.310307469291219,0.661875333791105
1580423793.20161,-1.9524223697261,0.320561532005797,0.134035248340581
1580423793.23337,-2.22928206301976,-0.455817502098116,0.00366216525520713
1580423793.26513,-2.07840085450523,-0.503669794766155,-0.262455176623179
1580423793.29689,-1.62331578545815,-0.561287861448081,-0.734142061493857
1580423793.32866,-0.72877088578622,-0.218997482261386,-1.34889753566796
1580423793.36042,-0.616464484626535,-0.309330891889831,-1.40651560234989
1580423793.39218,-0.0666514076447697,-0.509040970473793,-1.1750667582208
1580423793.42394,1.07399099717708,0.103273060196841,-0.858655680170902
1580423793.4557,0.241458762493323,-0.190188448920424,-0.915785458152133
1580423793.48746,0.134523537041275,-0.353276874952316,-0.730235751888303
1580423793.51922,-0.646738384069581,-0.342534523537042,-0.556404974441138
1580423793.55099,-3.05595483329519,-0.638925764858472,0.0710460059510183
1580423793.58275,-1.59792477302205,-0.0363775082017241,-0.464118410009918
1580423793.61451,-2.19705500877394,0.170656900892652,-1.14283970397497
1580423793.64627,-2.05203326466773,0.0939955748836496,-1.0041657129778
1580423793.67803,-2.07107652399481,-0.139894712748912,-0.375738155184253
1580423793.70979,-1.73415732051575,-0.0729991607537954,0.334721904325932
1580423793.74156,-1.44460212100404,-0.42896162355993,1.29958037689784
1580423793.77332,0.0661631189440754,-0.0803234912642097,-0.932387273975738
1580423793.80508,0.471931029221025,-0.670664530403601,-0.110109102006561
1580423793.837,0.125246051728084,-0.146730754558632,-0.425055313954376
1580423793.86877,-0.159426260776684,-0.0158693827725642,-0.306401159685665
1580423793.90053,-0.259525444419014,0.214602883955138,-0.648691538872358
1580423793.93229,-0.801037613488976,-0.519295033188373,-0.557381551842527
1580423793.96405,-1.91433585107195,0.379644464789806,-0.23657587548638
1580423793.99581,-1.84353398947128,-0.0939955748836496,0.5085526817731
1580423794.02758,-1.94509803921569,0.142824444953078,0.53589684901198
1580423794.05934,-1.9358205539025,-0.128664072632944,-0.221927214465552
1580423794.0911,-2.27615777828641,-0.475349050125887,-0.110597390707255
1580423794.12286,-2.01589990081636,-0.651621271076523,-0.373296711680782
1580423794.15462,-1.16383611810483,-0.160891126878766,-1.60573739223316
1580423794.18638,-0.562752727550164,-0.185793850614175,-1.61257343404288
1580423794.21814,-0.345464255741208,-0.594003204394598,-1.05885404745556
1580423794.24991,1.16041809719997,-0.415777828641184,-1.02613870450904
1580423794.28167,0.33228046082246,0.0632333867399097,-0.994399938963912
1580423794.31343,0.117433432516975,-0.297123674372473,-0.871839475089647
1580423794.34519,-0.356206607156482,-0.302983138780805,-0.472907606622416
1580423794.37695,-2.84647898069734,-0.306401159685665,0.234134431982909
1580423794.40872,-2.02127107652399,-0.273685816739148,-0.754650186923019
1580423794.44048,-2.24002441443503,-0.0876478217746239,-0.930434119172961
1580423794.47224,-2.0720531013962,0.217044327458609,-0.967055771725033
1580423794.504,-2.05642786297398,0.337163347829403,-0.655039291981383
1580423794.53576,-1.84402227817197,0.0822766460669868,-0.0163576714732585
1580423794.56752,-1.30446326390478,0.567635614557108,1.84402227817197
1580423794.59928,-0.72535286488136,-0.165285725185015,-1.36794079499504
1580423794.63105,0.38355077439536,-0.327885862516213,0.0798352025635154
1580423794.66281,0.482185091935605,0.309819180590523,-0.737071793698023
1580423794.69457,0.177981231403066,0.151125352864881,-0.534431982909895
1580423794.72633,-0.0700694285496297,0.112062256809338,-0.512458991378653
1580423794.75809,-1.00465400167849,-0.502204928664073,-0.867444876783399
1580423794.78986,-1.74782940413519,-0.805920500495919,-0.465094987411307
1580423794.82162,-1.91140611886778,0.294682230869,0.361577782864117
1580423794.85338,-1.65603112840467,0.372808422980086,0.51880674448768
1580423794.88514,-2.00418097199969,-0.256595712214848,-0.589608606088349
1580423794.9169,-2.18924238956283,-0.947035934996567,0.041260395208667
1580423794.94866,-1.98562600137331,-0.613046463721675,-0.281498435950256
1580423794.98042,-1.54421301594568,0.254154268711375,-0.985610742351415
1580423795.01219,-0.766857404440376,0.170168612191958,-1.2942092011902
1580423795.04395,-0.678965438315403,-0.740978103303577,-1.37282368200198
1580423795.07571,1.15065232318608,-1.10035858701457,-1.46901655603876
1580423795.10757,0.487067978942548,0.150637064164187,-1.02662699320974
1580423795.13934,0.0114747844663157,-0.099855039291981,-0.945571068894484
1580423795.1711,-0.0920424200808725,-0.127687495231555,-0.525642786297398
1580423795.20286,-1.43190661478599,-0.0617685206378269,-0.43921568627451
1580423795.23462,-2.60868238345922,-0.142336156252384,-0.00708018616006711
1580423795.26638,-1.83767452506294,0.149660486762798,-0.448981460288396
1580423795.29814,-2.27859922178988,-0.0725108720531011,-1.21315327687495
1580423795.32991,-1.89968719005112,-0.127199206530861,-1.06813153276875
1580423795.36167,-1.80007629510948,-0.349370565346762,-0.193118181124589
1580423795.39343,-1.39967956054017,-0.0642099641412983,1.2859082932784
1580423795.42519,-1.79177538719768,0.01196307316701,0.198977645532921
1580423795.45695,0.377203021286334,-0.945571068894484,-0.95875486381323
1580423795.48871,-0.01196307316701,0.4314030670634,-0.248783093003738
1580423795.52047,0.0212405584802013,-0.840588998245213,-0.449958037689784
1580423795.55224,-0.0954604409857325,0.161379415579461,-0.298588540474556
1580423795.584,-0.606210421911955,-0.292240787365531,-0.462165255207141
1580423795.61576,-0.835217822537576,-0.623788815136949,-0.877698939497979
1580423795.64752,-1.70046540016785,1.3884489204242,0.0314946211947813
1580423795.67928,-1.8669718471046,-0.721446555275806,1.15309376668955
1580423795.71105,-1.94168001831083,0.45532921339742,0.0290531776913099
1580423795.74281,-2.11599908445869,-0.273685816739148,-0.371343556878005
1580423795.77457,-2.20389105058366,-0.678477149614709,-0.0881361104753182
1580423795.80633,-1.88747997253376,-0.736095216296635,-0.208743419546806
1580423795.83809,-0.793713282978562,-0.349858854047456,-1.95144579232471
1580423795.86985,-0.700450141145952,-0.23999389639124,-1.48610666056306
1580423795.90161,0.737560082398719,-0.741466392004272,-1.63405813687343
1580423795.93338,0.861097123674373,-0.159426260776684,-1.15358205539025
1580423795.96514,-0.00122072175173571,-0.201907377737086,-0.898695353627833
1580423795.9969,-0.0583504997329669,-0.0954604409857325,-0.589120317387655
1580423796.02866,-1.08131532768749,-0.311772335393302,-0.0656748302433812
1580423796.06042,-2.69657434958419,-0.480720225833524,0.136964980544747
1580423796.09219,-1.56374456397345,0.0485847257190812,-0.85279621576257
1580423796.12395,-2.16043335622187,0.0607919432364383,-1.3542687113756
1580423796.15571,-2.21902800030518,-0.00805676356145568,-1.07887388418402
1580423796.18747,-2.04129091325246,-0.229739833676661,-0.641855497062638
1580423796.21923,-1.73513389791714,-0.135500114442664,0.599374380102237
1580423796.25099,-0.987075608453498,0.564217593652248,0.630136568245977
1580423796.28275,-0.276127260242619,-0.219485770962081,-0.647226672770275
1580423796.31452,0.259525444419012,-0.502693217364767,-0.103761348897535
1580423796.34628,0.424078736552985,-0.250247959105822,-0.54175631342031
1580423796.3782,-0.149660486762798,0.0451667048142212,-0.156984817273212
1580423796.40997,-0.272709239337759,0.0075684748607614,-1.18922713054093
1580423796.44173,-0.719981689173723,-1.28102540627146,-0.403570611123827
1580423796.47349,-1.80495918211643,0.670664530403602,-0.0109864957656214
1580423796.50525,-1.4651102464332,0.0236820019836728,0.608651865415428
1580423796.53701,-2.11209277485313,0.329839017318989,0.438727397573814
1580423796.56878,-2.02664225223163,-0.152590218966964,-0.204837109941252
1580423796.60054,-2.24002441443503,-0.286869611657893,-0.135988403143358
1580423796.6323,-2.08181887541009,-0.671152819104295,-0.0622568093385212
1580423796.66406,-1.62331578545815,-0.593514915693904,-1.54616617074845
1580423796.69582,-0.802990768291753,-0.553475242236972,-2.18094148165103
1580423796.72759,0.342046234836346,-0.126222629129472,-0.984145876249332
1580423796.75935,1.07740901808194,-0.343999389639125,-1.35085069047074
1580423796.79111,-0.155519951171129,-0.421637293049516,-1.07301441977569
1580423796.82287,0.145754177157244,-0.379156176089113,-0.693125810635538
1580423796.85464,-0.447028305485619,-0.347417410543985,-0.135500114442664
1580423796.8864,-2.30887312123293,0.394781414511328,0.175051499198901
1580423796.91816,-2.23709468223087,0.261966887922483,-0.343999389639125
1580423796.94992,-1.62575722896162,0.371343556878003,-0.820569161516747
1580423796.98168,-2.30691996643015,-0.0505378805218584,-1.39821469443809
1580423797.01345,-1.78347447928588,-0.654062714579995,-1.08863965819791
1580423797.04521,-2.03640802624552,-0.665781643396658,0.31860837720302
1580423797.07697,-1.14479285877775,-0.596932936598764,0.993423361562524
1580423797.10873,-1.30885786221103,0.403570611123826,-0.638437476157778
1580423797.14049,0.940688181887541,-0.341069657434959,-0.212649729152361
1580423797.17226,0.573006790264746,0.730235751888305,-0.620370794232089
1580423797.20402,-0.0627450980392155,-0.722911421377889,-0.331792172121768
1580423797.23578,-0.225345235370412,0.361089494163423,-0.345952544441902
1580423797.26754,-0.607186999313344,-0.144289311055161,-1.07643244068055
1580423797.29931,-2.95487907225147,-1.47585259784848,-0.464606698710613
1580423797.33107,-1.83523308155947,0.370366979476614,0.405035477225908
1580423797.36283,-1.91042954146639,0.228763256275272,0.990981918059052
1580423797.39459,-2.06912336919203,0.183840695811398,-0.165285725185015
1580423797.42635,-2.26981002517739,-0.690196078431372,-0.203372243839169
1580423797.45812,-2.06179903868162,-0.783947508964676,-0.434821087968261
1580423797.48988,-1.46364538033112,-0.593026626993209,-0.937758449683376
1580423797.52164,-0.651132982375829,-0.270756084534982,-2.21853971160449
1580423797.5534,-0.230716411078049,-0.193118181124589,-0.90406652933547
1580423797.58517,1.20094605935759,-0.426520180056459,-1.37477683680476
1580423797.61693,0.0280766002899213,-0.421637293049516,-1.29518577859159
1580423797.6489,0.101808194094758,-0.321049820706493,-0.719005111772335
1580423797.68066,-0.136476691844052,-0.311284046692608,-0.472419317921721
1580423797.71242,-1.37428854810407,-0.0891126878767068,-0.154543373769741
1580423797.74418,-2.78544289311055,0.108644235904478,0.0505378805218584
1580423797.77594,-1.61159685664149,0.224856946669718,-0.543709468223087
1580423797.80771,-2.24002441443503,0.161867704280155,-1.05445944914931
1580423797.83947,-1.81081864652476,-0.112062256809338,-1.12037842374304
1580423797.87123,-1.86062409399558,-0.464606698710613,-0.310307469291219
1580423797.903,-1.6277103837644,-0.202883955138475,0.552498664835586
1580423797.93476,-1.43581292439155,0.290287632562752,1.09498741130693
1580423797.96652,-0.254154268711376,-0.0075684748607614,-1.16285954070344
1580423797.99828,0.412848096437017,-0.749767299916074,-0.427985046158541
1580423798.03005,0.45532921339742,0.0192874036774242,-0.397711146715496
1580423798.06181,-0.209719996948195,-0.402594033722439,-0.529549095902953
1580423798.09357,-0.39478141451133,0.0930189974822611,-0.699473563744563
1580423798.12533,-1.39528496223392,-1.46364538033112,0.258060578316929
1580423798.1571,-1.96462958724346,0.762462806134128,-0.253177691309988
1580423798.18886,-1.62478065156023,-0.0358892195010299,0.51197070267796
1580423798.22062,-1.84597543297475,0.123781185626001,0.100343327992675
1580423798.25238,-2.16824597543297,-0.469489585717556,-0.146730754558632
1580423798.28415,-2.03884946974899,-0.595468070496681,-0.307377737087053
1580423798.31591,-1.60476081483177,-0.515877012283513,-0.659922178988326
1580423798.34767,-0.963149462119478,-0.185305561913481,-1.33180743114366
1580423798.37943,-0.894300755321584,-0.344975967040513,-1.61745632104982
1580423798.4112,0.3288624399176,-0.600350957503624,-1.51247425040055
1580423798.44296,1.18629739833677,0.11792172121767,-1.00856031128405
1580423798.47472,-0.00170901045242999,-0.329350728618296,-1.01979095140002
1580423798.50648,-0.0983901731898982,-0.396246280613413,-0.674570840009155
1580423798.53825,-0.957289997711147,-0.309819180590525,-0.529549095902953
1580423798.57001,-2.75077439536126,-0.529060807202258,0.401617456321048
1580423798.60177,-1.80447089341573,-0.0681162737468526,-0.748790722514686
1580423798.63353,-2.49198138399329,0.182375829709315,-1.18043793392843
1580423798.6653,-1.93435568780041,0.192629892423895,-0.792248416876479
1580423798.69706,-1.60720225833524,0.0832532234683754,0.0456549935149155
1580423798.72882,-1.25416952773327,0.277103837644006,2.11404592965591
1580423798.76059,-1.0124666208896,-0.140383001449607,-1.22731364919509
1580423798.79235,0.330815594720377,-0.980239566643778,-0.168703746089875
1580423798.82411,0.166750591287098,0.592538338292517,-0.661387045090409
1580423798.85587,0.0183108262760356,-0.276127260242619,-0.513923857480735
1580423798.88764,0.149660486762798,0.406500343327991,-0.760021362630656
1580423798.91962,-0.902113374532693,-0.327397573815519,-0.780041199359122
1580423798.95138,-1.8928511482414,-0.740978103303577,0.0368657969024184
1580423798.98314,-1.94558632791638,0.374273289082169,0.0583504997329669
1580423799.01491,-1.61452658884565,0.120851453421835,0.326420996414129
1580423799.04667,-2.06131074998093,-0.0632333867399097,0.0515144579232469
1580423799.07843,-2.31522087434196,-0.56568245975433,-0.041260395208667
1580423799.11019,-2.05984588387884,-0.723887998779277,-0.296635385671779
1580423799.14196,-1.25905241474022,-0.515388723582818,-1.37380025940337
1580423799.17372,-0.679453727016098,-0.0983901731898982,-1.61257343404288
1580423799.20548,-0.437262531471733,-0.165774013885709,-1.28004882887007
1580423799.23725,1.03883421072709,-0.239017318989852,-0.95533684290837
1580423799.26901,0.516365300984209,-0.227786678873883,-1.04176394293126
1580423799.30077,0.234134431982909,-0.366948958571756,-0.966079194323644
1580423799.33254,-0.272220950637065,-0.355718318455787,-0.454352635996033
1580423799.3643,-2.73563744563973,-0.0949721522850382,0.176028076600289
1580423799.39606,-1.98562600137331,-0.170656900892652,-0.562752727550164
1580423799.42783,-2.00613412680247,-0.0915541313801782,-0.86305027847715
1580423799.45959,-2.18631265735866,0.11450370031281,-1.02418554970626
1580423799.49135,-1.94168001831083,0.0715342946517126,-0.403082322423133
1580423799.52311,-1.47975890745403,-0.0495613031204698,-0.188235294117646
1580423799.55488,-1.2605172808423,0.106202792401007,1.07057297627222
1580423799.58664,-0.988052185854887,-0.44263370717937,-0.624277103837644
1580423799.6184,0.556893263141834,-0.859143968871596,-0.49732204165713
1580423799.65017,0.397711146715494,0.788830395971619,-0.520271610589761
1580423799.68193,-0.239017318989852,-0.159914549477378,-0.272709239337759
1580423799.71369,-0.266361486228734,0.156008239871824,-0.300053406576639
1580423799.74546,-1.07496757457847,-0.262943465323874,-1.09840543221179
1580423799.77722,-1.5505607690547,-1.34743266956588,-0.429938200961319
1580423799.80898,-1.9524223697261,0.140383001449607,0.100343327992675
1580423799.84075,-1.47975890745403,0.135011825741969,0.665293354695965
1580423799.87251,-1.97488364995804,0.0822766460669868,-0.230228122377355
1580423799.90427,-2.18484779125658,-0.578866254673075,-0.147707331960021
1580423799.93603,-1.90652323186084,-0.464606698710613,-0.228274967574578
1580423799.9678,-1.31764705882353,-0.379156176089113,-0.877698939497979
1580423799.99956,-1.09742885481041,-0.168703746089875,-1.72243839169909
1580423800.03132,-0.688731212329289,-0.656504158083466,-1.52761120012207
1580423800.06309,0.80836194399939,-0.239017318989852,-0.670664530403601
1580423800.09485,0.906996261539636,0.293217364766917,-1.21266498817426
1580423800.12661,0.0656748302433812,-0.250247959105822,-0.892835889219501
1580423800.15838,-0.228274967574578,-0.402594033722439,-0.636972610055695
1580423800.19028,-2.03201342793927,-0.135500114442664,0.100343327992675
1580423800.22204,-2.1833829251545,-0.137941557946135,-0.271244373235676
1580423800.2538,-1.73611047531853,0.077393759060044,-0.867933165484093
1580423800.28557,-2.25809109636072,0.117433432516975,-1.18287937743191
1580423800.31733,-1.99880979629206,-0.0393072404058898,-0.468024719615473
1580423800.34909,-1.72390325780117,-0.256595712214848,-0.103761348897535
1580423800.38085,-1.16920729381247,-0.128175783932249,0.96559090562295
1580423800.41262,-1.30690470740826,-0.745372701609826,0.0622568093385212
1580423800.44438,0.309819180590523,-0.230228122377355,-0.581795986877241
1580423800.47614,0.398687724116883,0.269291218432897,-0.490974288548104
1580423800.50791,0.0500495918211641,0.266361486228732,-0.182375829709315
1580423800.53967,-0.248294804303043,-0.0197756923781185,-0.617441062027924
1580423800.57143,-1.04371709773404,-0.346440833142596,-1.3718471046006
1580423800.6032,-2.40213626306554,0.0876478217746239,-0.183840695811398
1580423800.63496,-1.74392309452964,0.267826352330815,0.348393987945371
1580423800.66672,-1.5505607690547,0.266849774929426,0.402105745021743
1580423800.69849,-2.11013962005035,-0.152590218966964,-0.217532616159303
1580423800.73025,-2.22293430991073,-1.00758373388266,-0.0593270771343555
1580423800.76201,-1.79079880979629,-0.569588769359884,-0.523201342793927
1580423800.79377,-1.30104524299992,-0.073975738155184,-0.879163805600061
1580423800.82554,-0.898695353627833,0.192141603723201,-1.36354619668879
1580423800.8573,-0.494392309452964,-0.512947280079347,-1.54518959334707
1580423800.88906,0.466559853513388,-0.95875486381323,-1.28688487067979
1580423800.92083,1.03688105592432,0.323979552910657,-1.00660715648127
1580423800.95259,0.070557717250324,-0.149660486762798,-0.779064621957733
1580423800.98435,0.0290531776913099,-0.37085526817731,-0.573495078965438
1580423801.01612,-1.29665064469368,-0.154543373769741,-0.287357900358588
1580423801.04788,-2.73368429083696,-0.551033798733501,0.0388189517051956
1580423801.07964,-1.4651102464332,0.138429846646829,-0.69800869764248
1580423801.11141,-2.31619745174334,0.158937972075989,-1.46852826733806
1580423801.14317,-2.15799191271839,0.109620813305867,-0.749767299916074
1580423801.17493,-1.92068360418097,-0.0583504997329669,-0.164309147783626
1580423801.20669,-1.27174792095827,-0.01196307316701,-0.0139162279697871
1580423801.23846,-1.18825055313954,-1.03590447852293,0.82203402761883
1580423801.27022,0.0520027466239412,0.169192034790569,-0.810803387502862
1580423801.30198,0.265873197528038,-0.337651636530099,-0.259037155718319
1580423801.33375,0.25024795910582,-0.141847867551689,-0.284428168154422
1580423801.36551,-0.0202639810788128,0.352300297550926,-0.211673151750972
1580423801.39727,-0.640390630960555,0.0969253070878153,-0.544686045624475
1580423801.42904,-1.0129549095903,-2.90556191348135,-0.692149233234149
1580423801.46091,-1.54079499504082,0.524177920195317,-0.0144045166704814
1580423801.49267,-1.71218432898451,0.110109102006561,0.765880827038988
1580423801.52443,-1.96218814373999,0.555428397039751,0.303471427481497
1580423801.5562,-2.37723353933013,-0.362554360265507,-0.229739833676661
1580423801.58796,-1.93191424429694,-0.549080643930724,-0.372808422980087
1580423801.61972,-1.55690852216373,-0.717051956969557,-0.55884641794461
1580423801.65148,-0.777111467154956,-0.322026398107882,-1.31569390402075
1580423801.68325,-0.727794308384832,-0.348882276646068,-1.51735713740749
1580423801.71501,-0.0578622110322726,-0.38452735179675,-1.34889753566796
1580423801.74677,1.09108110170138,-0.219974059662775,-0.926039520866713
1580423801.77854,0.26392004272526,-0.181399252307926,-0.761974517433433
1580423801.8103,0.108644235904478,-0.312748912794691,-0.935317006179904
1580423801.84206,-1.1233081559472,-0.305424582284276,-0.41870756084535
1580423801.87383,-2.39432364385443,-0.256107423514154,0.0158693827725642
1580423801.90559,-1.7649195086595,-0.131593804837109,-0.194583047226672
1580423801.93735,-2.52274357213703,0.273197528038452,-1.13795681696803
1580423801.96912,-1.76784924086366,0.439215686274508,-1.1067063401236
1580423802.00088,-2.00418097199969,-0.143312733653772,-0.693125810635538
1580423802.03264,-1.87966735332265,-0.0632333867399097,0.420172426947431
1580423802.0644,-0.815686274509805,0.0192874036774242,1.44557869840543
1580423802.09617,-0.288822766460671,0.105714503700312,-1.44460212100404
1580423802.12793,0.577889677271688,-0.448981460288396,0.0246585793850613
1580423802.15969,0.391363393606468,0.511482413977266,-0.777111467154956
1580423802.19146,-0.282963302052339,-0.00415045395590141,-0.252689402609294
1580423802.22322,-0.150637064164187,0.0847180895704582,-0.773693446250096
1580423802.25498,-0.665293354695963,-0.45288776989395,-1.00758373388266
1580423802.28675,-2.10135042343786,0.155031662470435,-0.314213778896773
1580423802.31851,-1.83718623636225,0.319096665903714,0.389898527504386
1580423802.35027,-1.68581673914702,0.208743419546806,0.3801327534905
1580423802.38204,-1.87136644541085,-0.0690928511482412,-0.447516594186313
1580423802.4138,-2.18973067826352,-0.866956588082704,0.0485847257190812
1580423802.44556,-2.13504234378576,-0.734630350194552,-0.115968566414892
1580423802.47732,-1.42751201647974,-0.0104982070649271,-1.05787747005417
1580423802.50909,-0.779552910658428,0.249271381704432,-1.33376058594644
1580423802.54085,-0.730724040588997,-0.11450370031281,-1.27272449835966
1580423802.57261,0.273685816739146,-0.952407110704204,-1.67556267643244
1580423802.60438,1.12867933165484,-0.161379415579461,-0.80494392309453
1580423802.63614,0.329350728618294,-0.293705653467613,-1.01881437399863
1580423802.6679,-0.0988784618905925,-0.179446097505149,-0.631113145647364
1580423802.69967,-2.35233081559472,0.115968566414892,-0.473884184023804
1580423802.7316,-2.17850003814755,-0.234622720683603,0.00122072175173571
1580423802.76336,-2.11013962005035,-0.0329594872968642,-0.634042877851529
1580423802.79513,-2.32059205004959,0.0627450980392155,-1.16774242771038
1580423802.82689,-1.87820248722057,0.146730754558632,-0.462165255207141
1580423802.85865,-1.44557869840543,-0.0632333867399097,-0.310795757991913
1580423802.89041,-1.48366521705959,0.0100099183642328,1.58083466849775
1580423802.92218,-1.59841306172274,-0.334233615625239,0.340093080033569
1580423802.95394,0.5940032043946,-0.924086366063936,-0.805920500495919
1580423802.98571,0.351812008850231,0.561287861448083,-0.339116502632182
1580423803.01747,-0.135500114442664,0.0290531776913099,-0.339116502632182
