Timestamp_seconds,Accel_X_g,Accel_Y_g,Accel_Z_g
1580423750.42233,-0.994399938963912,-0.0075684748607614,0.162844281681544
1580423750.42633,-0.995864805065995,-0.00366216525520713,0.162355992980849
1580423750.43033,-0.993423361562524,0.000244144350347142,0.161867704280155
1580423750.43433,-0.995864805065995,0.000732433051041426,0.163820859082932
1580423750.43833,-0.992446784161135,0.00170901045242999,0.161867704280155
1580423750.44233,-0.98951705195697,0.0046387426565957,0.160402838178072
1580423750.44633,-0.995376516365301,0.0075684748607614,0.164309147783626
1580423750.45033,-0.989028763256275,0.0104982070649271,0.160891126878766
1580423750.45432,-0.990005340657664,0.00952162966353853,0.156008239871824
1580423750.45832,-0.990981918059052,0.01196307316701,0.160402838178072
1580423750.46232,-0.99293507286183,0.00854505226214997,0.161867704280155
1580423750.46632,-0.994399938963912,0.00219729915312428,0.166262302586404
1580423750.47032,-0.994888227664607,0.00170901045242999,0.159426260776684
1580423750.47432,-0.995864805065995,0.00170901045242999,0.159914549477378
1580423750.47832,-0.997329671168078,-0.000732433051041426,0.164309147783626
1580423750.48231,-0.996841382467384,0.00415045395590141,0.163820859082932
1580423750.48631,-0.994888227664607,0.00366216525520713,0.156984817273212
1580423750.49031,-0.993911650263218,-0.000244144350347142,0.162355992980849
1580423750.49431,-0.994888227664607,-0.00219729915312428,0.158937972075989
1580423750.49829,-0.992446784161135,0.000732433051041426,0.165774013885709
1580423750.50229,-0.99293507286183,0.00170901045242999,0.161379415579461
1580423750.50629,-0.992446784161135,-0.000732433051041426,0.158937972075989
1580423750.51029,-0.993911650263218,-0.00317387655451284,0.165285725185015
1580423750.51429,-0.993423361562524,-0.000732433051041426,0.164797436484321
1580423750.51828,-0.994399938963912,0.000244144350347142,0.159914549477378
1580423750.52228,-0.999282825970855,0.000244144350347142,0.159914549477378
1580423750.52628,-0.99293507286183,0.00415045395590141,0.158449683375295
1580423750.53028,-0.996841382467384,0.00317387655451284,0.161379415579461
1580423750.53428,-0.99635309376669,0.000244144350347142,0.162355992980849
1580423750.53828,-0.995376516365301,0.00170901045242999,0.156496528572518
1580423750.54228,-0.991958495460441,0.00122072175173571,0.157473105973907
1580423750.54628,-0.990981918059052,0.00415045395590141,0.162355992980849
1580423750.55027,-0.990005340657664,0.00561532005798426,0.156984817273212
1580423750.55427,-0.989028763256275,0.00805676356145568,0.160402838178072
1580423750.55827,-0.991470206759747,0.0114747844663157,0.157473105973907
1580423750.56227,-0.989028763256275,0.0139162279697871,0.155031662470435
1580423750.56627,-0.991958495460441,0.0109864957656214,0.160891126878766
1580423750.57027,-0.99635309376669,0.0104982070649271,0.156496528572518
1580423750.57427,-0.996841382467384,0.00512703135728998,0.156496528572518
1580423750.57828,-0.99635309376669,0.00561532005798426,0.153566796368352
1580423750.58228,-0.997329671168078,0.0075684748607614,0.156496528572518
1580423750.58627,-0.994888227664607,0.00512703135728998,0.158449683375295
1580423750.59027,-0.99635309376669,0.00854505226214997,0.162355992980849
1580423750.59427,-0.994399938963912,0.0104982070649271,0.155031662470435
1580423750.59827,-0.998306248569467,0.00903334096284425,0.159914549477378
1580423750.60227,-0.994888227664607,0.0100099183642328,0.159426260776684
1580423750.60627,-0.994399938963912,0.0104982070649271,0.152101930266269
1580423750.61027,-0.997329671168078,0.00805676356145568,0.154543373769741
1580423750.61427,-0.996841382467384,0.00854505226214997,0.157473105973907
1580423750.61826,-0.994888227664607,0.00268558785381856,0.158449683375295
1580423750.62226,-0.99293507286183,0.00317387655451284,0.160402838178072
1580423750.62626,-0.998794537270161,0.0046387426565957,0.153078507667658
1580423750.63026,-0.99635309376669,0.00317387655451284,0.152590218966964
1580423750.63426,-0.994399938963912,0.00415045395590141,0.154543373769741
1580423750.63826,-0.993911650263218,0.0075684748607614,0.154543373769741
1580423750.64226,-0.991470206759747,0.00512703135728998,0.154055085069047
1580423750.64626,-0.99293507286183,0.00610360875867855,0.157473105973907
1580423750.65025,-0.99635309376669,0.0109864957656214,0.155031662470435
1580423750.65425,-0.994399938963912,0.0100099183642328,0.160402838178072
1580423750.65823,-0.993911650263218,0.01196307316701,0.161379415579461
1580423750.66223,-0.991958495460441,0.00854505226214997,0.156984817273212
1580423750.66623,-0.993911650263218,0.0075684748607614,0.160891126878766
1580423750.67023,-0.993911650263218,0.00854505226214997,0.161379415579461
1580423750.67423,-0.991958495460441,0.00708018616006711,0.158449683375295
1580423750.67823,-0.99635309376669,0.0075684748607614,0.165285725185015
1580423750.68223,-0.994888227664607,0.0124513618677042,0.156008239871824
1580423750.68622,-0.994888227664607,0.00854505226214997,0.157473105973907
1580423750.69022,-0.993911650263218,0.00512703135728998,0.160402838178072
1580423750.69422,-0.991958495460441,0.000732433051041426,0.159914549477378
1580423750.69822,-0.99293507286183,0.00219729915312428,0.156984817273212
1580423750.70222,-0.993423361562524,-0.00170901045242999,0.163332570382238
1580423750.70622,-0.99635309376669,0.000244144350347142,0.158937972075989
1580423750.71022,-0.998794537270161,-0.00219729915312428,0.156496528572518
1580423750.71422,-0.999282825970855,0.000732433051041426,0.158937972075989
1580423750.71821,-1.00123598077363,0.00561532005798426,0.150148775463492
1580423750.72221,-1.00074769207294,0.0046387426565957,0.155031662470435
1580423750.72621,-0.994399938963912,0.00268558785381856,0.153078507667658
1580423750.73021,-0.991958495460441,-0.000244144350347142,0.153078507667658
1580423750.73421,-0.995376516365301,-0.00122072175173571,0.155031662470435
1580423750.73822,-0.997817959868772,0.0046387426565957,0.158449683375295
1580423750.74222,-0.998306248569467,0.0114747844663157,0.162355992980849
1580423750.74622,-0.996841382467384,0.0148928053711757,0.158937972075989
1580423750.75022,-0.993423361562524,0.0144045166704814,0.164309147783626
1580423750.75422,-0.99293507286183,0.01196307316701,0.160402838178072
1580423750.75821,-0.988052185854887,0.00512703135728998,0.156496528572518
1580423750.76221,-0.987563897154192,0.00268558785381856,0.152101930266269
1580423750.76621,-0.989028763256275,0.00708018616006711,0.152590218966964
1580423750.77021,-0.996841382467384,0.00708018616006711,0.165285725185015
1580423750.77421,-0.99635309376669,0.00659189745937283,0.157473105973907
1580423750.77821,-0.994399938963912,0.00512703135728998,0.160891126878766
1580423750.78221,-0.999282825970855,0.0104982070649271,0.165285725185015
1580423750.7862,-0.995376516365301,0.0124513618677042,0.160402838178072
1580423750.7902,-0.991470206759747,0.00561532005798426,0.158449683375295
1580423750.7942,-0.995376516365301,-0.00122072175173571,0.157961394674601
1580423750.7982,-0.992446784161135,-0.00415045395590141,0.158937972075989
1580423750.8022,-0.99635309376669,-0.00170901045242999,0.161379415579461
1580423750.8062,-0.993911650263218,0.0046387426565957,0.157961394674601
1580423750.8102,-0.99635309376669,0.00610360875867855,0.161867704280155
1580423750.8142,-0.993911650263218,0.0114747844663157,0.165774013885709
1580423750.81818,-0.989028763256275,0.0114747844663157,0.161379415579461
1580423750.82218,-0.985610742351415,-0.00268558785381856,0.149172198062104
1580423750.82617,-0.986587319752804,-0.00610360875867855,0.155031662470435
1580423750.83017,-0.990005340657664,-0.00903334096284425,0.152101930266269
1580423750.83417,-0.994888227664607,-0.00610360875867855,0.155519951171129
1580423750.83817,-1.00514229037919,-0.00561532005798426,0.153566796368352
1580423750.84217,-1.00514229037919,-0.000244144350347142,0.153078507667658
1580423750.84617,-1.00709544518196,0.00415045395590141,0.159914549477378
1580423750.85017,-1.0036774242771,0.00952162966353853,0.156984817273212
1580423750.85416,-1.00172426947433,0.00903334096284425,0.154055085069047
1580423750.85816,-0.995376516365301,0.00659189745937283,0.158937972075989
1580423750.86216,-0.990981918059052,0.00170901045242999,0.155031662470435
1580423750.86616,-0.988540474555581,0.000244144350347142,0.161867704280155
1580423750.87016,-0.987563897154192,0.0046387426565957,0.159914549477378
1580423750.87416,-0.987075608453498,0.0046387426565957,0.158449683375295
1580423750.87816,-0.990493629358358,0.00610360875867855,0.163332570382238
1580423750.88216,-0.990981918059052,0.0124513618677042,0.162355992980849
1580423750.88615,-0.990005340657664,0.01196307316701,0.157961394674601
1580423750.89015,-0.990005340657664,0.00854505226214997,0.153566796368352
1580423750.89415,-0.993911650263218,0.0124513618677042,0.151613641565575
1580423750.89816,-0.993911650263218,0.0046387426565957,0.143312733653772
1580423750.90216,-0.997817959868772,0.00708018616006711,0.155519951171129
1580423750.90616,-0.998794537270161,0.00659189745937283,0.155031662470435
1580423750.91016,-0.996841382467384,0.00561532005798426,0.157473105973907
1580423750.91416,-0.995864805065995,0.00854505226214997,0.163332570382238
1580423750.91816,-0.993911650263218,0.0104982070649271,0.169192034790569
1580423750.92215,-0.989028763256275,0.00610360875867855,0.165774013885709
1580423750.92615,-0.985610742351415,0.00268558785381856,0.169680323491264
1580423750.93015,-0.98609903105211,-0.00903334096284425,0.167727168688486
1580423750.93415,-0.985122453650721,-0.00805676356145568,0.167727168688486
1580423750.93815,-0.986587319752804,-0.00659189745937283,0.167727168688486
1580423750.94215,-0.988052185854887,-0.00561532005798426,0.165774013885709
1580423750.94615,-0.991958495460441,-0.00610360875867855,0.165285725185015
1580423750.95015,-0.997329671168078,-0.00219729915312428,0.165774013885709
1580423750.95414,-0.99977111467155,-0.00415045395590141,0.158937972075989
1580423750.95814,-0.997817959868772,-0.00708018616006711,0.159914549477378
1580423750.96214,-0.998306248569467,-0.00415045395590141,0.157961394674601
1580423750.96614,-0.993911650263218,-0.00268558785381856,0.160891126878766
1580423750.97014,-0.99977111467155,-0.00366216525520713,0.163332570382238
1580423750.97414,-0.99635309376669,-0.00805676356145568,0.154055085069047
1580423750.97812,-0.995864805065995,-0.0114747844663157,0.155519951171129
1580423750.98212,-0.995376516365301,-0.00805676356145568,0.166750591287098
1580423750.98612,-0.993911650263218,-0.00512703135728998,0.161379415579461
1580423750.99011,-0.990005340657664,-0.00952162966353853,0.160891126878766
1580423750.99411,-0.987563897154192,-0.01196307316701,0.159914549477378
1580423750.99811,-0.987075608453498,-0.0168459601739528,0.160402838178072
1580423751.00211,-0.983657587548638,-0.0207522697795071,0.161379415579461
1580423751.00611,-0.984145876249332,-0.0158693827725642,0.158937972075989
1580423751.01011,-0.984634164950027,-0.0109864957656214,0.161379415579461
1580423751.01411,-0.987563897154192,-0.00659189745937283,0.159914549477378
1580423751.01811,-0.98951705195697,-0.00219729915312428,0.158937972075989
1580423751.0221,-0.990981918059052,-0.00512703135728998,0.156496528572518
1580423751.0261,-0.995864805065995,-0.000732433051041426,0.160402838178072
1580423751.0301,-1.00123598077363,-0.00170901045242999,0.157473105973907
1580423751.0341,-0.997329671168078,-0.00854505226214997,0.157473105973907
1580423751.0381,-0.99977111467155,-0.00610360875867855,0.155031662470435
1580423751.0421,-0.994399938963912,-0.0046387426565957,0.152101930266269
1580423751.0461,-0.995864805065995,-0.00268558785381856,0.164797436484321
1580423751.0501,-0.997817959868772,-0.000244144350347142,0.159914549477378
1580423751.0541,-0.992446784161135,-0.000732433051041426,0.160402838178072
1580423751.0581,-0.993423361562524,-0.00219729915312428,0.159426260776684
1580423751.0621,-0.988052185854887,-0.000732433051041426,0.155519951171129
1580423751.0661,-0.990493629358358,0.00219729915312428,0.160402838178072
1580423751.0701,-0.98951705195697,0.0075684748607614,0.153078507667658
1580423751.0741,-0.993423361562524,0.0129396505683985,0.161379415579461
1580423751.0781,-0.995864805065995,0.0139162279697871,0.154055085069047
1580423751.0821,-1.00270084687572,0.0192874036774242,0.156984817273212
1580423751.0861,-1.00025940337224,0.0227054245822842,0.154543373769741
1580423751.0901,-1.00221255817502,0.0227054245822842,0.163820859082932
1580423751.09409,-0.998794537270161,0.0314946211947813,0.167727168688486
1580423751.09809,-0.990981918059052,0.034424353398947,0.171145189593346
1580423751.10209,-0.990005340657664,0.031006332494087,0.179446097505149
1580423751.10609,-0.990981918059052,0.0324711985961699,0.178469520103761
1580423751.11009,-0.988540474555581,0.0266117341878385,0.178957808804455
1580423751.11409,-0.985610742351415,0.027588311589227,0.182375829709315
1580423751.11809,-0.990981918059052,0.0324711985961699,0.173098344396124
1580423751.12208,-0.993911650263218,0.0290531776913099,0.160402838178072
1580423751.12608,-0.990005340657664,0.0324711985961699,0.160402838178072
1580423751.13008,-0.993423361562524,0.037842374303807,0.160402838178072
1580423751.13408,-0.997817959868772,0.0373540856031127,0.155519951171129
1580423751.13806,-0.998306248569467,0.0397955291065841,0.155519951171129
1580423751.14206,-0.995864805065995,0.0383306630045013,0.146242465857938
1580423751.14606,-0.996841382467384,0.0368657969024184,0.151125352864881
1580423751.15006,-0.998306248569467,0.0393072404058898,0.152101930266269
1580423751.15406,-0.997817959868772,0.0319829098954756,0.148195620660715
1580423751.15805,-0.998794537270161,0.0290531776913099,0.152590218966964
1580423751.16205,-0.997329671168078,0.0295414663920042,0.149660486762798
1580423751.16605,-0.996841382467384,0.0217288471808956,0.152101930266269
1580423751.17005,-0.995376516365301,0.0173342488746471,0.164797436484321
1580423751.17405,-0.997817959868772,0.0134279392690928,0.167727168688486
1580423751.17805,-0.997817959868772,0.00659189745937283,0.167238879987792
1580423751.18205,-0.99293507286183,-0.00170901045242999,0.167727168688486
1580423751.18605,-0.991958495460441,0.00122072175173571,0.158937972075989
1580423751.19004,-0.993423361562524,0.000244144350347142,0.160891126878766
1580423751.19404,-0.991470206759747,0.0075684748607614,0.171145189593346
1580423751.19804,-0.987563897154192,0.00903334096284425,0.163332570382238
1580423751.20204,-0.987075608453498,0.01196307316701,0.167238879987792
1580423751.20604,-0.988540474555581,0.0192874036774242,0.164797436484321
1580423751.21004,-0.990005340657664,0.0251468680857556,0.160891126878766
1580423751.21404,-0.990981918059052,0.0256351567864499,0.163332570382238
1580423751.21805,-0.990981918059052,0.034424353398947,0.152101930266269
1580423751.22205,-0.988540474555581,0.0393072404058898,0.157473105973907
1580423751.22604,-0.990493629358358,0.0451667048142212,0.164797436484321
1580423751.23004,-0.989028763256275,0.048096437018387,0.156496528572518
1580423751.23404,-0.98609903105211,0.0417486839093613,0.161867704280155
1580423751.23804,-0.987075608453498,0.0383306630045013,0.166262302586404
1580423751.24204,-0.98609903105211,0.0271000228885327,0.166262302586404
1580423751.24604,-0.985610742351415,0.0207522697795071,0.171633478294041
1580423751.25004,-0.990981918059052,0.0192874036774242,0.172121766994735
1580423751.25404,-0.98951705195697,0.0173342488746471,0.169680323491264
1580423751.25803,-0.993423361562524,0.0168459601739528,0.176028076600289
1580423751.26203,-0.997329671168078,0.0183108262760356,0.171633478294041
1580423751.26603,-1.00172426947433,0.0144045166704814,0.169192034790569
1580423751.27003,-1.00123598077363,0.0183108262760356,0.173586633096818
1580423751.27403,-0.99977111467155,0.0158693827725642,0.166262302586404
1580423751.27803,-0.995376516365301,0.01196307316701,0.167238879987792
1580423751.28203,-0.99293507286183,0.00805676356145568,0.162355992980849
1580423751.28603,-0.98609903105211,0.0178225375753414,0.161379415579461
1580423751.29002,-0.980239566643778,0.0329594872968642,0.163332570382238
1580423751.29402,-0.976333257038224,0.041260395208667,0.162844281681544
1580423751.298,-0.974868390936141,0.0383306630045013,0.162844281681544
1580423751.302,-0.978774700541695,0.0358892195010299,0.175051499198901
1580423751.306,-0.981704432745861,0.0358892195010299,0.187747005416952
1580423751.31,-0.983657587548638,0.0300297550926985,0.181887541008621
1580423751.314,-0.991470206759747,0.0236820019836728,0.172610055695429
1580423751.318,-0.998794537270161,0.0202639810788128,0.171145189593346
1580423751.322,-1.00611886778058,0.0178225375753414,0.165774013885709
1580423751.32599,-1.01002517738613,0.0280766002899213,0.172610055695429
1580423751.32999,-1.00904859998474,0.0280766002899213,0.177492942702372
1580423751.33399,-1.00074769207294,0.0290531776913099,0.171633478294041
1580423751.33799,-0.996841382467384,0.0280766002899213,0.168215457389181
1580423751.34199,-0.990493629358358,0.0266117341878385,0.167238879987792
1580423751.34599,-0.987563897154192,0.0261234454871442,0.171633478294041
1580423751.34999,-0.988540474555581,0.0227054245822842,0.174563210498206
1580423751.35399,-0.991470206759747,0.0168459601739528,0.174074921797512
1580423751.35799,-0.994399938963912,0.00952162966353853,0.173098344396124
1580423751.36198,-0.997329671168078,0.0139162279697871,0.176028076600289
1580423751.36598,-0.995864805065995,0.0173342488746471,0.167238879987792
1580423751.36998,-0.99635309376669,0.0266117341878385,0.162844281681544
1580423751.37398,-0.99293507286183,0.0334477759975584,0.159914549477378
1580423751.37799,-0.993423361562524,0.0314946211947813,0.162844281681544
1580423751.38199,-1.00025940337224,0.031006332494087,0.170656900892652
1580423751.38599,-1.00514229037919,0.0261234454871442,0.171145189593346
1580423751.38999,-1.00660715648127,0.0192874036774242,0.184328984512092
1580423751.39399,-1.00514229037919,0.01196307316701,0.181887541008621
1580423751.39798,-0.998794537270161,0.0134279392690928,0.171633478294041
1580423751.40198,-0.990981918059052,0.0187991149767299,0.161867704280155
1580423751.40598,-0.981704432745861,0.0246585793850613,0.147707331960021
1580423751.40998,-0.97926298924239,0.0319829098954756,0.146242465857938
1580423751.41398,-0.976821545738918,0.0402838178072784,0.150637064164187
1580423751.41798,-0.979751277943084,0.0422369726100555,0.152101930266269
1580423751.42198,-0.982192721446555,0.0407721065079727,0.157961394674601
1580423751.42597,-0.988540474555581,0.0358892195010299,0.170656900892652
1580423751.42997,-0.997817959868772,0.0256351567864499,0.174563210498206
1580423751.43397,-1.00514229037919,0.0153810940718699,0.162355992980849
1580423751.43797,-1.0124666208896,-0.000244144350347142,0.152101930266269
1580423751.44197,-1.01881437399863,-0.000244144350347142,0.150637064164187
1580423751.44597,-1.0295567254139,0.00610360875867855,0.164797436484321
1580423751.44997,-1.04029907682918,0.0163576714732585,0.168703746089875
1580423751.45397,-1.0471351186389,0.0148928053711757,0.173586633096818
1580423751.45795,-1.05055313954376,0.0246585793850613,0.188235294117646
1580423751.46194,-1.04420538643473,0.0236820019836728,0.180422674906538
1580423751.46594,-1.03053330281529,0.0246585793850613,0.173098344396124
1580423751.46994,-1.02223239490349,0.0329594872968642,0.160891126878766
1580423751.47394,-1.00660715648127,0.0349126420996413,0.149172198062104
1580423751.47794,-0.995376516365301,0.0324711985961699,0.137941557946135
1580423751.48194,-0.987075608453498,0.0305180437933927,0.120363164721141
1580423751.48594,-0.991958495460441,0.0319829098954756,0.128664072632944
1580423751.48994,-1.00025940337224,0.0300297550926985,0.143801022354467
1580423751.49393,-1.01051346608682,0.0173342488746471,0.170656900892652
1580423751.49793,-1.0124666208896,-0.00610360875867855,0.174563210498206
1580423751.50193,-1.00953688868544,-0.0393072404058898,0.181887541008621
1580423751.50593,-1.00270084687572,-0.0852063782711525,0.190676737621118
1580423751.50993,-0.991470206759747,-0.138429846646829,0.186282139314869
1580423751.51393,-0.977798123140307,-0.181399252307926,0.207766842145418
1580423751.51793,-0.965102616922255,-0.217532616159303,0.231204699778743
1580423751.52193,-0.956801709010453,-0.251712825207905,0.255130846112763
1580423751.52592,-0.961196307316701,-0.282963302052339,0.275638971541923
1580423751.52992,-0.965102616922255,-0.310795757991913,0.289311055161363
1580423751.53392,-0.978774700541695,-0.332768749523156,0.285404745555809
1580423751.53793,-0.987075608453498,-0.35376516365301,0.269779507133592
1580423751.54193,-0.993423361562524,-0.351812008850233,0.262943465323872
1580423751.54593,-0.99977111467155,-0.338139925230793,0.264408331425955
1580423751.54993,-1.00660715648127,-0.303959716182193,0.255130846112763
1580423751.55393,-1.00856031128405,-0.260013733119708,0.23657587548638
1580423751.55793,-1.00172426947433,-0.193606469825284,0.217532616159303
1580423751.56193,-1.0036774242771,-0.108155947203784,0.211184863050278
1580423751.56592,-1.00172426947433,-0.0129396505683985,0.195559624628061
1580423751.56992,-0.997817959868772,0.077393759060044,0.189700160219729
1580423751.57392,-0.990493629358358,0.148683909361409,0.181887541008621
1580423751.57792,-0.988540474555581,0.194094758525978,0.179934386205844
1580423751.58192,-0.984634164950027,0.205813687342641,0.176028076600289
1580423751.58592,-0.988052185854887,0.197024490730143,0.171145189593346
1580423751.58992,-0.99293507286183,0.169680323491264,0.161867704280155
1580423751.59392,-0.995376516365301,0.133546959639887,0.133546959639887
1580423751.59791,-0.994888227664607,0.103273060196841,0.100343327992675
1580423751.60191,-0.978774700541695,0.0930189974822611,0.073975738155184
1580423751.60591,-0.963637750820173,0.10424963759823,0.0598153658350498
1580423751.60991,-0.948012512397955,0.11108567940795,0.0568856336308841
1580423751.61391,-0.916762035553521,0.115480277714198,0.0578622110322726
1580423751.61789,-0.88697642481117,0.102296482795452,0.0583504997329669
1580423751.62189,-0.864026855878539,0.0759288929579611,0.0817883573662925
1580423751.62589,-0.858655680170902,0.0427252613107498,0.109620813305867
1580423751.62988,-0.861097123674373,0.000732433051041426,0.141847867551689
1580423751.63388,-0.858655680170902,-0.0427252613107498,0.177981231403066
1580423751.63788,-0.851331349660487,-0.0930189974822611,0.181399252307926
1580423751.64188,-0.831799801632716,-0.141359578850995,0.163820859082932
1580423751.64588,-0.809826810101473,-0.203860532539863,0.143801022354467
1580423751.64988,-0.812756542305639,-0.252201113908599,0.135011825741969
1580423751.65388,-0.826428625925079,-0.300053406576639,0.131593804837109
1580423751.65788,-0.848401617456322,-0.330327306019685,0.128175783932249
1580423751.66188,-0.870374608987564,-0.35718318455787,0.122316319523918
1580423751.66587,-0.88697642481117,-0.397222858014802,0.122316319523918
1580423751.66987,-0.905531395437553,-0.442145418478676,0.124269474326695
1580423751.67387,-0.930922407873656,-0.484138246738384,0.115480277714198
1580423751.67787,-0.966079194323644,-0.486091401541161,0.104737926298924
1580423751.68187,-0.999282825970855,-0.431403067063401,0.11450370031281
1580423751.68587,-1.00611886778058,-0.33667505912871,0.128175783932249
1580423751.68987,-0.986587319752804,-0.248783093003738,0.151125352864881
1580423751.69386,-0.952895399404898,-0.197512779430838,0.162844281681544
1580423751.69788,-0.92799267566949,-0.181887541008621,0.176516365300984
1580423751.70187,-0.91090257114519,-0.196047913328755,0.186770428015564
1580423751.70587,-0.905531395437553,-0.245853360799572,0.190188448920424
1580423751.70987,-0.914808880750744,-0.302006561379416,0.184328984512092
1580423751.71387,-0.925062943465324,-0.354741741054399,0.160402838178072
1580423751.71787,-0.935317006179904,-0.382574196993973,0.127687495231555
1580423751.72187,-0.949477378500038,-0.382085908293279,0.114015411612115
1580423751.72587,-0.969497215228504,-0.340581368734265,0.0983901731898982
1580423751.72987,-0.980727855344472,-0.267338063630122,0.080811779964904
1580423751.73386,-0.982192721446555,-0.175539787899595,0.0798352025635154
1580423751.73786,-0.964614328221561,-0.0749523155565726,0.117433432516975
1580423751.74186,-0.948989089799344,0.0134279392690928,0.153566796368352
1580423751.74586,-0.918226901655604,0.0354009308003356,0.144289311055161
1580423751.74986,-0.879163805600061,-0.0290531776913099,0.103761348897535
1580423751.75386,-0.851331349660487,-0.173586633096818,0.0578622110322726
1580423751.75786,-0.85279621576257,-0.325932707713436,0.027588311589227
1580423751.76186,-0.877210650797284,-0.453376058594644,0.0144045166704814
1580423751.76585,-0.902601663233387,-0.560799572747387,-0.0285648889906156
1580423751.76985,-0.923109788662547,-0.655039291981383,-0.063721675440604
1580423751.77385,-0.93824673838407,-0.733165484092469,-0.105714503700312
1580423751.77783,-0.945571068894484,-0.790783550774396,-0.140871290150301
1580423751.78183,-0.942641336690318,-0.823010605020219,-0.182375829709315
1580423751.78583,-0.934340428778516,-0.80836194399939,-0.201419089036392
1580423751.78983,-0.92115663385977,-0.746837567711909,-0.169192034790569
1580423751.79383,-0.90748455024033,-0.661387045090409,-0.105714503700312
1580423751.79782,-0.880628671702144,-0.590096894789044,-0.0646982528419926
1580423751.80182,-0.836682688639659,-0.550057221332112,-0.0656748302433812
1580423751.80582,-0.805920500495919,-0.532478828107118,-0.0754406042572668
1580423751.80982,-0.795178149080645,-0.523689631494621,-0.11792172121767
1580423751.81382,-0.803479056992447,-0.509040970473793,-0.134523537041275
1580423751.81782,-0.82545204852369,-0.485114824139773,-0.145754177157244
1580423751.82182,-0.841565575646602,-0.475837338826581,-0.203860532539863
1580423751.82582,-0.881116960402839,-0.493415732051576,-0.0891126878767068
1580423751.82981,-0.957289997711147,-0.485114824139773,-0.0593270771343555
1580423751.83381,-0.97242694743267,-0.509040970473793,-0.143312733653772
1580423751.83781,-0.997817959868772,-0.550545510032807,-0.148195620660715
1580423751.84181,-1.02662699320974,-0.556404974441138,-0.120851453421835
1580423751.84581,-1.05348287174792,-0.532478828107118,-0.106202792401007
1580423751.84981,-1.08180361638819,-0.467048142214084,-0.0954604409857325
1580423751.85381,-1.1067063401236,-0.377203021286336,-0.0817883573662925
1580423751.85782,-1.08180361638819,-0.33325703822385,-0.12133974212253
1580423751.86182,-1.03688105592432,-0.365972381170367,-0.167727168688486
1580423751.86582,-1.01832608529793,-0.420660715648127,-0.185793850614175
1580423751.86981,-1.02613870450904,-0.441657129777981,-0.169680323491264
1580423751.87381,-1.0378576333257,-0.434821087968261,-0.166750591287098
1580423751.87781,-1.01197833218891,-0.431403067063401,-0.221438925764858
1580423751.88181,-0.958266575112535,-0.462165255207141,-0.237552452887769
1580423751.88581,-0.933852140077821,-0.475349050125887,-0.221927214465552
1580423751.88981,-0.940688181887541,-0.461676966506447,-0.186282139314869
1580423751.89381,-0.954848554207675,-0.44605172808423,-0.193118181124589
1580423751.89781,-0.943617914091707,-0.451911192492561,-0.222415503166246
1580423751.9018,-0.932875562676433,-0.46655985351339,-0.196536202029449
1580423751.9058,-0.935805294880598,-0.485603112840467,-0.165774013885709
1580423751.9098,-0.945571068894484,-0.499763485160601,-0.145265888456549
1580423751.9138,-0.933852140077821,-0.519783321889067,-0.146242465857938
1580423751.9178,-0.924086366063936,-0.543709468223087,-0.130128938735027
1580423751.9218,-0.918226901655604,-0.554940108339055,-0.147219043259327
1580423751.9258,-0.907972838941024,-0.562752727550164,-0.171633478294041
1580423751.9298,-0.898207064927139,-0.540291447318227,-0.169192034790569
1580423751.93379,-0.883070115205616,-0.495368886854353,-0.170656900892652
1580423751.93777,-0.86988632028687,-0.454840924696727,-0.206301976043335
1580423751.94177,-0.859143968871596,-0.42896162355993,-0.257084000915542
1580423751.94577,-0.856702525368124,-0.40845349813077,-0.248294804303043
1580423751.94977,-0.86988632028687,-0.38794537270161,-0.234622720683603
1580423751.95377,-0.889906157015336,-0.390386816205082,-0.213138017853055
1580423751.95777,-0.91773861295491,-0.395757991912719,-0.205813687342641
1580423751.96177,-0.936293583581293,-0.410406652933547,-0.207278553444723
1580423751.96577,-0.944594491493095,-0.435309376668956,-0.227298390173189
1580423751.96976,-0.944106202792401,-0.463630121309224,-0.223880369268329
1580423751.97376,-0.95533684290837,-0.472907606622416,-0.192629892423895
1580423751.97776,-0.940199893186847,-0.483161669336996,-0.179934386205844
1580423751.98176,-0.926527809567407,-0.51099412527657,-0.157473105973907
1580423751.98576,-0.919203479056993,-0.536385137712672,-0.137453269245441
1580423751.98976,-0.918226901655604,-0.544197756923781,-0.105714503700312
1580423751.99376,-0.909925993743801,-0.544197756923781,-0.024170290684367
1580423751.99776,-0.871839475089647,-0.558358129243915,-0.135988403143358
1580423752.00175,-0.835217822537576,-0.582772564278629,-0.0368657969024184
1580423752.00575,-0.830334935530633,-0.55884641794461,-0.0676279850461583
1580423752.00975,-0.812268253604945,-0.581795986877241,-0.0197756923781185
1580423752.01375,-0.810803387502862,-0.567147325856412,-0.0129396505683985
1580423752.01776,-0.818127718013276,-0.551033798733501,0.00610360875867855
1580423752.02176,-0.827405203326467,-0.525154497596704,-0.00219729915312428
1580423752.02576,-0.837659266041047,-0.496833752956436,0.0339360646982527
1580423752.02976,-0.853772793163959,-0.471442740520333,0.0451667048142212
1580423752.03376,-0.875745784695201,-0.46314183260853,0.0617685206378269
1580423752.03776,-0.914808880750744,-0.468513008316167,0.0612802319371326
1580423752.04175,-0.95533684290837,-0.478767071030747,0.0690928511482412
1580423752.04575,-0.98951705195697,-0.475349050125887,0.0568856336308841
1580423752.04975,-1.01100175478752,-0.461676966506447,0.0520027466239412
1580423752.05375,-1.01393148699168,-0.43921568627451,0.0144045166704814
1580423752.05775,-0.986587319752804,-0.41870756084535,-0.037842374303807
1580423752.06175,-0.950942244602121,-0.412359807736324,-0.0656748302433812
1580423752.06575,-0.91773861295491,-0.397711146715496,-0.0827649347676811
1580423752.06974,-0.888441290913253,-0.397711146715496,-0.10083161669337
1580423752.07374,-0.867933165484093,-0.38110933089189,-0.0954604409857325
1580423752.07774,-0.860120546272984,-0.363530937666896,-0.0886243991760125
1580423752.08174,-0.841077286945907,-0.360112916762036,-0.0661631189440754
1580423752.08574,-0.83228809033341,-0.363042648966202,-0.0695811398489354
1580423752.08974,-0.829846646829939,-0.378179598687725,-0.080811779964904
1580423752.09374,-0.831311512932022,-0.399664301518273,-0.0891126878767068
1580423752.09772,-0.83912413214313,-0.414801251239796,-0.110109102006561
1580423752.10172,-0.842053864347296,-0.419195849546044,-0.141359578850995
1580423752.10571,-0.84596017395285,-0.414801251239796,-0.167238879987792
1580423752.10971,-0.833264667734799,-0.390875104905776,-0.190676737621118
1580423752.11371,-0.823010605020219,-0.364507515068285,-0.203372243839169
1580423752.11771,-0.82545204852369,-0.328862439917602,-0.229251544975966
1580423752.12171,-0.817639429312582,-0.304448004882888,-0.244388494697489
1580423752.12571,-0.811291676203556,-0.302983138780805,-0.24682993820096
1580423752.12971,-0.821545738918136,-0.314213778896773,-0.237552452887769
1580423752.13371,-0.832776379034105,-0.331792172121768,-0.244388494697489
1580423752.1377,-0.846936751354239,-0.350835431448845,-0.244876783398183
1580423752.1417,-0.862073701075762,-0.365484092469673,-0.242435339894712
1580423752.1457,-0.880628671702144,-0.355718318455787,-0.229251544975966
1580423752.1497,-0.900160219729916,-0.337651636530099,-0.210208285648889
1580423752.1537,-0.922621499961853,-0.334233615625239,-0.207278553444723
1580423752.1577,-0.953871976806287,-0.346440833142596,-0.213138017853055
1580423752.1617,-0.988052185854887,-0.367925535973145,-0.196536202029449
1580423752.1657,-1.01832608529793,-0.376714732585642,-0.180422674906538
1580423752.16969,-1.03443961242084,-0.369390402075227,-0.164309147783626
1580423752.17369,-1.03541618982223,-0.352300297550928,-0.162844281681544
1580423752.1777,-1.02320897230488,-0.338139925230793,-0.166750591287098
1580423752.1817,-1.00904859998474,-0.325932707713436,-0.164309147783626
1580423752.1857,-1.00611886778058,-0.304936293583582,-0.167727168688486
1580423752.1897,-0.997817959868772,-0.281498435950256,-0.151125352864881
1580423752.1937,-0.98609903105211,-0.272709239337759,-0.156984817273212
1580423752.1977,-0.980727855344472,-0.291752498664836,-0.151613641565575
1580423752.2017,-0.980239566643778,-0.305912870984971,-0.145754177157244
1580423752.20569,-0.964126039520867,-0.339116502632182,-0.153078507667658
1580423752.20969,-0.937270160982681,-0.384039063096056,-0.146242465857938
1580423752.21369,-0.912855725947967,-0.437262531471733,-0.132082093537804
1580423752.21769,-0.891859311818113,-0.482185091935607,-0.0881361104753182
1580423752.22169,-0.867933165484093,-0.516365300984207,-0.0261234454871442
1580423752.22569,-0.839612420843824,-0.54175631342031,0.0104982070649271
1580423752.22969,-0.817151140611887,-0.553475242236972,0.034424353398947
1580423752.23369,-0.800549324788282,-0.548104066529335,0.0339360646982527
1580423752.23768,-0.795178149080645,-0.52124818799115,-0.00366216525520713
1580423752.24168,-0.798596169985505,-0.48023193713283,-0.0422369726100555
1580423752.24568,-0.814221408407722,-0.432867933165484,-0.0988784618905925
1580423752.24968,-0.851331349660487,-0.387457084000916,-0.145754177157244
1580423752.25368,-0.890882734416724,-0.348882276646068,-0.193118181124589
1580423752.25766,-0.925551232166018,-0.321538109407188,-0.224856946669718
1580423752.26166,-0.95875486381323,-0.305424582284276,-0.23999389639124
1580423752.26566,-0.984145876249332,-0.317143511100939,-0.258060578316931
1580423752.26966,-1.00025940337224,-0.331303883421073,-0.256595712214848
1580423752.27365,-1.00221255817502,-0.348882276646068,-0.247318226901655
1580423752.27765,-0.98268101014725,-0.371831845578699,-0.219974059662775
1580423752.28165,-0.946059357595178,-0.393316548409247,-0.192141603723201
1580423752.28565,-0.905043106736859,-0.420172426947433,-0.166750591287098
1580423752.28965,-0.86646829938201,-0.438727397573816,-0.132082093537804
1580423752.29365,-0.837659266041047,-0.458258945601587,-0.109620813305867
1580423752.29765,-0.821545738918136,-0.472419317921721,-0.0896009765774011
1580423752.30165,-0.820569161516747,-0.468513008316167,-0.0983901731898982
1580423752.30564,-0.825940337224385,-0.462653543907836,-0.113527122911421
1580423752.30964,-0.844495307850767,-0.436285954070344,-0.140871290150301
1580423752.31364,-0.873792629892424,-0.406500343327993,-0.184328984512092
1580423752.31764,-0.908949416342413,-0.365484092469673,-0.221438925764858
1580423752.32164,-0.943617914091707,-0.311284046692608,-0.258060578316931
1580423752.32564,-0.964614328221561,-0.284428168154422,-0.283939879453728
1580423752.32964,-0.990493629358358,-0.281986724650951,-0.299565117875945
1580423752.33364,-1.01149004348821,-0.295170519569696,-0.308842603189136
1580423752.33765,-1.01881437399863,-0.319096665903716,-0.304936293583582
1580423752.34165,-1.01979095140002,-0.35034714274815,-0.291752498664836
1580423752.34564,-1.01051346608682,-0.376714732585642,-0.296635385671779
1580423752.34964,-0.985610742351415,-0.386968795300222,-0.280521858548868
1580423752.35364,-0.960708018616007,-0.387457084000916,-0.280521858548868
1580423752.35764,-0.933363851377127,-0.388921950102999,-0.272709239337759
1580423752.36164,-0.924086366063936,-0.388921950102999,-0.254154268711376
1580423752.36564,-0.936781872281987,-0.379156176089113,-0.23315785458152
1580423752.36964,-0.960219729915313,-0.359624628061342,-0.219974059662775
1580423752.37363,-0.973891813534753,-0.345464255741208,-0.219974059662775
1580423752.37763,-0.987075608453498,-0.343999389639125,-0.234134431982909
1580423752.38163,-0.985122453650721,-0.359136339360647,-0.238040741588463
1580423752.38563,-0.977309834439613,-0.374761577782865,-0.241947051194018
1580423752.38963,-0.96559090562295,-0.383550774395362,-0.232669565880826
1580423752.39363,-0.946059357595178,-0.387457084000916,-0.231204699778743
1580423752.39763,-0.92799267566949,-0.382574196993973,-0.217044327458609
1580423752.40163,-0.907972838941024,-0.366460669871062,-0.218020904859998
1580423752.40562,-0.881605249103533,-0.358159761959259,-0.212161440451666
1580423752.40962,-0.855237659266042,-0.371831845578699,-0.197024490730143
1580423752.41362,-0.836682688639659,-0.397222858014802,-0.181399252307926
1580423752.4176,-0.846936751354239,-0.412848096437019,-0.164309147783626
1580423752.4216,-0.86646829938201,-0.409918364232853,-0.146242465857938
1580423752.4256,-0.885999847409781,-0.39136339360647,-0.175539787899595
1580423752.4296,-0.887953002212559,-0.394293125810636,-0.198001068131532
1580423752.4336,-0.890882734416724,-0.406500343327993,-0.216556038757915
1580423752.4376,-0.899671931029221,-0.425055313954376,-0.223392080567635
1580423752.44159,-0.914808880750744,-0.427496757457847,-0.211673151750972
1580423752.44559,-0.93482871747921,-0.413336385137713,-0.185793850614175
1580423752.44959,-0.945571068894484,-0.388921950102999,-0.166262302586404
1580423752.45359,-0.943129625391013,-0.368413824673839,-0.154055085069047
1580423752.45759,-0.938735027084764,-0.359136339360647,-0.152590218966964
1580423752.46159,-0.93141069657435,-0.364507515068285,-0.143801022354467
1580423752.46559,-0.933852140077821,-0.36401922636759,-0.128175783932249
1580423752.46959,-0.930922407873656,-0.352788586251622,-0.131105516136415
1580423752.47358,-0.918715190356298,-0.354741741054399,-0.140871290150301
1580423752.47758,-0.906507972838941,-0.354253452353705,-0.154543373769741
1580423752.48158,-0.901136797131304,-0.361089494163425,-0.171633478294041
1580423752.48558,-0.906996261539636,-0.354253452353705,-0.177004654001678
1580423752.48958,-0.930434119172961,-0.335698481727322,-0.178469520103761
1580423752.49358,-0.949965667200733,-0.314702067597468,-0.196047913328755
1580423752.49759,-0.96217288471809,-0.320561532005799,-0.211673151750972
1580423752.50159,-0.975356679636835,-0.348882276646068,-0.211184863050278
1580423752.50559,-0.995864805065995,-0.395269703212024,-0.198001068131532
1580423752.50958,-1.02418554970626,-0.451911192492561,-0.172121766994735
1580423752.51358,-1.04420538643473,-0.514900434882124,-0.175539787899595
1580423752.51758,-1.05006485084306,-0.575936522468909,-0.214602883955138
1580423752.52158,-1.03102159151598,-0.607675288014038,-0.258548867017625
1580423752.52558,-0.980727855344472,-0.584725719081407,-0.295658808270391
1580423752.52958,-0.915297169451438,-0.52466620889601,-0.266849774929428
1580423752.53358,-0.849866483558404,-0.437262531471733,-0.218997482261386
1580423752.53758,-0.805920500495919,-0.368902113374533,-0.148195620660715
1580423752.54157,-0.783947508964676,-0.330815594720379,-0.099855039291981
1580423752.54557,-0.771740291447319,-0.337651636530099,-0.073975738155184
1580423752.54957,-0.772716868848708,-0.366948958571756,-0.0334477759975584
1580423752.55357,-0.79127183947509,-0.406500343327993,-0.0168459601739528
1580423752.55757,-0.81177996490425,-0.444586861982147,0.00415045395590141
1580423752.56157,-0.843030441748684,-0.481208514534218,0.0173342488746471
1580423752.56557,-0.86646829938201,-0.513435568780041,0.0148928053711757
1580423752.56957,-0.889417868314641,-0.52466620889601,0.0168459601739528
1580423752.57357,-0.906996261539636,-0.520271610589761,0.0334477759975584
1580423752.57754,-0.922133211261158,-0.508552681773098,0.0451667048142212
1580423752.58154,-0.928969253070878,-0.502204928664073,0.0539559014267184
1580423752.58554,-0.933363851377127,-0.509040970473793,0.0578622110322726
1580423752.58954,-0.942153047989624,-0.509529259174487,0.0764171816586554
1580423752.59354,-0.948012512397955,-0.505622949568933,0.102296482795452
1580423752.59754,-0.950942244602121,-0.507087815671015,0.127199206530861
1580423752.60154,-0.950942244602121,-0.511482413977264,0.146730754558632
1580423752.60554,-0.948989089799344,-0.520271610589761,0.161379415579461
1580423752.60953,-0.946059357595178,-0.519783321889067,0.161867704280155
1580423752.61353,-0.940199893186847,-0.510505836575875,0.142336156252384
1580423752.61753,-0.932387273975738,-0.488044556343938,0.118410009918364
1580423752.62153,-0.931898985275044,-0.454352635996033,0.103761348897535
1580423752.62553,-0.937758449683376,-0.412848096437019,0.0437018387121384
1580423752.62953,-0.941176470588236,-0.373785000381476,-0.0471198596169984
1580423752.63353,-0.933363851377127,-0.328374151216908,-0.0817883573662925
1580423752.63753,-0.944106202792401,-0.272709239337759,-0.048096437018387
1580423752.64153,-0.971450370031281,-0.227298390173189,-0.0163576714732585
1580423752.64552,-1.00123598077363,-0.204348821240558,0.00561532005798426
1580423752.64952,-1.02467383840696,-0.218509193560692,0.0319829098954756
1580423752.65352,-1.04859998474098,-0.258548867017625,0.067139696345464
1580423752.65753,-1.0642252231632,-0.303471427481499,0.0920424200808725
1580423752.66153,-1.06031891355764,-0.33667505912871,0.108644235904478
1580423752.66553,-1.03981078812848,-0.361577782864119,0.10766765850309
1580423752.66953,-1.00611886778058,-0.375738155184253,0.0935072861829553
1580423752.67353,-0.969985503929198,-0.375249866483559,0.0783703364614325
1580423752.67753,-0.935317006179904,-0.354253452353705,0.0612802319371326
1580423752.68152,-0.910414282444496,-0.334721904325933,0.0358892195010299
1580423752.68552,-0.888441290913253,-0.307866025787748,0.0178225375753414
1580423752.68952,-0.872816052491036,-0.287846189059282,0.00708018616006711
1580423752.69352,-0.865003433279927,-0.265873197528039,-0.0114747844663157
1580423752.69752,-0.86305027847715,-0.266849774929428,-0.027588311589227
1580423752.70152,-0.865491721980622,-0.271732661936371,-0.0427252613107498
1580423752.70552,-0.883070115205616,-0.287357900358588,-0.0490730144197755
1580423752.70951,-0.906507972838941,-0.301029983978028,-0.0437018387121384
1580423752.71351,-0.930922407873656,-0.317631799801633,-0.0266117341878385
1580423752.71751,-0.948989089799344,-0.333745326924545,-0.00561532005798426
1580423752.72151,-0.96559090562295,-0.349858854047456,0.00708018616006711
1580423752.72551,-0.978774700541695,-0.353276874952316,0.0139162279697871
1580423752.72951,-0.989028763256275,-0.34351110093843,0.0231937132829785
1580423752.73351,-0.990981918059052,-0.335210193026628,0.00561532005798426
1580423752.73749,-0.978774700541695,-0.325932707713436,-0.0295414663920042
1580423752.74149,-0.970473792629893,-0.306401159685665,-0.0476081483176927
1580423752.74548,-0.965102616922255,-0.266361486228734,-0.0451667048142212
1580423752.74948,-0.96559090562295,-0.221927214465552,-0.0295414663920042
1580423752.75348,-0.967544060425727,-0.181887541008621,-0.0314946211947813
1580423752.75748,-0.96900892652781,-0.160402838178072,-0.0363775082017241
1580423752.76148,-0.966567483024338,-0.157473105973907,-0.0256351567864499
1580423752.76548,-0.971938658731975,-0.160402838178072,-0.0178225375753414
1580423752.76948,-0.973403524834058,-0.163820859082932,-0.0158693827725642
1580423752.77348,-0.971450370031281,-0.173586633096818,-0.00805676356145568
1580423752.77747,-0.96559090562295,-0.179446097505149,-0.0144045166704814
1580423752.78147,-0.954848554207675,-0.185793850614175,-0.0197756923781185
1580423752.78547,-0.947035934996567,-0.193118181124589,-0.0202639810788128
1580423752.78947,-0.947524223697261,-0.205325398641946,-0.0109864957656214
1580423752.79347,-0.945571068894484,-0.214114595254443,-0.00219729915312428
1580423752.79747,-0.945571068894484,-0.230716411078049,0.00708018616006711
1580423752.80147,-0.945571068894484,-0.249759670405126,0.0104982070649271
1580423752.80547,-0.940688181887541,-0.267826352330816,0.0129396505683985
1580423752.80946,-0.942641336690318,-0.279056992446785,0.0139162279697871
1580423752.81346,-0.942153047989624,-0.289799343862059,0.0109864957656214
1580423752.81747,-0.948989089799344,-0.289311055161365,0.00561532005798426
1580423752.82147,-0.949477378500038,-0.278568703746091,-0.00561532005798426
1580423752.82547,-0.956801709010453,-0.266361486228734,-0.000732433051041426
1580423752.82947,-0.952407110704204,-0.24682993820096,-0.000244144350347142
1580423752.83347,-0.947524223697261,-0.220950637064163,0.00317387655451284
1580423752.83747,-0.938735027084764,-0.207278553444723,-0.00317387655451284
1580423752.84147,-0.94166475928893,-0.198489356832226,-0.00854505226214997
1580423752.84546,-0.942641336690318,-0.198977645532921,-0.0256351567864499
1580423752.84946,-0.951430533302815,-0.205813687342641,-0.0271000228885327
1580423752.85346,-0.963149462119478,-0.210696574349583,-0.0202639810788128
1580423752.85746,-0.980727855344472,-0.210696574349583,-0.0129396505683985
1580423752.86146,-0.993423361562524,-0.203372243839169,-0.00170901045242999
1580423752.86546,-1.00123598077363,-0.193606469825284,0.0109864957656214
1580423752.86946,-1.00318913557641,-0.189211871519035,0.0075684748607614
1580423752.87346,-0.991958495460441,-0.191165026321812,-0.0158693827725642
1580423752.87745,-0.98609903105211,-0.193118181124589,-0.0134279392690928
1580423752.88145,-0.974380102235447,-0.189211871519035,-0.0129396505683985
1580423752.88545,-0.957289997711147,-0.185793850614175,-0.0114747844663157
1580423752.88945,-0.933363851377127,-0.187258716716258,-0.0207522697795071
1580423752.89345,-0.900160219729916,-0.201419089036392,-0.0261234454871442
1580423752.89746,-0.871839475089647,-0.222903791866941,-0.0124513618677042
1580423752.90146,-0.869398031586176,-0.247806515602349,-0.000732433051041426
1580423752.90546,-0.878187228198673,-0.262455176623179,0.0173342488746471
1580423752.90946,-0.894300755321584,-0.271732661936371,0.0397955291065841
1580423752.91346,-0.909925993743801,-0.280033569848174,0.0466315709163041
1580423752.91745,-0.914808880750744,-0.295658808270391,0.0485847257190812
1580423752.92145,-0.912855725947967,-0.308354314488442,0.034424353398947
1580423752.92545,-0.913832303349356,-0.318120088502328,0.0271000228885327
1580423752.92945,-0.917250324254216,-0.326909285114825,0.0104982070649271
1580423752.93345,-0.923109788662547,-0.316655222400245,0.00415045395590141
1580423752.93745,-0.934340428778516,-0.295170519569696,-0.0104982070649271
1580423752.94145,-0.946547646295873,-0.260990310521096,-0.0227054245822842
1580423752.94545,-0.961196307316701,-0.224856946669718,-0.0202639810788128
1580423752.94944,-0.976821545738918,-0.175539787899595,-0.000732433051041426
1580423752.95344,-0.995376516365301,-0.129640650034332,-0.0183108262760356
1580423752.95744,-1.00123598077363,-0.108644235904478,-0.067139696345464
1580423752.96144,-0.997329671168078,-0.136964980544747,-0.113527122911421
1580423752.96544,-1.00904859998474,-0.196536202029449,-0.126222629129472
1580423752.96944,-1.04518196383612,-0.265384908827345,-0.113038834210727
1580423752.97344,-1.06569008926528,-0.332280460822462,-0.0910658426794839
1580423752.97742,-1.06715495536736,-0.390875104905776,-0.0769054703593497
1580423752.98142,-1.05055313954376,-0.448004882887007,-0.0788586251621268
1580423752.98541,-1.03199816891737,-0.477790493629358,-0.0754406042572668
1580423752.98941,-1.00807202258335,-0.48023193713283,-0.0661631189440754
1580423752.99341,-0.975356679636835,-0.452399481193256,-0.0588387884336612
1580423752.99741,-0.963637750820173,-0.400152590218967,-0.0427252613107498
1580423753.00141,-0.949965667200733,-0.331303883421073,-0.0583504997329669
1580423753.00541,-0.93141069657435,-0.290775921263448,-0.102296482795452
1580423753.00941,-0.928480964370184,-0.286869611657893,-0.152101930266269
1580423753.0134,-0.95191882200351,-0.31958495460441,-0.175051499198901
1580423753.0174,-1.01588464179446,-0.327397573815519,-0.133546959639887
1580423753.0214,-1.09547570000763,-0.304448004882888,-0.102296482795452
1580423753.0254,-1.11598382543679,-0.297123674372473,-0.109132524605172
1580423753.0294,-1.10572976272221,-0.330815594720379,-0.134523537041275
1580423753.0334,-1.1150072480354,-0.391851682307164,-0.134035248340581
1580423753.0374,-1.149187457084,-0.434332799267567,-0.116945143816281
1580423753.0414,-1.16530098420691,-0.470954451819638,-0.125734340428778
1580423753.04539,-1.15260547798886,-0.52466620889601,-0.178957808804455
1580423753.04939,-1.14283970397497,-0.581307698176547,-0.201907377737086
1580423753.05339,-1.17164873731594,-0.610116731517509,-0.188723582818341
1580423753.0574,-1.20289921416037,-0.599374380102235,-0.169680323491264
1580423753.0614,-1.19801632715343,-0.559822995345998,-0.168215457389181
1580423753.0654,-1.18190280003052,-0.522713054093233,-0.176516365300984
1580423753.0694,-1.16676585030899,-0.489509422446021,-0.217044327458609
1580423753.0734,-1.15992980849927,-0.465583276112001,-0.246341649500266
1580423753.0774,-1.17262531471733,-0.455329213397421,-0.276127260242619
1580423753.0814,-1.21364156557565,-0.445563439383536,-0.242923628595406
1580423753.08539,-1.29518577859159,-0.426520180056459,-0.215579461356526
1580423753.08939,-1.36940566109712,-0.388921950102999,-0.242435339894712
1580423753.09339,-1.40798046845197,-0.343999389639125,-0.234622720683603
1580423753.09739,-1.42800030518044,-0.294682230869002,-0.256107423514154
1580423753.10139,-1.43874265659571,-0.274174105439842,-0.362554360265507
1580423753.10539,-1.47145799954223,-0.292729076066225,-0.410406652933547
1580423753.10939,-1.54567788204776,-0.285404745555811,-0.433356221866179
1580423753.11339,-1.61745632104982,-0.239017318989852,-0.473884184023804
1580423753.11738,-1.64724193179217,-0.153566796368352,-0.50074006256199
1580423753.12138,-1.64284733348592,-0.0827649347676811,-0.500251773861295
1580423753.12538,-1.64235904478523,-0.0202639810788128,-0.498786907759213
1580423753.12938,-1.65505455100328,0.0202639810788128,-0.49732204165713
1580423753.13338,-1.66628519111925,0.0192874036774242,-0.498786907759213
1580423753.13736,-1.67800411993591,0.00561532005798426,-0.532967116807813
1580423753.14136,-1.66677347981994,0.0266117341878385,-0.564217593652247
1580423753.14536,-1.63015182726787,0.0495613031204698,-0.615976195925841
1580423753.14936,-1.57741664759289,0.0720225833524069,-0.641367208361943
1580423753.15335,-1.55837338826581,0.108155947203784,-0.616952773327229
1580423753.15735,-1.52907606622415,0.141359578850995,-0.627206836041809
1580423753.16135,-1.46706340123598,0.122316319523918,-0.661875333791103
1580423753.16535,-1.38747234302281,0.0759288929579611,-0.7219348439765
1580423753.16935,-1.33034256504158,0.0114747844663157,-0.757579919127185
1580423753.17335,-1.30690470740826,-0.0144045166704814,-0.739513237201495
1580423753.17735,-1.30104524299992,-0.00317387655451284,-0.651621271076523
1580423753.18135,-1.2693064774548,-0.00415045395590141,-0.578377965972381
1580423753.18534,-1.21852445258259,-0.0646982528419926,-0.543221179522392
1580423753.18934,-1.17360189211871,-0.216067750057221,-0.569588769359884
1580423753.19334,-1.14283970397497,-0.386480506599527,-0.571053635461967
1580423753.19734,-1.11696040283818,-0.508064393072404,-0.591073472190432
1580423753.20134,-1.07057297627222,-0.592538338292515,-0.644296940566109
1580423753.20534,-0.992446784161135,-0.676035706111238,-0.698496986343175
1580423753.20934,-0.895277332722973,-0.726329442282749,-0.768322270542459
1580423753.21334,-0.827405203326467,-0.734630350194552,-0.786877241168842
1580423753.21731,-0.795178149080645,-0.713145647364003,-0.716075379568169
1580423753.22131,-0.80494392309453,-0.654062714579995,-0.615487907225146
1580423753.22531,-0.848889906157016,-0.554451819638361,-0.397222858014802
1580423753.22931,-0.910414282444496,-0.427985046158541,-0.134523537041275
1580423753.23331,-0.898207064927139,-0.354741741054399,-0.102784771496147
1580423753.23731,-0.793224994277868,-0.354741741054399,-0.342534523537042
1580423753.24131,-0.709239337758449,-0.234622720683603,-0.663828488593881
1580423753.24531,-0.679942015716792,0.0837415121690697,-0.855237659266042
1580423753.24931,-0.635507743953612,0.408453498130768,-0.944106202792401
1580423753.2533,-0.574471656366827,0.747814145113299,-0.981216144045167
1580423753.2573,-0.540291447318227,1.14235141527428,-0.969985503929198
1580423753.2613,-0.543709468223087,1.48366521705958,-0.915297169451438
1580423753.2653,-0.576913099870298,1.66579690241856,-0.824963759822996
1580423753.2693,-0.584725719081407,1.65261310749981,-0.715587090867475
1580423753.2733,-0.558358129243915,1.47438773174639,-0.626230258640421
1580423753.2773,-0.518318455786984,1.20729381246662,-0.568612191958495
1580423753.28129,-0.484626535439078,0.94850080109865,-0.547615777828641
1580423753.28529,-0.478278782330053,0.769298847943848,-0.523201342793927
1580423753.28929,-0.49048599984741,0.656992446784162,-0.48023193713283
1580423753.29329,-0.513435568780041,0.596932936598765,-0.42212558175021
1580423753.29727,-0.550057221332112,0.562752727550166,-0.334233615625239
1580423753.30127,-0.593514915693904,0.540291447318229,-0.252689402609294
1580423753.30527,-0.648691538872358,0.516365300984209,-0.172121766994735
1580423753.30927,-0.703379873350118,0.481696803234911,-0.0979018844892039
1580423753.31327,-0.758068207827879,0.432379644464788,-0.0305180437933927
1580423753.31727,-0.813244831006333,0.36646066987106,0.0373540856031127
1580423753.32126,-0.867444876783399,0.292240787365529,0.0734874494544897
1580423753.32526,-0.93141069657435,0.211184863050278,0.114991989013504
1580423753.32926,-1.00074769207294,0.136476691844052,0.160402838178072
1580423753.33326,-1.07399099717708,0.073975738155184,0.193606469825284
1580423753.33726,-1.13990997177081,0.0158693827725642,0.212649729152361
1580423753.34126,-1.19606317235065,-0.0349126420996413,0.233646143282215
1580423753.34526,-1.23707942320897,-0.0754406042572668,0.2605020218204
1580423753.34925,-1.26149385824369,-0.0993667505912867,0.287357900358586
1580423753.35325,-1.27809567406729,-0.0983901731898982,0.296147096971083
1580423753.35725,-1.2859082932784,-0.0881361104753182,0.281498435950255
1580423753.36125,-1.29030289158465,-0.0607919432364383,0.259525444419012
1580423753.36525,-1.29372091248951,-0.0339360646982527,0.228763256275272
1580423753.36925,-1.2863965819791,-0.0153810940718699,0.203372243839169
1580423753.37325,-1.27956054016938,-0.000244144350347142,0.183352407110704
1580423753.37726,-1.27028305485618,0.00366216525520713,0.176028076600289
1580423753.38126,-1.26637674525063,0.00415045395590141,0.155031662470435
1580423753.38525,-1.26442359044785,-0.00366216525520713,0.128175783932249
1580423753.38925,-1.27809567406729,-0.027588311589227,0.0944838635843439
1580423753.39325,-1.2946974898909,-0.0612802319371326,0.0729991607537954
1580423753.39725,-1.31569390402075,-0.100343327992675,0.0534676127260241
1580423753.40125,-1.33815518425269,-0.154543373769741,0.0397955291065841
1580423753.40525,-1.34987411306935,-0.225345235370412,0.0397955291065841
1580423753.40925,-1.35231555657282,-0.313725490196079,0.0534676127260241
1580423753.41325,-1.35036240177005,-0.403082322423133,0.077393759060044
1580423753.41724,-1.34987411306935,-0.484626535439078,0.103273060196841
1580423753.42124,-1.35963988708324,-0.547127489127947,0.129640650034332
1580423753.42524,-1.38161287861448,-0.585214007782101,0.140383001449607
1580423753.42924,-1.41188677805753,-0.608651865415426,0.149660486762798
1580423753.43324,-1.4485084306096,-0.623788815136949,0.170656900892652
1580423753.43724,-1.49684901197833,-0.632578011749446,0.191165026321812
1580423753.44124,-1.54567788204776,-0.637949187457084,0.210696574349583
1580423753.44524,-1.59743648432135,-0.649179827573052,0.243900205996795
1580423753.44924,-1.64773022049287,-0.663340199893186,0.28101014724956
1580423753.45323,-1.69118791485466,-0.691660944533455,0.32202639810788
1580423753.45721,-1.73171587701228,-0.730724040588997,0.355230029755091
1580423753.46121,-1.76833752956436,-0.78785381857023,0.371343556878003
1580423753.46521,-1.79616998550393,-0.866956588082704,0.378179598687723
1580423753.46921,-1.80984206912337,-0.953871976806287,0.381597619592583
1580423753.47321,-1.80593575951782,-1.04518196383612,0.365972381170366
1580423753.47721,-1.77712672617685,-1.1403982604715,0.353276874952314
1580423753.48121,-1.74001678492409,-1.24782177462425,0.350835431448843
1580423753.4852,-1.69900053406577,-1.35915159838254,0.331792172121766
1580423753.4892,-1.66042572671092,-1.4651102464332,0.306889448386357
1580423753.4932,-1.62722209506371,-1.56374456397345,0.25366598001068
1580423753.4972,-1.59060044251163,-1.64626535439078,0.186282139314869
1580423753.5012,-1.54714274814984,-1.70241855497063,0.11108567940795
1580423753.5052,-1.50026703288319,-1.74538796063172,0.0314946211947813
1580423753.5092,-1.45632104982071,-1.77077897306783,-0.0437018387121384
1580423753.5132,-1.4060273136492,-1.77419699397269,-0.123781185626001
1580423753.51719,-1.34840924696727,-1.76150148775464,-0.201907377737086
1580423753.52119,-1.27418936446174,-1.72878614480812,-0.293217364766919
1580423753.52519,-1.19264515144579,-1.69167620355535,-0.369390402075227
1580423753.52919,-1.0979171435111,-1.65554283970397,-0.43579766536965
1580423753.53319,-1.00904859998474,-1.63112840466926,-0.481696803234913
1580423753.5372,-0.925551232166018,-1.63503471427481,-0.49732204165713
1580423753.5412,-0.846936751354239,-1.64626535439078,-0.493415732051576
1580423753.5452,-0.767833981841765,-1.66628519111925,-0.482673380636301
1580423753.5492,-0.690684367132066,-1.68337529564355,-0.457282368200199
1580423753.5532,-0.607675288014038,-1.70339513237201,-0.421149004348822
1580423753.55719,-0.52808422980087,-1.72585641260395,-0.393804837109942
1580423753.56119,-0.456794079499504,-1.73220416571298,-0.356206607156482
1580423753.56519,-0.39819943541619,-1.73562218661784,-0.304936293583582
1580423753.56919,-0.367925535973145,-1.73122758831159,-0.263431754024568
1580423753.57319,-0.359624628061342,-1.71706721599145,-0.222903791866941
1580423753.57719,-0.36743724727245,-1.69021133745327,-0.191165026321812
1580423753.58119,-0.388921950102999,-1.65603112840467,-0.165285725185015
1580423753.58519,-0.420172426947433,-1.6106202792401,-0.149660486762798
1580423753.58918,-0.455329213397421,-1.55544365606165,-0.151613641565575
1580423753.59318,-0.489997711146716,-1.49636072327764,-0.155031662470435
1580423753.59718,-0.526619363698787,-1.43288319218738,-0.149660486762798
1580423753.60118,-0.56910048065919,-1.36842908369574,-0.145265888456549
1580423753.60518,-0.601815823605707,-1.31618219272145,-0.146730754558632
1580423753.60918,-0.624277103837644,-1.28004882887007,-0.174074921797512
1580423753.61318,-0.652109559777218,-1.24684519722286,-0.196536202029449
1580423753.61716,-0.678965438315403,-1.19606317235065,-0.187258716716258
1580423753.62116,-0.692637521934843,-1.14528114747845,-0.177981231403066
1580423753.62515,-0.695567254139009,-1.10231174181735,-0.172610055695429
1580423753.62915,-0.690196078431372,-1.07154955367361,-0.171145189593346
1580423753.63315,-0.677012283512626,-1.05299458304723,-0.169680323491264
1580423753.63715,-0.667246509498741,-1.04908827344167,-0.165285725185015
1580423753.64115,-0.673594262607766,-1.06471351186389,-0.154055085069047
1580423753.64515,-0.696055542839703,-1.09645227740902,-0.155031662470435
1580423753.64915,-0.722911421377889,-1.12965590905623,-0.172610055695429
1580423753.65314,-0.755626764324408,-1.14869916838331,-0.172610055695429
1580423753.65714,-0.782482642862593,-1.15944151979858,-0.176028076600289
1580423753.66114,-0.802990768291753,-1.16774242771038,-0.159914549477378
1580423753.66514,-0.813244831006333,-1.18190280003052,-0.142336156252384
1580423753.66914,-0.821057450217442,-1.20338750286107,-0.139406424048218
1580423753.67314,-0.823987182421607,-1.22536049439231,-0.141847867551689
1580423753.67714,-0.827405203326467,-1.24196231021591,-0.131105516136415
1580423753.68114,-0.830823224231327,-1.24782177462425,-0.116945143816281
1580423753.68513,-0.826428625925079,-1.24489204242008,-0.103761348897535
1580423753.68913,-0.97242694743267,-1.20387579156176,-0.213626306553749
1580423753.69313,-1.04908827344167,-1.04567025253681,-0.556893263141832
1580423753.69714,-1.08473334859235,-0.561287861448081,-1.1916685740444
1580423753.70114,-1.08033875028611,0.210696574349583,-1.49489585717556
1580423753.70514,-1.32692454413672,1.1833676661326,-1.67946898603799
1580423753.70914,-1.79372854200046,3.17509727626459,-1.90798809796292
1580423753.71314,-2.33475242236973,5.53157854581521,-2.07547112230106
1580423753.71714,-3.19902342259861,4.23468375677119,-1.63894102388037
1580423753.72114,-3.89678797589075,1.508567940795,-0.578866254673075
1580423753.72513,-3.42656595712215,0.635996032654308,-0.0183108262760356
1580423753.72913,-2.89872587167163,0.635996032654308,0.191653315022506
1580423753.73313,-2.63358510719463,0.34937056534676,0.0334477759975584
1580423753.73713,-1.97341878385595,-0.916273746852827,-0.150637064164187
1580423753.74113,-1.23903257801175,-3.34990463111315,-0.0148928053711757
1580423753.74513,-1.50417334248875,-3.37334248874647,0.543709468223089
1580423753.74913,-1.32643625543603,-3.59600213626307,0.795178149080645
1580423753.75313,-0.963637750820173,-2.97880521858549,0.550545510032808
1580423753.75712,-0.550057221332112,-1.94216830701152,0.255619134813458
1580423753.76112,-0.332280460822462,-0.968520637827115,0.198489356832226
1580423753.76512,-0.339604791332876,-0.302983138780805,0.166750591287098
1580423753.76912,-0.426520180056459,0.0495613031204698,0.0847180895704582
1580423753.77312,-0.470466163118944,0.224856946669718,-0.0407721065079727
1580423753.7771,-0.465094987411307,0.272709239337757,-0.164797436484321
1580423753.7811,-0.478278782330053,0.177492942702372,-0.269291218432899
1580423753.7851,-0.530525673304341,-0.00366216525520713,-0.389410238803693
1580423753.7891,-0.547127489127947,-0.156984817273212,-0.522713054093233
1580423753.79309,-0.567147325856412,-0.250247959105822,-0.632089723048752
1580423753.79709,-0.591561760891127,-0.330815594720379,-0.756115053025102
1580423753.80109,-0.594979781795987,-0.389410238803693,-0.898695353627833
1580423753.80509,-0.556893263141832,-0.466071564812696,-0.97926298924239
1580423753.80909,-0.494880598153658,-0.572518501564049,-0.912855725947967
1580423753.81309,-0.46997787441825,-0.638437476157778,-0.683360036621652
1580423753.81709,-0.499763485160601,-0.652597848477912,-0.379156176089113
1580423753.82109,-0.542244602121004,-0.677988860914015,-0.202395666437781
1580423753.82508,-0.545662623025864,-0.805432211795225,-0.215579461356526
1580423753.82908,-0.489997711146716,-1.04811169604028,-0.296635385671779
1580423753.83308,-0.454352635996033,-1.32106507972839,-0.36401922636759
1580423753.83708,-0.549568932631418,-1.57204547188525,-0.37769130998703
1580423753.84108,-0.781994354161899,-1.69948882276646,-0.32983901731899
1580423753.84508,-1.03053330281529,-1.6277103837644,-0.220950637064163
1580423753.84908,-1.18092622262913,-1.42458228427558,-0.212649729152361
1580423753.85308,-1.25465781643397,-1.16139467460136,-0.275150682841231
1580423753.85709,-1.30739299610895,-0.91090257114519,-0.36401922636759
1580423753.86108,-1.31520561532006,-0.735118638895246,-0.49390402075227
1580423753.86508,-1.33034256504158,-0.614511329823758,-0.546150911726558
1580423753.86908,-1.35817502098116,-0.573983367666132,-0.628671702143892
1580423753.87308,-1.37087052719921,-0.631113145647364,-0.658945601586938
1580423753.87708,-1.35329213397421,-0.727306019684137,-0.625253681239032
1580423753.88108,-1.30836957351034,-0.823010605020219,-0.554940108339055
1580423753.88508,-1.243427176318,-0.867933165484093,-0.518806744487678
1580423753.88908,-1.18434424353399,-0.836682688639659,-0.48364995803769
1580423753.89307,-1.13160906385901,-0.733653772793163,-0.44946974898909
1580423753.89707,-1.06227206836042,-0.625253681239032,-0.424567025253682
1580423753.90107,-0.99635309376669,-0.542732890821698,-0.421149004348822
1580423753.90507,-0.965102616922255,-0.472907606622416,-0.397222858014802
1580423753.90907,-0.971938658731975,-0.414801251239796,-0.404058899824522
1580423753.91307,-0.980239566643778,-0.418219272144656,-0.456794079499504
1580423753.91707,-0.98609903105211,-0.483161669336996,-0.490974288548104
1580423753.92107,-1.0300450141146,-0.563241016250858,-0.49390402075227
1580423753.92507,-1.11061264972915,-0.610116731517509,-0.463630121309224
1580423753.92906,-1.19703974975204,-0.687266346227206,-0.454352635996033
1580423753.93306,-1.30202182040131,-0.793224994277868,-0.518318455786984
1580423753.93704,-1.44655527580682,-0.86988632028687,-0.574471656366827
1580423753.94104,-1.58864728770886,-0.87672236209659,-0.601815823605707
1580423753.94504,-1.68435187304494,-0.87330434119173,-0.619882505531395
1580423753.94904,-1.75124742504006,-0.899183642328527,-0.624765392538338
1580423753.95304,-1.81911955443656,-0.930922407873656,-0.593026626993209
1580423753.95704,-1.87966735332265,-0.915297169451438,-0.534431982909895
1580423753.96103,-1.8923628595407,-0.836194399938964,-0.526131074998093
1580423753.96503,-1.84695201037614,-0.74586099031052,-0.544197756923781
1580423753.96903,-1.82497901884489,-0.638437476157778,-0.578377965972381
1580423753.97303,-1.84744029907683,-0.475837338826581,-0.616464484626535
1580423753.97703,-1.89626916914626,-0.273685816739148,-0.608163576714732
1580423753.98103,-1.93289082169833,-0.120851453421835,-0.656504158083466
1580423753.98503,-1.9524223697261,-0.0187991149767299,-0.676523994811932
1580423753.98903,-1.98855573357748,0.0876478217746239,-0.610116731517509
1580423753.99302,-1.99880979629206,0.223392080567635,-0.549568932631418
1580423753.99702,-1.96218814373999,0.310795757991912,-0.535896849011978
1580423754.00102,-1.90066376745251,0.353276874952314,-0.529060807202258
1580423754.00502,-1.84402227817197,0.392339971007857,-0.477790493629358
1580423754.00902,-1.78640421149004,0.41773098344396,-0.483161669336996
1580423754.01302,-1.73073929961089,0.377203021286334,-0.373785000381476
1580423754.01703,-1.68581673914702,0.346929121843289,-0.34692912184329
1580423754.02103,-1.60573739223316,0.323979552910657,-0.321538109407188
1580423754.02503,-1.52077515831235,0.31519035629816,-0.279545281147479
1580423754.02902,-1.40700389105058,0.284916456855115,-0.270267795834288
1580423754.03302,-1.31276417181659,0.247806515602349,-0.225833524071106
1580423754.03702,-1.27174792095827,0.240970473792629,-0.186770428015564
1580423754.04102,-1.28688487067979,0.274662394140535,-0.190188448920424
1580423754.04502,-1.32350652323186,0.294682230869,-0.197024490730143
1580423754.04902,-1.38796063172351,0.315678644998854,-0.223392080567635
1580423754.05302,-1.47243457694362,0.356694895857174,-0.235111009384298
1580423754.05702,-1.5681391622797,0.399664301518271,-0.231204699778743
1580423754.06101,-1.64528877698939,0.375738155184251,-0.278080415045396
1580423754.06501,-1.71120775158312,0.38696879530022,-0.310307469291219
1580423754.06901,-1.76540779736019,0.509040970473794,-0.318120088502328
1580423754.07301,-1.7649195086595,0.748302433813993,-0.316166933699551
1580423754.07701,-1.68581673914702,0.963637750820173,-0.367925535973145
1580423754.08101,-1.57106889448386,1.03297474631876,-0.422613870450904
1580423754.08501,-1.45094987411307,0.95875486381323,-0.441168841077287
1580423754.08901,-1.36110475318532,0.792248416876479,-0.40161745632105
1580423754.093,-1.29860379949645,0.53247882810712,-0.330327306019685
1580423754.09698,-1.27956054016938,0.181399252307926,-0.256595712214848
1580423754.10098,-1.27272449835966,-0.165774013885709,-0.219485770962081
1580423754.10498,-1.26735332265202,-0.430914778362707,-0.164797436484321
1580423754.10898,-1.26832990005341,-0.560799572747387,-0.119386587319752
1580423754.11298,-1.24782177462425,-0.573983367666132,-0.0681162737468526
1580423754.11698,-1.20485236896315,-0.52808422980087,0.0227054245822842
1580423754.12098,-1.20289921416037,-0.552498664835584,0.0769054703593497
1580423754.12498,-1.28102540627146,-0.812756542305639,-0.133546959639887
1580423754.12897,-1.36989394979782,-0.998306248569467,-0.369878690775922
1580423754.13297,-1.49343099107347,-0.959243152513924,-0.451422903791867
1580423754.13697,-1.67946898603799,-0.817151140611887,-0.45972381170367
1580423754.14097,-1.84841687647822,-0.649668116273746,-0.509529259174487
1580423754.14497,-1.9783016708629,-0.427985046158541,-0.572030212863355
1580423754.14897,-2.07156481269551,-0.184328984512092,-0.627695124742504
1580423754.15297,-2.1316243228809,0.0295414663920042,-0.633554589150835
1580423754.15697,-2.16092164492256,0.219974059662775,-0.584725719081407
1580423754.16096,-2.19119554436561,0.391363393606468,-0.514900434882124
1580423754.16496,-2.20828564888991,0.543709468223089,-0.454352635996033
1580423754.16896,-2.16726939803159,0.657969024185551,-0.415777828641184
1580423754.17296,-2.03933775844968,0.704844739452202,-0.405523765926604
1580423754.17697,-1.85574120698863,0.688731212329291,-0.383550774395362
1580423754.18097,-1.65944914930953,0.657969024185551,-0.360112916762036
1580423754.18497,-1.47634088654917,0.649668116273748,-0.368902113374533
1580423754.18897,-1.31862363622492,0.659922178988328,-0.40845349813077
1580423754.19297,-1.18873884184024,0.680430304417488,-0.461676966506447
1580423754.19696,-1.09205767910277,0.711680781261922,-0.532967116807813
1580423754.20096,-1.02272068360418,0.741466392004273,-0.593514915693904
1580423754.20496,-0.976821545738918,0.771252002746625,-0.638925764858472
1580423754.20896,-0.946059357595178,0.78443579766537,-0.660898756389715
1580423754.21296,-0.915297169451438,0.775158312352179,-0.668223086900129
1580423754.21696,-0.884046692607004,0.742931258106356,-0.664805065995269
1580423754.22096,-0.855237659266042,0.685313191424431,-0.638437476157778
1580423754.22496,-0.819592584115359,0.6110933089189,-0.603280689707789
1580423754.22896,-0.78101777676051,0.52906080720226,-0.557381551842527
1580423754.23295,-0.744884412909132,0.455817502098114,-0.508552681773098
1580423754.23695,-0.708751049057755,0.385503929198137,-0.468024719615473
1580423754.24095,-0.670176241702906,0.329350728618294,-0.436774242771039
1580423754.24495,-0.628671702143892,0.278568703746089,-0.412848096437019
1580423754.24895,-0.582772564278629,0.222903791866941,-0.403082322423133
1580423754.25295,-0.541268024719615,0.162355992980849,-0.38452735179675
1580423754.25693,-0.494880598153658,0.110597390707255,-0.333745326924545
1580423754.26093,-0.450446326390479,0.073975738155184,-0.246341649500266
1580423754.26493,-0.416754406042573,0.0544441901274126,-0.168703746089875
1580423754.26892,-0.393316548409247,0.0358892195010299,-0.128175783932249
1580423754.27292,-0.376226443884947,0.0192874036774242,-0.116456855115587
1580423754.27692,-0.361089494163425,0.0100099183642328,-0.116456855115587
1580423754.28092,-0.339116502632182,-0.00952162966353853,-0.101808194094758
1580423754.28492,-0.329350728618296,-0.0192874036774242,-0.0910658426794839
1580423754.28892,-0.361089494163425,-0.0100099183642328,-0.0764171816586554
1580423754.29292,-0.433844510566873,0.024170290684367,-0.0646982528419926
1580423754.29691,-0.522713054093233,0.0554207675288012,-0.0642099641412983
1580423754.30091,-0.594003204394598,0.0476081483176927,-0.0646982528419926
1580423754.30491,-0.649179827573052,-0.0109864957656214,-0.0515144579232469
1580423754.30891,-0.724864576180666,-0.0969253070878153,-0.0192874036774242
1580423754.31291,-0.827405203326467,-0.180422674906538,0.0290531776913099
1580423754.31691,-0.952895399404898,-0.235599298084992,0.0856946669718468
1580423754.32091,-1.08180361638819,-0.266361486228734,0.135500114442664
1580423754.32491,-1.18776226443885,-0.275638971541925,0.147219043259327
1580423754.3289,-1.27663080796521,-0.275638971541925,0.114015411612115
1580423754.3329,-1.34840924696727,-0.266849774929428,0.0832532234683754
1580423754.33691,-1.42409399557488,-0.231692988479438,0.044678416113527
1580423754.34091,-1.50466163118944,-0.187258716716258,0.0129396505683985
1580423754.34491,-1.58376440070191,-0.159914549477378,-0.0329594872968642
1580423754.34891,-1.65993743801022,-0.158937972075989,-0.0793469138628211
1580423754.35291,-1.75027084763867,-0.154055085069047,-0.113527122911421
1580423754.35691,-1.83523308155947,-0.164797436484321,-0.145265888456549
1580423754.36091,-1.92361333638514,-0.213138017853055,-0.187258716716258
1580423754.3649,-2.00955214770733,-0.302494850080111,-0.249271381704432
1580423754.3689,-2.0891432059205,-0.433844510566873,-0.323491264209965
1580423754.3729,-2.16678110933089,-0.602304112306401,-0.424567025253682
1580423754.3769,-2.25320820935378,-0.800061036087587,-0.516853589684901
1580423754.3809,-2.34354161898222,-1.03346303501946,-0.583749141680018
1580423754.3849,-2.39969481956207,-1.25905241474022,-0.655039291981383
1580423754.3889,-2.35233081559472,-1.4314183260853,-0.760509651331351
1580423754.3929,-2.21121538109407,-1.55788509956512,-0.809826810101473
1580423754.39689,-2.02371252002747,-1.6706797894255,-0.802990768291753
1580423754.40089,-1.82693217364767,-1.81228351262684,-0.775646601052873
1580423754.40489,-1.61452658884565,-2.00711070420386,-0.760997940032045
1580423754.40889,-1.39919127183948,-2.24881361104753,-0.763439383535516
1580423754.41289,-1.21022354467079,-2.51541924162661,-0.779552910658428
1580423754.41687,-1.09254596780346,-2.80546272983902,-0.779064621957733
1580423754.42087,-1.09449912260624,-3.13212787060349,-0.76392767223621
1580423754.42487,-1.20241092545968,-3.49346150911727,-0.715587090867475
1580423754.42887,-1.34987411306935,-3.88067444876783,-0.709239337758449
1580423754.43286,-1.41530479896239,-4.24689097428855,-0.735118638895246
1580423754.43686,-1.31862363622492,-4.47248035400931,-0.744884412909132
1580423754.44086,-1.05152971694514,-4.45246051728084,-0.754161898222325
1580423754.44486,-0.6877546349279,-4.2171053635462,-0.784924086366065
1580423754.44886,-0.358648050659953,-3.91241321431296,-0.833752956435493
1580423754.45286,-0.108644235904478,-3.70196078431372,-0.860608834973679
1580423754.45686,0.0402838178072784,-3.60088502327001,-0.855237659266042
1580423754.46086,0.122316319523918,-3.57695887693599,-0.817639429312582
1580423754.46485,0.170168612191958,-3.54863813229572,-0.797619592584116
1580423754.46885,0.205813687342641,-3.43730830853742,-0.752697032120242
1580423754.47285,0.253177691309986,-3.24785229266804,-0.645761806668192
1580423754.47685,0.293705653467612,-3.00126649881743,-0.518806744487678
1580423754.48085,0.278080415045395,-2.7473563744564,-0.379156176089113
1580423754.48485,0.110109102006561,-2.49002822919051,-0.262455176623179
1580423754.48885,-0.229739833676661,-2.37723353933013,-0.278080415045396
1580423754.49285,-0.250736247806516,-2.31277943083848,-0.257084000915542
1580423754.49686,-0.288822766460671,-2.13308918898299,-0.255130846112765
1580423754.50085,-0.31958495460441,-1.89138628213932,-0.700450141145952
1580423754.50485,-0.347417410543985,-1.97683680476081,-0.820569161516747
1580423754.50885,-0.347417410543985,-2.55643549248493,-1.15455863279164
1580423754.51285,-1.01539635309377,-2.04373235675593,-1.11305409323262
1580423754.51685,-1.92507820248722,-0.53150225070573,0.00659189745937283
1580423754.52085,-2.17019913023575,0.640878919661251,0.631113145647365
1580423754.52485,-1.94607461661708,1.09156939040207,-0.0349126420996413
1580423754.52885,-1.81667811093309,1.27272449835965,-0.781994354161899
1580423754.53285,-1.70095368886854,1.46315709163042,-1.27809567406729
1580423754.53684,-1.7732204165713,1.22194247348745,-1.46999313344015
1580423754.54084,-2.13357747768368,0.377691309987028,-1.21657129777981
1580423754.54484,-2.55497062638285,-0.298588540474556,-0.908461127641718
1580423754.54884,-2.71903562981613,-0.793224994277868,-0.664805065995269
1580423754.55284,-2.20828564888991,-2.75223926146334,-0.461676966506447
1580423754.55684,-2.28104066529336,-5.78158236057069,0.170168612191958
1580423754.56084,-2.94413672083619,-4.58478675516899,0.98951705195697
1580423754.56483,-2.8752880140383,-3.69805447470817,0.927504386968796
1580423754.56883,-1.97000076295109,-2.12234683756771,0.28101014724956
1580423754.57283,-0.434821087968261,-1.11744869153887,-0.0573739223315783
1580423754.57681,0.485603112840465,-0.715587090867475,-0.199465934233615
1580423754.58081,0.891859311818113,-0.48023193713283,-0.285404745555811
1580423754.58481,0.84937819485771,-0.288822766460671,-0.499275196459907
1580423754.58881,0.527107652399483,-0.173098344396124,-0.564217593652247
1580423754.59281,0.194094758525978,-0.37427328908217,-0.655039291981383
1580423754.59681,-0.0441901274128327,-0.672617685206378,-0.767833981841765
1580423754.60081,-0.385503929198139,-0.903089951934081,-0.601815823605707
1580423754.6048,-0.811291676203556,-1.00221255817502,-0.260990310521096
1580423754.6088,-1.02858014801251,-1.0300450141146,-0.167727168688486
1580423754.6128,-1.05494773785,-1.03443961242084,-0.296147096971085
1580423754.6168,-1.01441977569238,-0.870862897688259,-0.373785000381476
1580423754.6208,-0.949965667200733,-0.658945601586938,-0.356694895857176
1580423754.6248,-0.848889906157016,-0.572030212863355,-0.549080643930724
1580423754.6288,-0.688731212329289,-0.722911421377889,-0.750743877317465
1580423754.63279,-0.627206836041809,-0.951430533302815,-0.799572747386893
1580423754.63679,-0.673594262607766,-1.11256580453193,-0.710215915159838
1580423754.64079,-0.771740291447319,-1.12281986724651,-0.604257267109178
1580423754.64479,-0.785900663767453,-1.13990997177081,-0.539803158617532
1580423754.64879,-0.793713282978562,-1.13649195086595,-0.476325627527276
1580423754.65279,-0.867444876783399,-1.06764324406805,-0.371831845578699
1580423754.6568,-0.964126039520867,-0.914808880750744,-0.370366979476616
1580423754.6608,-0.96559090562295,-0.843030441748684,-0.462653543907836
1580423754.6648,-0.909437705043107,-0.864026855878539,-0.624765392538338
1580423754.66879,-0.879652094300756,-0.961196307316701,-0.702403295948729
1580423754.67279,-0.932387273975738,-0.984145876249332,-0.658457312886243
1580423754.67679,-0.943617914091707,-0.989028763256275,-0.594003204394598
1580423754.68079,-0.903089951934081,-1.01979095140002,-0.522713054093233
1580423754.68479,-0.872327763790341,-1.05738918135348,-0.48706797894255
1580423754.68879,-0.88014038300145,-1.05885404745556,-0.470466163118944
1580423754.69279,-0.883070115205616,-1.07740901808194,-0.494392309452964
1580423754.69679,-0.90748455024033,-1.09352254520485,-0.523201342793927
1580423754.70078,-0.965102616922255,-1.09742885481041,-0.542732890821698
1580423754.70478,-1.07643244068055,-1.02662699320974,-0.503669794766155
1580423754.70878,-1.1745784695201,-0.908949416342413,-0.511482413977264
1580423754.71278,-1.20680552376593,-0.887953002212559,-0.552986953536278
1580423754.71678,-1.25123979552911,-0.890882734416724,-0.563241016250858
1580423754.72078,-1.3117875944152,-0.865980010681316,-0.551033798733501
1580423754.72478,-1.34792095826658,-0.831311512932022,-0.554940108339055
1580423754.72878,-1.35768673228046,-0.863538567177844,-0.584237430380712
1580423754.73277,-1.40114442664225,-0.942153047989624,-0.628183413443198
1580423754.73675,-1.5163805600061,-0.987075608453498,-0.607186999313344
1580423754.74075,-1.71218432898451,-0.973403524834058,-0.562752727550164
1580423754.74475,-1.91580071717403,-0.982192721446555,-0.547127489127947
1580423754.74875,-2.06570534828717,-1.01393148699168,-0.538826581216144
1580423754.75275,-2.12674143587396,-0.967544060425727,-0.518318455786984
1580423754.75675,-2.11306935225452,-0.803967345693142,-0.505134660868238
1580423754.76075,-2.04177920195315,-0.637949187457084,-0.533943694209201
1580423754.76475,-1.97537193865873,-0.525642786297398,-0.55201037613489
1580423754.76874,-1.9783016708629,-0.405523765926604,-0.584237430380712
1580423754.77274,-2.03689631494621,-0.281498435950256,-0.582772564278629
1580423754.77674,-2.11013962005035,-0.133058670939192,-0.566170748455024
1580423754.78074,-2.14578469520104,-0.00122072175173571,-0.556893263141832
1580423754.78474,-2.13601892118715,0.109620813305867,-0.558358129243915
1580423754.78874,-2.08719005111772,0.217532616159303,-0.542244602121004
1580423754.79274,-2.01443503471427,0.319584954604409,-0.492439154650187
1580423754.79674,-1.91970702677958,0.406988632028686,-0.48364995803769
1580423754.80073,-1.81277180132754,0.448981460288394,-0.484626535439078
1580423754.80473,-1.72634470130465,0.524666208896011,-0.42212558175021
1580423754.80873,-1.65896086060883,0.661387045090411,-0.313237201495385
1580423754.81273,-1.59499504081788,0.806897077897307,-0.220950637064163
1580423754.81674,-1.5163805600061,0.867933165484093,-0.147707331960021
1580423754.82074,-1.45094987411307,0.868421454184787,-0.0949721522850382
1580423754.82474,-1.43239490348669,0.880628671702144,-0.0681162737468526
1580423754.82874,-1.43288319218738,0.870374608987564,-0.0651865415426869
1580423754.83274,-1.42116426337072,0.796154726482033,-0.102784771496147
1580423754.83674,-1.40700389105058,0.719493400473031,-0.102784771496147
1580423754.84073,-1.40651560234989,0.680430304417488,-0.096437018387121
1580423754.84473,-1.41481651026169,0.649179827573054,-0.0886243991760125
1580423754.84873,-1.43727779049363,0.620859082932785,-0.12475776302739
1580423754.85273,-1.45876249332418,0.626230258640422,-0.188723582818341
1580423754.85673,-1.49831387808042,0.677500572213322,-0.231204699778743
1580423754.86073,-1.54567788204776,0.716563668268865,-0.258060578316931
1580423754.86473,-1.56179140917067,0.654551003280691,-0.263920042725262
1580423754.86872,-1.55983825436789,0.535408560311286,-0.264408331425956
1580423754.87272,-1.53200579842832,0.378179598687723,-0.267826352330816
1580423754.87672,-1.49343099107347,0.221927214465552,-0.290775921263448
1580423754.88072,-1.47145799954223,0.0544441901274126,-0.313237201495385
1580423754.88472,-1.48513008316167,-0.0866712443732354,-0.296635385671779
1580423754.88872,-1.52077515831235,-0.167727168688486,-0.260013733119708
1580423754.89272,-1.55251392385748,-0.200930800335698,-0.180910963607232
1580423754.8967,-1.56423285267414,-0.223880369268329,-0.100343327992675
1580423754.9007,-1.53640039673457,-0.32300297550927,-0.162355992980849
1580423754.9047,-1.47341115434501,-0.421149004348822,-0.314702067597468
1580423754.90869,-1.4397192339971,-0.398687724116884,-0.416754406042573
1580423754.91269,-1.45094987411307,-0.259525444419014,-0.443121995880064
1580423754.91669,-1.4743877317464,-0.0598153658350498,-0.430914778362707
1580423754.92069,-1.47927061875334,0.149172198062104,-0.380132753490502
1580423754.92469,-1.47927061875334,0.357183184557869,-0.316655222400245
1580423754.92869,-1.47536430914778,0.548592355230031,-0.282475013351645
1580423754.93269,-1.46315709163043,0.686778057526514,-0.264408331425956
1580423754.93668,-1.4402075226978,0.794201571679256,-0.264896620126651
1580423754.94068,-1.42214084077211,0.850354772259099,-0.282963302052339
1580423754.94468,-1.41872281986725,0.856702525368124,-0.342534523537042
1580423754.94868,-1.42848859388113,0.806897077897307,-0.409918364232853
1580423754.95268,-1.45339131761654,0.742442969405662,-0.460700389105059
1580423754.95668,-1.47682917524987,0.688242923628597,-0.48706797894255
1580423754.96068,-1.49391927977417,0.653086137178608,-0.509040970473793
1580423754.96468,-1.51003280689708,0.637949187457085,-0.527595941100175
1580423754.96867,-1.52126344701305,0.643320363164722,-0.539314869916838
1580423754.97267,-1.52761120012207,0.653574425879302,-0.551033798733501
1580423754.97668,-1.51589227130541,0.659922178988328,-0.554451819638361
1580423754.98068,-1.47780575265126,0.662363622491799,-0.542732890821698
1580423754.98468,-1.41628137636378,0.660898756389717,-0.513923857480735
1580423754.98868,-1.33180743114366,0.650644693675137,-0.478278782330053
1580423754.99268,-1.24196231021591,0.629648279545282,-0.434821087968261
1580423754.99668,-1.15211718928817,0.601815823605708,-0.406988632028687
1580423755.00068,-1.06471351186389,0.561287861448083,-0.39478141451133
1580423755.00467,-0.979751277943084,0.502204928664074,-0.421637293049516
1580423755.00867,-0.898207064927139,0.431891355764094,-0.448004882887007
1580423755.01267,-0.833752956435493,0.364019226367589,-0.457282368200199
1580423755.01667,-0.781994354161899,0.307866025787746,-0.441657129777981
1580423755.02067,-0.755138475623713,0.272709239337757,-0.41528953994049
1580423755.02467,-0.733653772793163,0.2605020218204,-0.379644464789807
1580423755.02867,-0.715587090867475,0.248294804303043,-0.363530937666896
1580423755.03267,-0.685313191424429,0.238040741588463,-0.376226443884947
1580423755.03667,-0.645273517967498,0.213626306553749,-0.399664301518273
1580423755.04066,-0.607675288014038,0.174074921797512,-0.427008468757153
1580423755.04466,-0.56910048065919,0.12475776302739,-0.449958037689784
1580423755.04866,-0.531013962005035,0.0686045624475469,-0.444586861982147
1580423755.05266,-0.492927443350881,0.0222171358815899,-0.409918364232853
1580423755.05664,-0.461188677805753,-0.0173342488746471,-0.376714732585642
1580423755.06064,-0.427008468757153,-0.041260395208667,-0.34009308003357
1580423755.06464,-0.40161745632105,-0.0607919432364383,-0.311772335393302
1580423755.06864,-0.381597619592585,-0.0856946669718468,-0.283939879453728
1580423755.07263,-0.372808422980087,-0.103761348897535,-0.270267795834288
1580423755.07663,-0.378667887388419,-0.121828030823224,-0.270756084534982
1580423755.08063,-0.392339971007859,-0.148195620660715,-0.278080415045396
1580423755.08463,-0.428473334859236,-0.171145189593346,-0.274662394140536
1580423755.08863,-0.46997787441825,-0.199465934233615,-0.274662394140536
1580423755.09263,-0.52466620889601,-0.226810101472495,-0.273685816739148
1580423755.09663,-0.589120317387655,-0.244876783398183,-0.274662394140536
1580423755.10063,-0.659433890287632,-0.260013733119708,-0.259525444419014
1580423755.10462,-0.724864576180666,-0.266849774929428,-0.241947051194018
1580423755.10862,-0.792248416876479,-0.283451590753033,-0.231204699778743
1580423755.11262,-0.857190814068819,-0.307866025787748,-0.247806515602349
1580423755.11662,-0.929945830472267,-0.337163347829405,-0.271244373235676
1580423755.12062,-1.00660715648127,-0.369390402075227,-0.268802929732205
1580423755.12462,-1.08473334859235,-0.414801251239796,-0.276127260242619
1580423755.12862,-1.17164873731594,-0.485114824139773,-0.283939879453728
1580423755.13262,-1.2600289921416,-0.571541924162661,-0.275638971541925
1580423755.13663,-1.35768673228046,-0.654062714579995,-0.229251544975966
1580423755.14063,-1.45436789501793,-0.74586099031052,-0.163820859082932
1580423755.14462,-1.54518959334707,-0.870374608987564,-0.134035248340581
1580423755.14862,-1.59938963912413,-1.03736934462501,-0.146242465857938
1580423755.15262,-1.62966353856718,-1.22780193789578,-0.185793850614175
1580423755.15662,-1.63064011596857,-1.3889372091249,-0.228763256275272
1580423755.16062,-1.61159685664149,-1.50417334248875,-0.24682993820096
1580423755.16462,-1.57595178149081,-1.57985809109636,-0.280033569848174
1580423755.16862,-1.51931029221027,-1.64773022049287,-0.31958495460441
1580423755.17262,-1.45925078202487,-1.70778973067826,-0.345952544441902
1580423755.17661,-1.41725795376516,-1.77761501487755,-0.348882276646068
1580423755.18061,-1.39430838483253,-1.88650339513237,-0.331792172121768
1580423755.18461,-1.39528496223392,-2.03543144884413,-0.307866025787748
1580423755.18861,-1.42067597467002,-2.22781719691768,-0.301029983978028
1580423755.19261,-1.4826886396582,-2.44998855573358,-0.315190356298162
1580423755.19661,-1.54958419165331,-2.6785076676585,-0.370366979476616
1580423755.20061,-1.63356984817273,-2.8923781185626,-0.433356221866179
1580423755.20461,-1.73464560921645,-3.0891584649424,-0.463630121309224
1580423755.2086,-1.850370031281,-3.25566491187915,-0.472419317921721
1580423755.2126,-1.94509803921569,-3.37187762264439,-0.497810330357824
1580423755.21658,-1.96658274204623,-3.39385061417563,-0.536873426413367
1580423755.22058,-1.90017547875181,-3.32695506218051,-0.544686045624475
1580423755.22458,-1.76638437476158,-3.21074235141527,-0.525642786297398
1580423755.22858,-1.56227969787137,-3.09501792935073,-0.489509422446021
1580423755.23258,-1.28200198367285,-3.00761425192645,-0.477790493629358
1580423755.23658,-0.97926298924239,-2.96220340276188,-0.465583276112001
1580423755.24057,-0.716563668268863,-2.96464484626535,-0.441168841077287
1580423755.24457,-0.523201342793927,-2.99247730220493,-0.426031891355764
1580423755.24857,-0.392339971007859,-3.04325932707713,-0.42896162355993
1580423755.25257,-0.302494850080111,-3.10136568245975,-0.457282368200199
1580423755.25657,-0.236087586785686,-3.12626840619516,-0.505622949568933
1580423755.26057,-0.168703746089875,-3.07109178301671,-0.539803158617532
1580423755.26457,-0.0949721522850382,-2.95634393835355,-0.53833829251545
1580423755.26857,-0.0300297550926985,-2.79325551232166,-0.486579690241856
1580423755.27256,0.0354009308003356,-2.63016708628977,-0.393804837109942
1580423755.27656,0.0666514076447697,-2.4910048065919,-0.263431754024568
1580423755.28056,0.0617685206378269,-2.37283894102388,-0.130128938735027
1580423755.28456,0.0178225375753414,-2.27420462348364,-0.0114747844663157
1580423755.28856,-0.0456549935149155,-2.17752346074617,0.101319905394064
1580423755.29256,-0.123781185626001,-2.06131074998093,0.221927214465552
1580423755.29657,-0.208255130846112,-1.92947280079347,0.310795757991912
1580423755.30057,-0.446540016784924,-1.77468528267338,0.271244373235675
1580423755.30457,-0.503669794766155,-1.58229953459983,0.116945143816281
1580423755.30857,-0.495368886854353,-1.2859082932784,-0.0588387884336612
1580423755.31256,-0.465583276112001,-0.917250324254216,-0.635996032654306
1580423755.31656,-0.500251773861295,-0.302983138780805,-1.0642252231632
1580423755.32056,-0.628183413443198,0.231692988479438,-1.14332799267567
1580423755.32456,-0.654062714579995,0.721446555275808,-1.39967956054017
1580423755.32856,-0.691660944533455,1.52809948882277,-1.61501487754635
1580423755.33256,-0.784924086366065,2.63700312809949,-1.84206912336919
1580423755.33656,-0.964126039520867,3.31035324635691,-1.79470511940185
1580423755.34056,-1.1745784695201,2.65018692301824,-1.40895704585336
1580423755.34455,-1.39870298313878,1.4314183260853,-0.720469977874417
1580423755.34855,-1.71511406118868,0.438727397573814,-0.173586633096818
1580423755.35255,-2.097932402533,-0.275638971541925,-0.281010147249562
1580423755.35655,-2.35770199130236,-1.39479667353323,-0.724376287479972
1580423755.36055,-2.53006790264744,-4.73371480888075,-1.05641260395209
1580423755.36455,-3.80303654535744,-4.88801403830015,-0.541268024719615
1580423755.36855,-3.65703822384985,-3.447562371252,0.0666514076447697
1580423755.37255,-2.75907530327306,-2.14724956130312,0.266361486228732
1580423755.37653,-1.72976272220951,-1.02516212710765,0.259525444419012
1580423755.38052,-0.88355840390631,-0.516365300984207,0.321538109407186
1580423755.38452,-0.248783093003738,-0.327885862516213,0.223880369268329
1580423755.38852,0.262455176623178,-0.231204699778743,0.0915541313801782
1580423755.39252,0.35962462806134,-0.245853360799572,-0.157961394674601
1580423755.39652,0.329350728618294,-0.519295033188373,-0.404058899824522
1580423755.40052,0.283451590753032,-0.836194399938964,-0.462165255207141
1580423755.40452,0.0261234454871442,-1.05250629434653,-0.526619363698787
1580423755.40852,-0.307377737087053,-1.20778210116731,-0.521736476691844
1580423755.41251,-0.620370794232089,-1.17018387121385,-0.156984817273212
1580423755.41651,-0.820080872816053,-1.06617837796597,0.0231937132829785
1580423755.42051,-0.912855725947967,-0.991958495460441,-0.00610360875867855
1580423755.42451,-1.00563057907988,-0.777111467154956,-0.0490730144197755
1580423755.42851,-1.03053330281529,-0.499763485160601,-0.0500495918211641
1580423755.43251,-0.990981918059052,-0.376226443884947,-0.159914549477378
1580423755.43651,-0.909437705043107,-0.496345464255741,-0.411383230334936
1580423755.44051,-0.824475471122302,-0.714610513466086,-0.635019455252918
1580423755.4445,-0.779064621957733,-0.927504386968796,-0.720958266575112
1580423755.4485,-0.768322270542459,-1.11793698023957,-0.679453727016098
1580423755.4525,-0.751720454718853,-1.2600289921416,-0.587655451285572
1580423755.45651,-0.775158312352179,-1.29079118028534,-0.468513008316167
1580423755.46051,-0.812756542305639,-1.20094605935759,-0.382085908293279
1580423755.46451,-0.790783550774396,-1.10133516441596,-0.379156176089113
1580423755.46851,-0.714610513466086,-1.10817120622568,-0.474372472724498
1580423755.47251,-0.69800869764248,-1.13112077515831,-0.530037384603647
1580423755.47651,-0.739513237201495,-1.04127565423056,-0.575936522468909
1580423755.4805,-0.697520408941786,-0.979751277943084,-0.648691538872358
1580423755.4845,-0.614511329823758,-1.01490806439307,-0.70826276035706
1580423755.4885,-0.648691538872358,-1.04127565423056,-0.655039291981383
1580423755.4925,-0.760021362630656,-0.982192721446555,-0.536385137712672
1580423755.4965,-0.81177996490425,-0.93141069657435,-0.44605172808423
1580423755.5005,-0.819592584115359,-0.99293507286183,-0.462653543907836
1580423755.5045,-0.879163805600061,-1.10035858701457,-0.468513008316167
1580423755.5085,-1.01539635309377,-1.06178377965972,-0.429449912260624
1580423755.5125,-1.08717479209583,-0.989028763256275,-0.427496757457847
1580423755.51649,-1.09645227740902,-0.966079194323644,-0.489997711146716
1580423755.52049,-1.11549553673609,-1.00904859998474,-0.54859235523003
1580423755.52449,-1.19996948195621,-0.998306248569467,-0.513923857480735
1580423755.52849,-1.28834973678187,-0.901625085831999,-0.465094987411307
1580423755.53249,-1.31569390402075,-0.851819638361182,-0.491462577248798
1580423755.53647,-1.3283894102388,-0.893324177920196,-0.536873426413367
1580423755.54047,-1.39577325093462,-0.925551232166018,-0.566659037155718
1580423755.54447,-1.48464179446098,-0.894789044022279,-0.608163576714732
1580423755.54846,-1.53591210803387,-0.884046692607004,-0.643808651865415
1580423755.55246,-1.57546349279011,-0.932387273975738,-0.668223086900129
1580423755.55646,-1.68679331654841,-0.985610742351415,-0.684824902723735
1580423755.56046,-1.8669718471046,-1.00172426947433,-0.659433890287632
1580423755.56446,-2.01052872510872,-1.0041657129778,-0.625253681239032
1580423755.56846,-2.06765850308995,-0.998794537270161,-0.613534752422369
1580423755.57246,-2.07937743190661,-0.953871976806287,-0.595956359197375
1580423755.57646,-2.0632639047837,-0.831311512932022,-0.611093308918898
1580423755.58045,-2.02273594262608,-0.643808651865415,-0.623300526436255
1580423755.58445,-1.95779354543374,-0.482673380636301,-0.642832074464026
1580423755.58845,-1.90701152056153,-0.399176012817579,-0.706797894254978
1580423755.59245,-1.92068360418097,-0.306401159685665,-0.750255588616771
1580423755.59645,-2.00076295109483,-0.146730754558632,-0.720469977874417
1580423755.60045,-2.0378728923476,0.0231937132829785,-0.683848325322346
1580423755.60445,-2.01687647821775,0.157473105973907,-0.72877088578622
1580423755.60845,-1.97293049515526,0.2605020218204,-0.754161898222325
1580423755.61244,-1.91433585107195,0.382574196993971,-0.695567254139009
1580423755.61645,-1.83865110246433,0.499275196459905,-0.612069886320286
1580423755.62045,-1.74880598153658,0.577401388570994,-0.542244602121004
1580423755.62445,-1.65651941710536,0.656504158083468,-0.445075150682841
1580423755.62845,-1.57497520408942,0.780041199359122,-0.359624628061342
1580423755.63245,-1.47585259784848,0.894789044022279,-0.307377737087053
1580423755.63645,-1.36354619668879,0.971450370031281,-0.247806515602349
1580423755.64045,-1.2688181887541,1.04078736552987,-0.218020904859998
1580423755.64445,-1.19801632715343,1.12135500114443,-0.187258716716258
1580423755.64844,-1.14967574578469,1.17750820172427,-0.146242465857938
1580423755.65244,-1.11403067063401,1.17701991302357,-0.121828030823224
1580423755.65644,-1.07985046158541,1.10280003051804,-0.132082093537804
1580423755.66044,-1.05934233615625,0.99977111467155,-0.135988403143358
1580423755.66444,-1.08180361638819,0.896253910124361,-0.128664072632944
1580423755.66844,-1.12672617685206,0.793713282978562,-0.146242465857938
1580423755.67244,-1.17213702601663,0.696055542839705,-0.162355992980849
1580423755.67644,-1.21657129777981,0.6110933089189,-0.182864118410009
1580423755.68043,-1.26784161135271,0.502204928664074,-0.206301976043335
1580423755.68443,-1.31862363622492,0.369390402075226,-0.173586633096818
1580423755.68843,-1.36696421759365,0.233646143282215,-0.140383001449607
1580423755.69243,-1.39284351873045,0.0642099641412983,-0.12475776302739
1580423755.69641,-1.40749217975128,-0.118410009918364,-0.117433432516975
1580423755.70041,-1.43239490348669,-0.241458762493323,-0.10083161669337
1580423755.70441,-1.45973907072557,-0.298100251773862,-0.099855039291981
1580423755.70841,-1.48366521705959,-0.340581368734265,-0.0544441901274126
1580423755.71241,-1.51296253910124,-0.368902113374533,-0.01196307316701
1580423755.7164,-1.5510490577554,-0.358648050659953,0.0187991149767299
1580423755.7204,-1.58815899900816,-0.371343556878005,0.0104982070649271
1580423755.7244,-1.60915541313802,-0.452399481193256,-0.125734340428778
1580423755.7284,-1.59938963912413,-0.489509422446021,-0.326909285114825
1580423755.7324,-1.6018310826276,-0.396734569314107,-0.43579766536965
1580423755.7364,-1.6531013962005,-0.219974059662775,-0.457770656900893
1580423755.7404,-1.70046540016785,-0.0354009308003356,-0.47681391622797
1580423755.7444,-1.72878614480812,0.133058670939192,-0.47339589532311
1580423755.74839,-1.74245822842756,0.28784618905928,-0.438727397573816
1580423755.75239,-1.75906004425116,0.41089494163424,-0.399664301518273
1580423755.75639,-1.76687266346227,0.480231937132828,-0.35376516365301
1580423755.76039,-1.78103303578241,0.507087815671017,-0.327397573815519
1580423755.76439,-1.80886549172198,0.509529259174489,-0.326909285114825
1580423755.76839,-1.84499885557336,0.490485999847408,-0.370366979476616
1580423755.77239,-1.87917906462196,0.449469748989088,-0.410894941634242
1580423755.7764,-1.88552681773098,0.408941786831463,-0.438727397573816
1580423755.7804,-1.86111238269627,0.378179598687723,-0.443610284580759
1580423755.78439,-1.79665827420462,0.350835431448843,-0.430426489662013
1580423755.78839,-1.70046540016785,0.333257038223849,-0.413824673838407
1580423755.79239,-1.57985809109636,0.320561532005797,-0.409430075532159
1580423755.79639,-1.44069581139849,0.320073243305103,-0.404547188525216
1580423755.80039,-1.30153353170062,0.330327306019683,-0.406988632028687
1580423755.80439,-1.17018387121385,0.360112916762034,-0.420660715648127
1580423755.80839,-1.05348287174792,0.406012054627297,-0.431403067063401
1580423755.81239,-0.960708018616007,0.459235523002974,-0.440192263675899
1580423755.81639,-0.891859311818113,0.518318455786986,-0.433356221866179
1580423755.82038,-0.844007019150073,0.572518501564051,-0.427496757457847
1580423755.82438,-0.819592584115359,0.610605020218205,-0.431403067063401
1580423755.82838,-0.805920500495919,0.619882505531397,-0.436285954070344
1580423755.83238,-0.792248416876479,0.601327534905014,-0.44263370717937
1580423755.83638,-0.783459220263982,0.562264438849471,-0.441168841077287
1580423755.84038,-0.759533073929962,0.494880598153657,-0.451422903791867
1580423755.84438,-0.727306019684137,0.412848096437017,-0.45288776989395
1580423755.84837,-0.685801480125123,0.320073243305103,-0.45288776989395
1580423755.85237,-0.645761806668192,0.225833524071106,-0.447028305485619
1580423755.85635,-0.607186999313344,0.159914549477378,-0.403570611123827
1580423755.86035,-0.572030212863355,0.135500114442664,-0.322026398107882
1580423755.86435,-0.532967116807813,0.130617227435721,-0.260013733119708
1580423755.86835,-0.472419317921721,0.136964980544747,-0.236087586785686
1580423755.87235,-0.406012054627299,0.147707331960021,-0.242435339894712
1580423755.87635,-0.337651636530099,0.170656900892652,-0.254642557412071
1580423755.88035,-0.279545281147479,0.196047913328755,-0.257084000915542
1580423755.88434,-0.239017318989852,0.204348821240558,-0.261478599221791
1580423755.88834,-0.218509193560692,0.184328984512092,-0.279056992446785
1580423755.89234,-0.217044327458609,0.129152361333638,-0.282475013351645
1580423755.89634,-0.23657587548638,0.0363775082017241,-0.283451590753033
1580423755.90034,-0.289799343862059,-0.0769054703593497,-0.268314641031511
1580423755.90434,-0.373785000381476,-0.168215457389181,-0.245853360799572
1580423755.90834,-0.474860761425193,-0.234134431982909,-0.220950637064163
1580423755.91234,-0.586190585183489,-0.263920042725262,-0.175051499198901
1580423755.91633,-0.706797894254978,-0.255619134813459,-0.149660486762798
1580423755.92033,-0.800549324788282,-0.231204699778743,-0.129152361333638
1580423755.92433,-0.875745784695201,-0.205325398641946,-0.133058670939192
1580423755.92833,-0.940199893186847,-0.190188448920424,-0.143801022354467
1580423755.93233,-0.997817959868772,-0.189700160219729,-0.148195620660715
1580423755.93634,-1.0642252231632,-0.200442511635003,-0.126710917830167
1580423755.94034,-1.13160906385901,-0.222415503166246,-0.120363164721141
1580423755.94434,-1.20387579156176,-0.251224536507211,-0.114015411612115
1580423755.94834,-1.27418936446174,-0.289799343862059,-0.11108567940795
1580423755.95233,-1.34645609216449,-0.334721904325933,-0.0920424200808725
1580423755.95633,-1.41872281986725,-0.395269703212024,-0.0817883573662925
1580423755.96033,-1.4826886396582,-0.484626535439078,-0.102784771496147
1580423755.96433,-1.53933012893873,-0.601327534905012,-0.0988784618905925
1580423755.96833,-1.59743648432135,-0.693614099336232,-0.041260395208667
1580423755.97233,-1.64675364309148,-0.761974517433433,0.00512703135728998
1580423755.97633,-1.68044556343938,-0.827893492027162,0.0529793240253298
1580423755.98033,-1.7131609063859,-0.892835889219501,0.0876478217746239
1580423755.98432,-1.73708705271992,-0.971938658731975,0.0695811398489354
1580423755.98832,-1.76198977645533,-1.07643244068055,0.0358892195010299
1580423755.99232,-1.7820096131838,-1.18971541924163,0.01196307316701
1580423755.99632,-1.79421683070115,-1.32448310063325,-0.0441901274128327
1580423756.00032,-1.80202944991226,-1.4655985351339,-0.0949721522850382
1580423756.00432,-1.8074006256199,-1.60622568093385,-0.120363164721141
1580423756.00832,-1.79372854200046,-1.76296635385672,-0.123292896925307
1580423756.01232,-1.7727321278706,-1.94607461661708,-0.126710917830167
1580423756.0163,-1.73464560921645,-2.14822613870451,-0.148683909361409
1580423756.02029,-1.70388342107271,-2.33035782406348,-0.182375829709315
1580423756.02429,-1.661890592813,-2.49295796139467,-0.225345235370412
1580423756.02829,-1.6189211871519,-2.65018692301823,-0.262943465323874
1580423756.03229,-1.57888151369497,-2.82011139085985,-0.269291218432899
1580423756.03629,-1.55202563515679,-2.99736018921187,-0.286381322957199
1580423756.04029,-1.53249408712901,-3.17705043106737,-0.327397573815519
1580423756.04429,-1.49196612497139,-3.32500190737774,-0.354253452353705
1580423756.04829,-1.42360570687419,-3.41045242999924,-0.359136339360647
1580423756.05228,-1.30006866559854,-3.43682001983673,-0.369390402075227
1580423756.05628,-1.13258564126039,-3.42851911192493,-0.38110933089189
1580423756.06028,-0.926527809567407,-3.39580376897841,-0.409918364232853
1580423756.06428,-0.716075379568169,-3.35722896162356,-0.438727397573816
1580423756.06828,-0.51441214618143,-3.34355687800412,-0.462653543907836
1580423756.07228,-0.344975967040513,-3.35088120851453,-0.469001297016861
1580423756.07628,-0.214602883955138,-3.38261997405966,-0.448981460288396
1580423756.08028,-0.135988403143358,-3.3792019531548,-0.431891355764096
1580423756.08428,-0.0715342946517126,-3.32109559777218,-0.419195849546044
1580423756.08827,-0.00805676356145568,-3.21367208361944,-0.449958037689784
1580423756.09227,0.0505378805218584,-3.07597467002365,-0.448981460288396
1580423756.09628,0.0930189974822611,-2.91923399710079,-0.389898527504387
1580423756.10028,0.113038834210727,-2.74833295185779,-0.312260624093996
1580423756.10428,0.0788586251621268,-2.54081025406271,-0.239017318989852
1580423756.10828,-0.0554207675288012,-2.35965514610514,-0.275150682841231
1580423756.11228,-0.0290531776913099,-2.22684061951629,-0.366460669871062
1580423756.11628,0.024170290684367,-2.06082246128023,-0.40161745632105
1580423756.12028,-0.0124513618677042,-1.89138628213932,-0.841077286945907
1580423756.12427,0.0437018387121384,-1.68630502784771,-1.15651178759441
1580423756.12827,0.0266117341878385,-1.83620965896086,-1.24147402151522
1580423756.13227,-0.263920042725262,-1.59108873121233,-1.56227969787137
1580423756.13627,-0.777111467154956,-0.743907835507743,-1.34108491645686
1580423756.14027,-1.00660715648127,-0.0510261692225527,-0.95875486381323
1580423756.14427,-1.02809185931182,0.530525673304343,-0.949965667200733
1580423756.14827,-1.0979171435111,1.16041809719997,-1.24635690852216
1580423756.15226,-1.2688181887541,1.53200579842832,-1.28102540627146
1580423756.15626,-1.50026703288319,1.26735332265202,-1.06129549095903
1580423756.16026,-1.88259708552682,0.276615548943312,-1.10182345311665
1580423756.16426,-2.64286259250782,-0.903089951934081,-1.27223620965896
1580423756.16826,-3.38310826276036,-1.88064393072404,-1.16285954070344
1580423756.17226,-3.51738765545129,-2.99784847791257,-0.654062714579995
1580423756.17624,-3.42803082322423,-2.63846799420157,0.123292896925307
1580423756.18024,-3.06083772030213,-1.16676585030899,0.635507743953614
1580423756.18424,-2.2517433432517,-1.0808270389868,0.701426718547342
1580423756.18824,-1.31032272831312,-1.03590447852293,0.270267795834286
1580423756.19223,-0.0129396505683985,-1.23512626840619,-0.125734340428778
1580423756.19623,1.03346303501946,-1.42360570687419,-0.461676966506447
1580423756.20023,1.05445944914931,-1.38503089951934,-0.52808422980087
1580423756.20423,0.788342107270925,-1.04615854123751,-0.291264209964142
1580423756.20823,0.679942015716794,-0.761974517433433,-0.0817883573662925
1580423756.21223,0.27417410543984,-0.762462806134128,-0.168703746089875
1580423756.21623,-0.224368657969023,-0.899183642328527,-0.396734569314107
1580423756.22022,-0.50074006256199,-1.0041657129778,-0.390875104905776
1580423756.22422,-0.751720454718853,-1.02565041580835,-0.0490730144197755
1580423756.22822,-1.04322880903334,-0.976333257038224,0.00903334096284425
1580423756.23222,-1.19703974975204,-0.930922407873656,-0.162355992980849
1580423756.23622,-1.225848783093,-0.917250324254216,-0.259525444419014
1580423756.24022,-1.16969558251316,-0.973891813534753,-0.410894941634242
1580423756.24422,-1.13112077515831,-1.0720378423743,-0.622323949034866
1580423756.24822,-1.08522163729305,-1.20143434805829,-0.7390249485008
1580423756.25221,-1.01490806439307,-1.30788128480964,-0.678477149614709
1580423756.25622,-1.0129549095903,-1.32106507972839,-0.509529259174487
1580423756.26022,-1.07350270847639,-1.19362172884718,-0.365972381170367
1580423756.26422,-1.06569008926528,-1.04322880903334,-0.316655222400245
1580423756.26822,-0.971450370031281,-1.0036774242771,-0.402594033722439
1580423756.27222,-0.88014038300145,-1.0124666208896,-0.515388723582818
1580423756.27622,-0.827405203326467,-0.993911650263218,-0.624277103837644
1580423756.28022,-0.775158312352179,-0.937758449683376,-0.684824902723735
1580423756.28422,-0.719005111772335,-0.87672236209659,-0.738536659800106
1580423756.28821,-0.6877546349279,-0.86988632028687,-0.740489814602883
1580423756.29221,-0.707774471656366,-0.856702525368124,-0.687266346227206
1580423756.29621,-0.74244296940566,-0.809826810101473,-0.608163576714732
1580423756.30021,-0.746349279011215,-0.780041199359122,-0.593514915693904
1580423756.30421,-0.734630350194552,-0.843030441748684,-0.615487907225146
1580423756.30821,-0.793224994277868,-0.922133211261158,-0.618417639429312
1580423756.31221,-0.894789044022279,-0.993423361562524,-0.603280689707789
1580423756.31621,-1.01686121919585,-1.04225223163195,-0.574959945067521
1580423756.3202,-1.14772259098192,-1.06861982146944,-0.561776150148775
1580423756.3242,-1.29176775768673,-1.06324864576181,-0.548104066529335
1580423756.3282,-1.40505073624781,-1.0295567254139,-0.599862668802929
1580423756.3322,-1.47731746395056,-1.0036774242771,-0.594979781795987
1580423756.33618,-1.50514991989014,-1.00709544518196,-0.655527580682078
1580423756.34018,-1.56667429617761,-1.04127565423056,-0.663340199893186
1580423756.34418,-1.68972304875257,-1.03102159151598,-0.632578011749446
1580423756.34818,-1.82009613183795,-0.992446784161135,-0.583260852979324
1580423756.35218,-1.91189440756848,-0.937758449683376,-0.576913099870298
1580423756.35617,-1.96511787594415,-0.882093537804227,-0.583260852979324
1580423756.36017,-2.00662241550317,-0.807873655298696,-0.602792401007095
1580423756.36417,-2.04715037766079,-0.706309605554283,-0.623788815136949
1580423756.36817,-2.0720531013962,-0.595956359197375,-0.623300526436255
1580423756.37217,-2.09256122682536,-0.512947280079347,-0.618905928130006
1580423756.37617,-2.16433966582742,-0.399664301518273,-0.612069886320286
1580423756.38017,-2.24686045624475,-0.235111009384298,-0.638437476157778
1580423756.38417,-2.28982986190585,-0.0803234912642097,-0.671641107804989
1580423756.38816,-2.27859922178988,-0.00317387655451284,-0.711192492561226
1580423756.39216,-2.25027847714962,0.0100099183642328,-0.723887998779277
1580423756.39616,-2.22879377431907,0.0422369726100555,-0.681406881818875
1580423756.40016,-2.17605859464408,0.154055085069047,-0.609140154116121
1580423756.40416,-2.05935759517815,0.285404745555809,-0.551522087434195
1580423756.40816,-1.89968719005112,0.40405889982452,-0.491950865949493
1580423756.41216,-1.75368886854353,0.50513466086824,-0.427008468757153
1580423756.41617,-1.62038605325399,0.603280689707791,-0.295170519569696
1580423756.42017,-1.48464179446098,0.693614099336234,-0.164309147783626
1580423756.42417,-1.33180743114366,0.741954680704968,-0.0803234912642097
1580423756.42816,-1.21217669947356,0.826428625925079,0.0256351567864499
1580423756.43216,-1.12526131074998,0.944106202792401,0.0988784618905925
1580423756.43616,-1.04225223163195,0.981704432745861,0.139894712748912
1580423756.44016,-0.97926298924239,0.96900892652781,0.150637064164187
1580423756.44416,-0.95191882200351,0.908949416342413,0.169192034790569
1580423756.44816,-0.946059357595178,0.818127718013276,0.174563210498206
1580423756.45216,-0.974380102235447,0.727794308384833,0.169192034790569
1580423756.45615,-1.03736934462501,0.626230258640422,0.135011825741969
1580423756.46015,-1.12037842374304,0.51197070267796,0.0983901731898982
1580423756.46415,-1.19996948195621,0.387457084000914,0.0559090562294955
1580423756.46815,-1.26198214694438,0.231204699778743,0.0158693827725642
1580423756.47215,-1.33278400854505,0.0749523155565726,-0.0104982070649271
1580423756.47615,-1.42360570687419,-0.0598153658350498,0.00219729915312428
1580423756.48015,-1.5251697566186,-0.206301976043335,0.00805676356145568
1580423756.48415,-1.64138246738384,-0.361577782864119,-0.01196307316701
1580423756.48814,-1.78933394369421,-0.416266117341879,0.00952162966353853
1580423756.49214,-1.90798809796292,-0.41187151903563,0.0461432822156098
1580423756.49612,-1.909452964065,-0.510505836575875,-0.0207522697795071
1580423756.50012,-1.84206912336919,-0.667246509498741,-0.233646143282215
1580423756.50412,-1.8157015335317,-0.719005111772335,-0.426031891355764
1580423756.50812,-1.84499885557336,-0.637949187457084,-0.455817502098116
1580423756.51212,-1.88162050812543,-0.477790493629358,-0.422613870450904
1580423756.51612,-1.89529259174487,-0.298588540474556,-0.411383230334936
1580423756.52012,-1.90701152056153,-0.145754177157244,-0.386968795300222
1580423756.52411,-1.92019531548028,0.00415045395590141,-0.378667887388419
1580423756.52811,-1.92947280079347,0.160402838178072,-0.390875104905776
1580423756.53211,-1.92898451209278,0.30151827267872,-0.41870756084535
1580423756.53611,-1.9016403448539,0.40405889982452,-0.490974288548104
1580423756.54011,-1.8586709391928,0.45874723430228,-0.586190585183489
1580423756.54411,-1.8157015335317,0.473884184023802,-0.675547417410543
1580423756.54811,-1.78884565499352,0.450446326390477,-0.707774471656366
1580423756.55211,-1.7727321278706,0.422613870450903,-0.697032120241092
1580423756.5561,-1.77956816968032,0.395269703212023,-0.647714961470969
1580423756.5601,-1.80495918211643,0.394781414511328,-0.597421225299458
1580423756.5641,-1.850370031281,0.41773098344396,-0.545662623025864
1580423756.5681,-1.88259708552682,0.467048142214082,-0.516853589684901
1580423756.5721,-1.88357366292821,0.534431982909897,-0.512458991378653
1580423756.57611,-1.83669794766156,0.608651865415428,-0.513435568780041
1580423756.58011,-1.74245822842756,0.693614099336234,-0.498786907759213
1580423756.58411,-1.60769054703593,0.766857404440376,-0.458258945601587
1580423756.58811,-1.45973907072557,0.819592584115359,-0.408941786831464
1580423756.5921,-1.31813534752422,0.84596017395285,-0.36743724727245
1580423756.5961,-1.19606317235065,0.838147554741742,-0.362554360265507
1580423756.6001,-1.07838559548333,0.796154726482033,-0.377203021286336
1580423756.6041,-0.97926298924239,0.734142061493859,-0.391851682307164
1580423756.6081,-0.906996261539636,0.665781643396659,-0.388921950102999
1580423756.6121,-0.856702525368124,0.605722133211263,-0.390875104905776
1580423756.6161,-0.815686274509805,0.560311284046694,-0.402105745021744
1580423756.6201,-0.790295262073702,0.530037384603649,-0.410894941634242
1580423756.6241,-0.77076371404593,0.516365300984209,-0.421637293049516
1580423756.62809,-0.761974517433433,0.532967116807814,-0.421149004348822
1580423756.63209,-0.748790722514686,0.567635614557108,-0.416266117341879
1580423756.63609,-0.732677195391775,0.604745555809874,-0.397222858014802
1580423756.64009,-0.707774471656366,0.63160143434806,-0.363530937666896
1580423756.64409,-0.666758220798046,0.63501945525292,-0.330815594720379
1580423756.64809,-0.616952773327229,0.613534752422371,-0.287357900358588
1580423756.65209,-0.553475242236972,0.574959945067523,-0.248294804303043
1580423756.65607,-0.489021133745327,0.524177920195317,-0.207766842145418
1580423756.66006,-0.423590447852293,0.472907606622414,-0.180910963607232
1580423756.66406,-0.363042648966202,0.420660715648125,-0.161867704280155
1580423756.66806,-0.310307469291219,0.366948958571754,-0.165285725185015
1580423756.67206,-0.270756084534982,0.30493629358358,-0.175539787899595
1580423756.67606,-0.249271381704432,0.248783093003738,-0.200930800335698
1580423756.68006,-0.248783093003738,0.206301976043335,-0.209719996948195
1580423756.68406,-0.277103837644008,0.178469520103761,-0.195071335927366
1580423756.68806,-0.324956130312048,0.166262302586404,-0.179934386205844
1580423756.69205,-0.393316548409247,0.159426260776684,-0.164797436484321
1580423756.69605,-0.477790493629358,0.158449683375295,-0.148195620660715
1580423756.70005,-0.578377965972381,0.158937972075989,-0.144289311055161
1580423756.70405,-0.683360036621652,0.157961394674601,-0.134523537041275
1580423756.70805,-0.782970931563288,0.146730754558632,-0.144777599755855
1580423756.71205,-0.877698939497979,0.125246051728084,-0.144289311055161
1580423756.71605,-0.967055771725033,0.0891126878767068,-0.134523537041275
1580423756.72005,-1.04811169604028,0.0397955291065841,-0.141847867551689
1580423756.72405,-1.12965590905623,-0.0227054245822842,-0.136476691844052
1580423756.72804,-1.2175478751812,-0.0881361104753182,-0.125734340428778
1580423756.73204,-1.3034866865034,-0.170168612191958,-0.11108567940795
1580423756.73605,-1.38796063172351,-0.245365072098878,-0.118898298619058
1580423756.74005,-1.47829404135195,-0.327397573815519,-0.0988784618905925
1580423756.74405,-1.58376440070191,-0.412359807736324,-0.102784771496147
1580423756.74805,-1.6789806973373,-0.506599526970321,-0.125734340428778
1580423756.75205,-1.7727321278706,-0.594491493095292,-0.123292896925307
1580423756.75605,-1.88796826123446,-0.652597848477912,-0.0729991607537954
1580423756.76005,-1.99002059967956,-0.713633936064697,-0.034424353398947
1580423756.76404,-2.06717021438926,-0.802502479591059,-0.0300297550926985
1580423756.76804,-2.12381170366979,-0.904554818036164,-0.0300297550926985
1580423756.77204,-2.17703517204547,-1.03199816891737,-0.0842298008697639
1580423756.77604,-2.22928206301976,-1.20778210116731,-0.163820859082932
1580423756.78004,-2.29861905851835,-1.41139848935683,-0.235599298084992
1580423756.78404,-2.36307316701,-1.59645990691997,-0.268802929732205
1580423756.78804,-2.37723353933013,-1.75368886854353,-0.300053406576639
1580423756.79204,-2.32156862745098,-1.91677729457542,-0.338139925230793
1580423756.79603,-2.19754329747463,-2.07840085450523,-0.356206607156482
1580423756.80003,-2.02810711833371,-2.21414511329824,-0.38794537270161
1580423756.80403,-1.8240024414435,-2.33279926756695,-0.443121995880064
1580423756.80803,-1.63845273517967,-2.45926604104677,-0.494880598153658
1580423756.81203,-1.49684901197833,-2.59598687724117,-0.535896849011978
1580423756.81601,-1.40163271534295,-2.74296177615015,-0.581795986877241
1580423756.82001,-1.3713588158999,-2.90849164568551,-0.638437476157778
1580423756.82401,-1.3884489204242,-3.04716563668269,-0.723399710078583
1580423756.828,-1.42507057297627,-3.11943236438544,-0.789318684672313
1580423756.832,-1.43630121309224,-3.10820172426947,-0.807873655298696
1580423756.836,-1.40016784924086,-3.06034943160143,-0.812268253604945
1580423756.84,-1.31325246051728,-3.01493858243687,-0.77076371404593
1580423756.844,-1.17311360341802,-3.00956740672923,-0.663340199893186
1580423756.848,-0.984634164950027,-3.0549782558938,-0.529060807202258
1580423756.852,-0.765880827038988,-3.16142519264515,-0.39136339360647
1580423756.856,-0.532967116807813,-3.32597848477913,-0.276615548943314
1580423756.85999,-0.315190356298162,-3.51152819104295,-0.218509193560692
1580423756.86399,-0.138918135347524,-3.6785229266804,-0.175051499198901
1580423756.86799,-0.0202639810788128,-3.78545815213245,-0.184817273212786
1580423756.87199,0.0666514076447697,-3.83038071259632,-0.248294804303043
1580423756.87599,0.156008239871824,-3.77471580071717,-0.288822766460671
1580423756.87999,0.143312733653772,-3.57988860914015,-0.261478599221791
1580423756.88399,0.105226214999618,-3.39385061417563,-0.318120088502328
1580423756.88799,0.167727168688486,-3.18486305027848,-0.355230029755093
1580423756.89199,0.202883955138475,-3.00175478751812,-0.318120088502328
1580423756.896,0.119386587319752,-2.87040512703136,-0.436774242771039
1580423756.89999,0.0930189974822611,-2.69315632867933,-0.797619592584116
1580423756.90399,0.0422369726100555,-2.67704280155642,-0.846936751354239
1580423756.90799,0.0148928053711757,-2.96317998016327,-1.10817120622568
1580423756.91199,-0.434821087968261,-2.63114366369116,-1.28249027237354
1580423756.91599,-1.11012436102846,-1.36208133058671,-1.01881437399863
1580423756.91999,-1.44509040970474,-0.152590218966964,-0.617929350728618
1580423756.92399,-1.42897688258183,0.588632028686963,-0.501228351262684
1580423756.92799,-1.40651560234989,1.30739299610895,-1.08033875028611
1580423756.93198,-1.51589227130541,2.00955214770733,-1.46120393682765
1580423756.93598,-1.73757534142061,2.28787670710307,-1.35036240177005
1580423756.93998,-2.13308918898299,1.28102540627146,-1.30885786221103
1580423756.94398,-2.60672922865644,-0.306889448386359,-1.35719844357977
1580423756.94798,-3.09892423895628,-0.918715190356298,-1.22047760738537
1580423756.95198,-3.24199282825971,-2.3118028534371,-0.906507972838941
1580423756.95598,-3.25322346837568,-5.36507209887846,-0.361089494163425
1580423756.95998,-3.59209582665751,-2.99784847791257,0.786877241168842
1580423756.96397,-2.59647516594186,-2.36649118791486,1.25026321812772
1580423756.96797,-1.24098573281453,-1.6106202792401,0.489997711146714
1580423756.97197,0.176516365300984,-1.46266880292973,0.027588311589227
1580423756.97595,0.888441290913253,-1.320088502327,-0.00708018616006711
1580423756.97995,0.98268101014725,-1.15162890058747,-0.181887541008621
1580423756.98395,0.80152590218967,-0.796154726482033,-0.265873197528039
1580423756.98795,0.576424811169606,-0.596932936598764,-0.431891355764096
1580423756.99195,0.277103837644006,-0.637949187457084,-0.676523994811932
1580423756.99595,-0.157473105973907,-0.683360036621652,-0.55542839703975
1580423756.99994,-0.53833829251545,-0.69800869764248,-0.390386816205082
1580423757.00394,-0.742931258106355,-0.813244831006333,-0.241947051194018
1580423757.00794,-0.90064850843061,-0.985122453650721,-0.225345235370412
