Timestamp_seconds,Gyro_X_s,Gyro_Y_s,Gyro_Z_s
1580423750.4203,3.87579156176093,-0.396734569314049,1.61745632104976
1580423750.4243,3.93682764934761,-0.274662394140478,1.61745632104976
1580423750.42828,4.11993591210808,-0.274662394140478,1.61745632104976
1580423750.43228,4.36408026245522,-0.335698481727377,1.61745632104976
1580423750.43627,4.42511635004189,-0.457770656900948,1.49538414587619
1580423750.44026,4.54718852521546,-0.51880674448762,1.55642023346309
1580423750.44426,4.36408026245522,-0.70191500724809,1.55642023346309
1580423750.44825,4.24200808728165,-0.762951094834762,1.55642023346309
1580423750.45224,4.11993591210808,-0.823987182421661,1.55642023346309
1580423750.45624,4.05889982452118,-0.70191500724809,1.55642023346309
1580423750.46023,3.87579156176093,-0.70191500724809,1.61745632104976
1580423750.46422,3.75371938658736,-0.823987182421661,1.61745632104976
1580423750.46822,3.69268329900046,-0.762951094834762,1.55642023346309
1580423750.47221,3.63164721141379,-0.70191500724809,1.73952849622333
1580423750.4762,3.50957503624022,-0.885023270008332,1.61745632104976
1580423750.4802,3.57061112382689,-1.0070954451819,1.61745632104976
1580423750.48419,3.57061112382689,-1.0681315327688,1.61745632104976
1580423750.48819,3.81475547417404,-1.0681315327688,1.55642023346309
1580423750.49218,4.05889982452118,-1.0681315327688,1.61745632104976
1580423750.49617,4.18097199969475,-1.0070954451819,1.49538414587619
1580423750.50017,4.30304417486832,-0.946059357595232,1.49538414587619
1580423750.50416,4.30304417486832,-0.885023270008332,1.55642023346309
1580423750.50818,4.30304417486832,-0.823987182421661,1.67849240863666
1580423750.51217,4.18097199969475,-0.640878919661191,1.67849240863666
1580423750.51617,3.99786373693451,-0.396734569314049,1.73952849622333
1580423750.52016,3.75371938658736,-0.274662394140478,1.55642023346309
1580423750.52415,3.57061112382689,-0.091554131380235,1.49538414587619
1580423750.52815,3.38750286106665,-0.0305180437933359,1.37331197070262
1580423750.53214,3.38750286106665,0.152590218966907,1.31227588311594
1580423750.53613,3.44853894865332,0.274662394140478,1.19020370794237
1580423750.54013,3.63164721141379,0.152590218966907,1.12916762035547
1580423750.54412,3.75371938658736,0.213626306553806,1.0070954451819
1580423750.54811,4.05889982452118,0.152590218966907,0.885023270008332
1580423750.55211,4.42511635004189,0.0305180437933359,0.885023270008332
1580423750.5561,4.60822461280236,-0.091554131380235,0.946059357595232
1580423750.56009,4.91340505073617,-0.091554131380235,0.946059357595232
1580423750.56409,5.03547722590974,-0.152590218966907,0.946059357595232
1580423750.56808,4.91340505073617,-0.457770656900948,1.0070954451819
1580423750.57207,4.54718852521546,-0.51880674448762,0.946059357595232
1580423750.57607,4.36408026245522,-0.640878919661191,0.885023270008332
1580423750.58006,3.99786373693451,-0.70191500724809,0.946059357595232
1580423750.58405,3.57061112382689,-0.70191500724809,1.0681315327688
1580423750.58804,3.32646677347975,-0.762951094834762,1.0070954451819
1580423750.59204,2.96025024795904,-0.823987182421661,0.946059357595232
1580423750.59603,2.7161058976119,-0.70191500724809,1.12916762035547
1580423750.60002,2.41092545967808,-0.579842832074519,1.12916762035547
1580423750.60402,2.28885328450451,-0.51880674448762,1.0681315327688
1580423750.60801,2.10574502174404,-0.396734569314049,1.0070954451819
1580423750.612,1.98367284657047,-0.335698481727377,1.0681315327688
1580423750.616,1.73952849622333,-0.152590218966907,1.12916762035547
1580423750.61999,1.73952849622333,-0.091554131380235,1.19020370794237
1580423750.62398,1.55642023346309,-0.091554131380235,1.19020370794237
1580423750.62798,1.55642023346309,0.0305180437933359,1.12916762035547
1580423750.63197,1.49538414587619,0.213626306553806,1.12916762035547
1580423750.63596,1.25123979552905,0.274662394140478,1.19020370794237
1580423750.63996,1.25123979552905,0.457770656900948,1.25123979552905
1580423750.64395,1.0070954451819,0.51880674448762,1.25123979552905
1580423750.64795,1.0681315327688,0.51880674448762,1.31227588311594
1580423750.65194,0.823987182421661,0.396734569314049,1.37331197070262
1580423750.65593,0.640878919661191,0.396734569314049,1.37331197070262
1580423750.65993,0.579842832074519,0.152590218966907,1.25123979552905
1580423750.66392,0.396734569314049,0.152590218966907,1.25123979552905
1580423750.66791,0.335698481727377,0.0305180437933359,1.25123979552905
1580423750.6719,0.51880674448762,-0.152590218966907,1.19020370794237
1580423750.67589,0.640878919661191,-0.213626306553806,1.19020370794237
1580423750.67989,0.640878919661191,-0.152590218966907,1.0681315327688
1580423750.68388,0.70191500724809,-0.152590218966907,1.0070954451819
1580423750.68788,0.762951094834762,-0.335698481727377,0.885023270008332
1580423750.69187,0.762951094834762,-0.335698481727377,0.823987182421661
1580423750.69586,0.70191500724809,-0.457770656900948,0.823987182421661
1580423750.69985,0.823987182421661,-0.274662394140478,0.885023270008332
1580423750.70385,0.885023270008332,-0.152590218966907,0.823987182421661
1580423750.70784,0.823987182421661,-0.335698481727377,0.762951094834762
1580423750.71184,0.885023270008332,-0.213626306553806,0.762951094834762
1580423750.71583,0.946059357595232,-0.152590218966907,0.70191500724809
1580423750.71982,1.0070954451819,-0.091554131380235,0.885023270008332
1580423750.72382,0.946059357595232,-0.0305180437933359,0.762951094834762
1580423750.72781,1.0070954451819,0.091554131380235,0.70191500724809
1580423750.7318,1.0070954451819,0.091554131380235,0.640878919661191
1580423750.7358,1.0070954451819,0.152590218966907,0.457770656900948
1580423750.73979,0.946059357595232,0.335698481727377,0.396734569314049
1580423750.74378,1.0681315327688,0.396734569314049,0.51880674448762
1580423750.7478,1.25123979552905,0.335698481727377,0.457770656900948
1580423750.7518,1.31227588311594,0.213626306553806,0.396734569314049
1580423750.75579,1.49538414587619,0.274662394140478,0.335698481727377
1580423750.75978,1.43434805828952,0.335698481727377,0.335698481727377
1580423750.76378,1.55642023346309,0.091554131380235,0.457770656900948
1580423750.76777,1.43434805828952,-0.091554131380235,0.457770656900948
1580423750.77176,1.49538414587619,-0.213626306553806,0.457770656900948
1580423750.77576,1.37331197070262,-0.213626306553806,0.51880674448762
1580423750.77975,1.37331197070262,-0.396734569314049,0.579842832074519
1580423750.78374,1.19020370794237,-0.396734569314049,0.457770656900948
1580423750.78774,1.0681315327688,-0.274662394140478,0.51880674448762
1580423750.79173,1.0681315327688,-0.091554131380235,0.51880674448762
1580423750.79572,1.0681315327688,-0.152590218966907,0.396734569314049
1580423750.79972,1.12916762035547,-0.152590218966907,0.457770656900948
1580423750.80371,1.0681315327688,-0.0305180437933359,0.457770656900948
1580423750.8077,1.0681315327688,0.091554131380235,0.335698481727377
1580423750.8117,1.31227588311594,0.152590218966907,0.274662394140478
1580423750.81569,1.43434805828952,0.335698481727377,0.396734569314049
1580423750.81969,1.49538414587619,0.457770656900948,0.51880674448762
1580423750.82368,1.49538414587619,0.396734569314049,0.579842832074519
1580423750.82767,1.55642023346309,0.579842832074519,0.70191500724809
1580423750.83166,1.25123979552905,0.762951094834762,0.946059357595232
1580423750.83565,1.12916762035547,0.640878919661191,1.0681315327688
1580423750.83965,1.0681315327688,0.579842832074519,1.0681315327688
1580423750.84364,1.0070954451819,0.70191500724809,0.946059357595232
1580423750.84763,0.946059357595232,0.823987182421661,1.0070954451819
1580423750.85163,1.0681315327688,0.885023270008332,0.946059357595232
1580423750.85562,1.31227588311594,1.0070954451819,0.823987182421661
1580423750.85961,1.49538414587619,1.0681315327688,0.885023270008332
1580423750.86361,1.8616006713969,1.0681315327688,0.946059357595232
1580423750.8676,2.10574502174404,1.0070954451819,0.885023270008332
1580423750.87159,2.34988937209118,1.0070954451819,0.946059357595232
1580423750.87559,2.28885328450451,1.0681315327688,1.0681315327688
1580423750.87958,2.34988937209118,1.0681315327688,1.0681315327688
1580423750.88358,2.41092545967808,1.12916762035547,1.25123979552905
1580423750.88757,2.47196154726475,1.0070954451819,1.43434805828952
1580423750.89156,2.34988937209118,0.946059357595232,1.49538414587619
1580423750.89556,2.04470893415737,0.640878919661191,1.67849240863666
1580423750.89955,1.67849240863666,0.335698481727377,1.73952849622333
1580423750.90354,1.43434805828952,-0.091554131380235,1.73952849622333
1580423750.90756,1.31227588311594,-0.51880674448762,1.67849240863666
1580423750.91155,1.0681315327688,-1.0681315327688,1.80056458381023
1580423750.91555,1.0681315327688,-1.43434805828952,1.55642023346309
1580423750.91954,1.25123979552905,-1.73952849622333,1.43434805828952
1580423750.92354,1.25123979552905,-1.9226367589838,1.19020370794237
1580423750.92753,1.25123979552905,-2.10574502174404,1.0070954451819
1580423750.93152,1.25123979552905,-2.10574502174404,0.762951094834762
1580423750.93552,1.25123979552905,-1.8616006713969,0.579842832074519
1580423750.93951,0.946059357595232,-1.43434805828952,0.457770656900948
1580423750.9435,0.885023270008332,-0.70191500724809,0.396734569314049
1580423750.9475,0.946059357595232,-0.091554131380235,0.396734569314049
1580423750.95149,1.0070954451819,0.457770656900948,0.51880674448762
1580423750.95548,1.31227588311594,1.0070954451819,0.579842832074519
1580423750.95948,1.9226367589838,1.31227588311594,0.70191500724809
1580423750.96347,2.16678110933094,1.31227588311594,0.70191500724809
1580423750.96746,2.59403372243833,1.25123979552905,0.762951094834762
1580423750.97146,2.7771419851988,1.12916762035547,0.762951094834762
1580423750.97545,2.96025024795904,1.19020370794237,0.823987182421661
1580423750.97944,3.32646677347975,1.19020370794237,0.762951094834762
1580423750.98344,3.69268329900046,1.31227588311594,0.70191500724809
1580423750.98743,4.05889982452118,1.49538414587619,0.51880674448762
1580423750.99142,4.42511635004189,1.80056458381023,0.51880674448762
1580423750.99541,4.36408026245522,1.98367284657047,0.396734569314049
1580423750.99941,4.05889982452118,2.10574502174404,0.579842832074519
1580423751.0034,3.69268329900046,2.34988937209118,0.579842832074519
1580423751.00739,3.38750286106665,2.53299763485165,0.70191500724809
1580423751.01139,3.20439459830618,2.59403372243833,0.885023270008332
1580423751.01538,3.26543068589308,2.7161058976119,0.946059357595232
1580423751.01937,3.57061112382689,2.7771419851988,1.0681315327688
1580423751.02337,4.05889982452118,2.7771419851988,1.19020370794237
1580423751.02736,4.48615243762879,2.7161058976119,1.31227588311594
1580423751.03135,4.8523689631495,2.53299763485165,1.37331197070262
1580423751.03535,5.27962157625689,2.22781719691761,1.31227588311594
1580423751.03934,5.46272983901736,2.22781719691761,1.31227588311594
1580423751.04334,5.76791027695117,1.98367284657047,1.19020370794237
1580423751.04733,6.19516289005878,1.80056458381023,1.12916762035547
1580423751.05132,6.43930724040592,1.73952849622333,1.19020370794237
1580423751.05532,6.68345159075307,1.61745632104976,1.0681315327688
1580423751.05931,6.80552376592664,1.73952849622333,1.19020370794237
1580423751.0633,6.80552376592664,1.98367284657047,1.19020370794237
1580423751.06729,6.92759594110021,2.22781719691761,1.25123979552905
1580423751.07128,6.62241550316617,2.28885328450451,1.31227588311594
1580423751.07528,6.37827115281902,2.34988937209118,1.25123979552905
1580423751.07927,6.07309071488521,2.41092545967808,1.19020370794237
1580423751.08326,5.46272983901736,2.28885328450451,1.0070954451819
1580423751.08726,4.91340505073617,2.34988937209118,0.70191500724809
1580423751.09125,4.54718852521546,2.41092545967808,0.457770656900948
1580423751.09524,4.05889982452118,2.28885328450451,0.091554131380235
1580423751.09924,3.87579156176093,2.04470893415737,-0.213626306553806
1580423751.10323,3.93682764934761,1.73952849622333,-0.51880674448762
1580423751.10723,3.93682764934761,1.0681315327688,-0.823987182421661
1580423751.11122,3.87579156176093,0.579842832074519,-1.0681315327688
1580423751.11521,3.38750286106665,0.213626306553806,-1.19020370794237
1580423751.11921,2.96025024795904,-0.335698481727377,-1.55642023346309
1580423751.1232,2.47196154726475,-0.762951094834762,-1.73952849622333
1580423751.12719,1.9226367589838,-1.43434805828952,-1.9226367589838
1580423751.13119,1.25123979552905,-2.04470893415737,-2.10574502174404
1580423751.13518,0.762951094834762,-2.7771419851988,-2.22781719691761
1580423751.13917,0.152590218966907,-3.44853894865332,-2.28885328450451
1580423751.14317,-0.396734569314049,-4.11993591210808,-2.28885328450451
1580423751.14719,-0.823987182421661,-4.73029678797593,-2.10574502174404
1580423751.15118,-1.19020370794237,-5.21858548867021,-1.98367284657047
1580423751.15517,-1.37331197070262,-5.6458381017776,-1.80056458381023
1580423751.15917,-1.49538414587619,-5.88998245212474,-1.49538414587619
1580423751.16316,-1.49538414587619,-6.01205462729831,-1.31227588311594
1580423751.16715,-1.25123979552905,-6.13412680247188,-0.885023270008332
1580423751.17115,-0.885023270008332,-6.07309071488521,-0.579842832074519
1580423751.17514,-0.579842832074519,-5.95101853971164,-0.274662394140478
1580423751.17913,0.091554131380235,-5.88998245212474,0.091554131380235
1580423751.18313,0.640878919661191,-5.6458381017776,0.274662394140478
1580423751.18712,1.25123979552905,-5.6458381017776,0.457770656900948
1580423751.19111,1.98367284657047,-5.27962157625689,0.579842832074519
1580423751.19511,2.65506981002522,-5.15754940108332,0.579842832074519
1580423751.1991,3.38750286106665,-5.15754940108332,0.640878919661191
1580423751.20309,4.24200808728165,-5.27962157625689,0.762951094834762
1580423751.20709,5.46272983901736,-5.58480201419093,0.579842832074519
1580423751.21108,6.5003433279926,-5.88998245212474,0.579842832074519
1580423751.21508,7.35484855420759,-6.5003433279926,0.51880674448762
1580423751.21907,8.33142595559616,-6.92759594110021,0.457770656900948
1580423751.22306,9.30800335698473,-7.47692072938116,0.091554131380235
1580423751.22705,10.0404364080262,-8.14831769283592,-0.0305180437933359
1580423751.23104,10.5287251087204,-8.6366063935302,-0.335698481727377
1580423751.23504,10.7118333714809,-9.06385900663759,-0.640878919661191
1580423751.23903,11.0780498970016,-9.55214770733187,-1.0070954451819
1580423751.24302,11.0170138094147,-9.97940032043948,-1.31227588311594
1580423751.24702,11.0170138094147,-10.4066529335469,-1.43434805828952
1580423751.25101,10.7728694590676,-10.7118333714809,-1.31227588311594
1580423751.255,10.5287251087204,-10.8339055466545,-1.31227588311594
1580423751.259,10.1625085831997,-10.8949416342411,-1.19020370794237
1580423751.26299,10.1625085831997,-10.8339055466545,-1.25123979552905
1580423751.26699,10.2235446707866,-10.650797283894,-1.25123979552905
1580423751.27098,10.3456168459602,-10.5287251087204,-1.12916762035547
1580423751.27497,10.5897611963073,-10.4066529335469,-1.19020370794237
1580423751.27897,10.955977721828,-10.4676890211338,-1.0681315327688
1580423751.28296,11.5663385976959,-10.2845807583733,-0.946059357595232
1580423751.28695,11.9325551232166,-10.2235446707866,-0.70191500724809
1580423751.29095,12.359807736324,-10.4066529335469,-0.213626306553806
1580423751.29494,12.7260242618447,-10.8339055466545,0.335698481727377
1580423751.29893,12.6039520866711,-11.2611581597619,0.885023270008332
1580423751.30293,12.4208438239109,-11.6884107728695,1.61745632104976
1580423751.30694,11.810482948043,-12.0546272983902,1.98367284657047
1580423751.31094,10.8339055466545,-12.2377355611504,2.22781719691761
1580423751.31493,9.55214770733187,-12.1766994735638,2.28885328450451
1580423751.31893,8.45349813076973,-12.4818799114976,2.22781719691761
1580423751.32292,7.47692072938116,-12.4208438239109,2.16678110933094
1580423751.32691,6.80552376592664,-12.1156633859769,2.34988937209118
1580423751.33091,5.88998245212474,-11.2001220721752,2.89921416037237
1580423751.3349,4.7913328755626,-10.1625085831997,3.75371938658736
1580423751.33889,3.08232242313261,-9.4300755321583,4.54718852521546
1580423751.34289,1.12916762035547,-9.18593118181116,5.34065766384379
1580423751.34688,-0.396734569314049,-9.55214770733187,5.76791027695117
1580423751.35087,-1.73952849622333,-10.5287251087204,5.88998245212474
1580423751.35487,-2.16678110933094,-11.9325551232166,5.88998245212474
1580423751.35886,-2.34988937209118,-13.0312046997788,5.82894636453807
1580423751.36285,-2.22781719691761,-13.6415655756466,5.88998245212474
1580423751.36685,-2.65506981002522,-13.7636377508202,5.76791027695117
1580423751.37084,-3.57061112382689,-13.5805294880597,5.7068741893645
1580423751.37484,-4.66926070038903,-13.519493400473,5.34065766384379
1580423751.37883,-5.40169375143046,-14.0077821011673,4.60822461280236
1580423751.38282,-5.27962157625689,-15.0453955901426,3.87579156176093
1580423751.38681,-4.7913328755626,-15.8388647287709,3.32646677347975
1580423751.3908,-4.66926070038903,-16.2661173418783,3.08232242313261
1580423751.3948,-5.58480201419093,-16.3271534294652,3.44853894865332
1580423751.39879,-8.5755703059433,-15.6557564660104,4.60822461280236
1580423751.40278,-13.3974212252995,-14.4350347142747,6.01205462729831
1580423751.40678,-19.195849546044,-14.1908903639276,7.29381246662092
1580423751.41077,-24.1397726405737,-15.1674677653161,8.27038986800949
1580423751.41476,-26.7643244068054,-17.1206225680933,9.24696726939806
1580423751.41876,-26.0318913557639,-19.5620660715647,10.1625085831997
1580423751.42275,-21.9424734874494,-23.468375677119,11.6273746852826
1580423751.42674,-16.083009079118,-27.4967574578468,13.7026016632333
1580423751.43074,-10.2845807583733,-30.8537422751201,15.9609369039445
1580423751.43473,-6.31723506523235,-33.1731136034182,17.792019531548
1580423751.43873,-5.21858548867021,-35.3704127565425,19.195849546044
1580423751.44272,-6.92759594110021,-37.6897840848403,18.9517051956968
1580423751.44671,-10.5897611963073,-39.9481193255513,17.6699473563745
1580423751.45071,-14.8012512397954,-42.7557793545434,15.5336842908368
1580423751.4547,-17.6699473563745,-46.7231250476846,13.0312046997788
1580423751.45869,-19.6231021591516,-51.2397955291067,11.4442664225223
1580423751.46269,-21.4541847867551,-56.9161516746776,10.8339055466545
1580423751.46667,-24.8111696040282,-63.0197604333562,10.2235446707866
1580423751.47067,-30.0602731364918,-69.9778744182497,8.51453421835663
1580423751.47466,-36.2249179827575,-78.156710154879,5.7068741893645
1580423751.47865,-41.4129854276341,-86.8848706797894,1.12916762035547
1580423751.48265,-43.7933928435189,-96.1013199053941,-4.73029678797593
1580423751.48664,-42.328526741436,-104.097047379263,-12.1766994735638
1580423751.49063,-37.9339284351875,-109.529259174487,-20.2944991226061
1580423751.49463,-31.769283588922,-112.764171816587,-27.6798657206073
1580423751.49862,-24.0787365529868,-113.435568780041,-33.4172579537653
1580423751.50262,-15.3505760280766,-110.566872663462,-36.896314946212
1580423751.50661,-6.92759594110021,-104.585336079957,-37.8118562600139
1580423751.5106,0.70191500724809,-96.4065003433282,-36.8352788586253
1580423751.5146,7.35484855420759,-87.1900511177232,-35.0041962310218
1580423751.51859,13.519493400473,-78.0346379797054,-32.8679331654841
1580423751.52258,19.2568856336309,-70.4051270313573,-30.3044174868389
1580423751.52658,23.7125200274661,-65.0949874113069,-27.191577019913
1580423751.53057,26.0929274433508,-62.5314717326619,-23.7125200274661
1580423751.53456,26.2149996185244,-61.4938582436866,-19.8672465094987
1580423751.53856,24.7501335164416,-60.8224612802319,-16.0219729915311
1580423751.54255,22.7359426260775,-59.7238117036698,-12.664988174258
1580423751.54657,21.210040436408,-58.3810177767605,-9.61318379491877
1580423751.55056,20.7827878233004,-56.8551155870909,-6.62241550316617
1580423751.55456,21.5152208743418,-55.4512855725948,-3.57061112382689
1580423751.55855,22.6749065384909,-54.1695277332724,-0.885023270008332
1580423751.56254,23.6514839398794,-53.1929503318838,1.80056458381023
1580423751.56654,24.0177004654001,-52.4605172808424,4.11993591210808
1580423751.57053,23.5294117647059,-52.0943007553217,6.68345159075307
1580423751.57452,22.0035095750361,-51.9111924925612,8.69764248111687
1580423751.57852,19.3789578088044,-52.0943007553217,10.4676890211338
1580423751.58251,15.3505760280766,-52.3994811932555,11.9325551232166
1580423751.5865,10.650797283894,-52.8267338063631,12.4818799114976
1580423751.5905,5.09651331349664,-53.6812390325781,12.359807736324
1580423751.59449,-0.640878919661191,-56.0616464484626,11.505302510109
1580423751.59848,-6.80552376592664,-60.212100404364,9.91836423285258
1580423751.60248,-12.9091325246052,-64.3625543602654,8.20935378042259
1580423751.60647,-17.486839093614,-67.7805752651254,5.40169375143046
1580423751.61047,-20.4776073853666,-72.2362096589609,1.98367284657047
1580423751.61446,-22.1255817502097,-78.6449988555732,-2.34988937209118
1580423751.61845,-23.7125200274661,-86.9459067673761,-6.43930724040592
1580423751.62245,-26.0929274433508,-95.002670328832,-10.0404364080262
1580423751.62643,-29.5109483482108,-100.92317082475,-12.7870603494316
1580423751.63043,-32.3186083772032,-104.402227817197,-15.1064316777295
1580423751.63442,-33.9665827420463,-105.745021744106,-16.9985503929197
1580423751.63841,-35.3093766689556,-105.378805218586,-18.341344319829
1580423751.64241,-36.7132066834517,-103.303578240635,-19.2568856336309
1580423751.6464,-37.750820172427,-100.129701686122,-19.5620660715647
1580423751.65039,-37.6897840848403,-95.9792477302205,-19.3179217212175
1580423751.65439,-36.1638818951706,-90.5470359349965,-18.2192721446554
1580423751.65838,-32.0134279392691,-84.1382467383839,-16.5102616922254
1580423751.66238,-25.1773861295489,-77.607385366598,-13.7636377508202
1580423751.66637,-16.083009079118,-70.8934157320516,-9.36903944457163
1580423751.67036,-6.25619897764545,-65.1560234988938,-3.44853894865332
1580423751.67436,2.10574502174404,-61.066605630579,4.11993591210808
1580423751.67835,8.33142595559616,-58.4420538643474,13.0922407873654
1580423751.68234,12.359807736324,-57.2213321126117,22.064545662623
1580423751.68634,13.9467460135804,-57.0992599374381,30.5485618371861
1580423751.69033,13.9467460135804,-56.3057907988098,37.384603646906
1580423751.69432,14.2519264515145,-54.3526359960326,41.657129777981
1580423751.69832,17.4258030060273,-51.4839398794538,43.3051041428243
1580423751.70231,24.3839169909209,-48.1269550621805,43.2440680552374
1580423751.70633,33.7834744792858,-45.6244754711224,42.9999237048903
1580423751.71032,44.2816815442129,-44.6478980697339,43.6102845807582
1580423751.71432,53.1929503318834,-44.2816815442131,45.2582589456015
1580423751.71831,58.4420538643471,-43.3051041428246,47.5776302738993
1580423751.7223,58.9913786526281,-40.0091554131382,49.5918211642634
1580423751.7263,56.48889906157,-35.3093766689556,51.1177233539329
1580423751.73029,52.3994811932553,-30.7316700999465,52.4605172808419
1580423751.73428,47.2114137483786,-26.3981078812847,53.0098420691234
1580423751.73828,40.6805523765925,-22.0035095750361,52.8267338063629
1580423751.74227,32.4406805523765,-17.0595864805066,51.911192492561
1580423751.74626,22.7969787136644,-12.2987716487373,49.8359655146105
1580423751.75026,13.8857099259938,-8.45349813076973,47.089341573205
1580423751.75425,7.41588464179449,-6.92759594110021,44.4647898069732
1580423751.75824,4.7913328755626,-7.72106507972831,42.511635004196
1580423751.76224,5.40169375143046,-9.4911116197452,42.0233463035017
1580423751.76623,6.43930724040592,-11.0780498970016,42.9388876173036
1580423751.77022,4.66926070038903,-11.9935912108033,44.7699702449072
1580423751.77422,-2.41092545967808,-12.359807736324,46.6010528725108
1580423751.77821,-14.9843595025559,-12.2377355611504,48.2490272373539
1580423751.78221,-31.3420309758146,-11.6273746852826,49.5918211642634
1580423751.78619,-49.7138933394369,-10.7728694590676,50.8125429159991
1580423751.79019,-66.9871061264973,-10.3456168459602,51.9722285801477
1580423751.79418,-79.5605401693751,-9.85732814526591,52.8877698939496
1580423751.79817,-84.7486076142518,-9.30800335698473,53.620202944991
1580423751.80217,-82.1850919356068,-8.75867856870377,54.3526359960324
1580423751.80616,-74.0672922865645,-8.45349813076973,55.1461051346605
1580423751.81015,-63.9963378347447,-8.5755703059433,56.2447547112229
1580423751.81415,-56.0616464484626,-8.33142595559616,57.1602960250248
1580423751.81814,-53.0708781567103,-7.47692072938116,57.3434042877848
1580423751.82213,-55.3292133974212,-5.95101853971164,56.5499351491567
1580423751.82613,-60.4562447547112,-3.99786373693451,54.5357442587929
1580423751.83012,-65.339131761654,-1.80056458381023,51.7280842298005
1580423751.83412,-67.4753948271916,0.0305180437933359,48.1879911497672
1580423751.83811,-65.8884565499352,1.0070954451819,44.3427176317996
1580423751.8421,-60.5172808422981,0.640878919661191,40.6195162890058
1580423751.8461,-53.3760585946441,-0.396734569314049,37.4456397344929
1580423751.85009,-46.2348363469903,-1.31227588311594,34.7600518806744
1580423751.85408,-40.4364080262455,-1.31227588311594,32.6848249027237
1580423751.85808,-36.896314946212,-0.579842832074519,30.6706340123596
1580423751.86207,-35.6755931944763,0.335698481727377,28.8395513847561
1580423751.86606,-35.492484931716,1.0070954451819,27.0695048447394
1580423751.87005,-34.8821240558482,1.12916762035547,25.6656748302432
1580423751.87404,-32.5627527275503,1.19020370794237,24.7501335164416
1580423751.87804,-28.1071183337147,1.19020370794237,24.2618448157473
1580423751.88203,-21.4541847867551,1.31227588311594,24.2618448157473
1580423751.88603,-13.7636377508202,1.43434805828952,24.7501335164416
1580423751.89002,-6.19516289005878,1.73952849622333,25.2994583047225
1580423751.89401,-0.091554131380235,1.55642023346309,26.0318913557639
1580423751.89801,4.97444113832307,1.9226367589838,26.5201800564582
1580423751.902,10.1625085831997,4.30304417486832,26.9474326695658
1580423751.90599,16.4492256046387,7.23277637903402,27.1305409323261
1580423751.90999,23.7125200274661,9.36903944457163,27.5577935454337
1580423751.91398,31.0978866254673,10.2845807583733,28.6564431219958
1580423751.91797,37.1404592965589,10.650797283894,30.3654535744258
1580423751.92197,40.5584802014189,10.8339055466545,32.6237888151368
1580423751.92596,40.1312275883115,10.2235446707866,35.0652323186082
1580423751.92995,37.5677119096665,9.12489509422448,37.5677119096665
1580423751.93395,36.8963149462118,9.73525597009234,39.3377584496832
1580423751.93794,40.6805523765925,12.4818799114976,40.0701915007246
1580423751.94193,47.7607385366596,16.0219729915311,40.2532997634851
1580423751.94595,54.0474555580986,17.5478751812009,40.3753719386586
1580423751.94995,57.2213321126114,19.1348134584573,40.6805523765925
1580423751.95394,57.9537651636529,20.2334630350194,41.2298771648736
1580423751.95793,56.48889906157,19.7451743343252,41.5350576028075
1580423751.96193,52.0943007553215,18.5854886701761,41.4740215152208
1580423751.96592,45.4413672083617,16.5712977798123,40.802624551766
1580423751.96991,39.0325780117494,13.3974212252995,38.6663614862287
1580423751.97391,34.1496910048065,10.3456168459602,34.6990157930875
1580423751.9779,30.2433813992523,7.96520943007545,29.6940566109711
1580423751.98189,25.9098191805904,6.37827115281902,24.5059891660944
1580423751.98589,20.4165712977797,5.40169375143046,19.8062104219118
1580423751.98988,15.1674677653161,4.60822461280236,16.2661173418783
1580423751.99388,10.2845807583733,4.18097199969475,14.1298542763409
1580423751.99787,6.25619897764545,4.42511635004189,12.9091325246052
1580423752.00186,3.14335851071951,4.73029678797593,12.0546272983902
1580423752.00586,1.43434805828952,5.52376592660403,10.650797283894
1580423752.00985,1.98367284657047,7.59899290455473,8.88075074387734
1580423752.01384,5.09651331349664,10.0404364080262,6.98863202868688
1580423752.01784,9.91836423285258,11.9325551232166,5.6458381017776
1580423752.02183,14.5571068894483,13.4584573128861,4.91340505073617
1580423752.02582,17.792019531548,14.9843595025559,4.66926070038903
1580423752.02981,19.9893186846723,16.5102616922254,4.73029678797593
1580423752.0338,22.3697261005568,18.4634164950025,4.73029678797593
1580423752.0378,25.7267109178301,20.4165712977797,4.7913328755626
1580423752.04179,29.3888761730373,22.4307621881437,5.09651331349664
1580423752.04578,32.6848249027237,24.4449530785075,5.52376592660403
1580423752.04978,34.882124055848,26.0318913557639,5.88998245212474
1580423752.05377,34.9431601434346,26.5201800564582,6.31723506523235
1580423752.05777,33.1120775158311,26.3981078812847,6.37827115281902
1580423752.06176,30.6706340123596,25.7877470054168,6.07309071488521
1580423752.06575,28.7174792095825,24.8111696040282,6.01205462729831
1580423752.06975,26.8253604943923,24.1397726405737,6.01205462729831
1580423752.07374,24.2008087281604,24.0787365529868,6.13412680247188
1580423752.07773,20.355535210193,24.1397726405737,6.43930724040592
1580423752.08173,15.228503852903,24.1397726405737,6.62241550316617
1580423752.08572,9.36903944457163,23.6514839398794,6.43930724040592
1580423752.08971,3.08232242313261,22.7969787136644,5.88998245212474
1580423752.09371,-3.44853894865332,21.6983291371023,4.8523689631495
1580423752.0977,-10.5897611963073,20.1724269474325,3.50957503624022
1580423752.10169,-18.0361638818952,18.2192721446554,2.16678110933094
1580423752.10571,-26.337071793698,15.9609369039445,1.0070954451819
1580423752.10971,-34.9431601434349,13.1532768749523,0.396734569314049
1580423752.1137,-42.877851529717,10.0404364080262,0.152590218966907
1580423752.11769,-49.1035324635691,7.23277637903402,0.274662394140478
1580423752.12169,-54.5357442587931,4.7913328755626,0.51880674448762
1580423752.12568,-59.8458838788433,2.96025024795904,0.70191500724809
1580423752.12967,-64.3015182726788,2.16678110933094,0.823987182421661
1580423752.13367,-67.2312504768445,1.98367284657047,0.70191500724809
1580423752.13766,-68.8181887541009,1.67849240863666,1.19020370794237
1580423752.14165,-69.8558022430761,0.946059357595232,1.98367284657047
1580423752.14565,-70.8323796444647,0.0305180437933359,3.02128633554594
1580423752.14964,-71.7479209582666,-0.885023270008332,4.18097199969475
1580423752.15364,-72.9076066224154,-2.28885328450451,5.27962157625689
1580423752.15763,-73.4569314106966,-4.48615243762879,5.7068741893645
1580423752.16162,-73.6400396734568,-6.80552376592664,6.07309071488521
1580423752.16561,-74.0062561989776,-8.81971465629044,5.6458381017776
1580423752.16961,-74.6776531624323,-10.955977721828,4.7913328755626
1580423752.1736,-74.738689250019,-13.3363851377126,3.20439459830618
1580423752.1776,-73.5179674982833,-15.8999008163576,1.19020370794237
1580423752.18159,-70.7103074692911,-18.2803082322423,-0.885023270008332
1580423752.18558,-66.3767452506295,-20.2334630350194,-2.83817807278547
1580423752.18957,-61.066605630579,-22.064545662623,-4.73029678797593
1580423752.19356,-55.7564660105288,-23.4073395895323,-6.25619897764545
1580423752.19756,-50.9956511787595,-24.2618448157473,-7.72106507972831
1580423752.20155,-45.8075837338827,-24.5670252536811,-8.69764248111687
1580423752.20554,-39.9481193255513,-23.6514839398794,-9.36903944457163
1580423752.20954,-33.7224383916991,-22.4307621881437,-10.1625085831997
1580423752.21353,-26.337071793698,-21.0879682612344,-11.3221942473488
1580423752.21753,-16.9985503929197,-19.195849546044,-13.0312046997788
1580423752.22152,-5.76791027695117,-16.2661173418783,-15.1064316777295
1580423752.22551,6.80552376592664,-12.6039520866711,-17.4258030060273
1580423752.22951,19.6841382467383,-8.75867856870377,-19.5620660715647
1580423752.2335,30.9147783627068,-5.03547722590974,-21.0879682612344
1580423752.23749,39.2156862745096,-1.80056458381023,-21.9424734874494
1580423752.24149,44.5868619821467,0.823987182421661,-22.2476539253832
1580423752.24548,47.5776302738993,2.34988937209118,-21.9424734874494
1580423752.24947,48.9814602883953,3.08232242313261,-21.2710765239947
1580423752.25347,48.7983520256348,3.14335851071951,-20.2944991226061
1580423752.25746,46.1738002594032,2.22781719691761,-19.0127412832837
1580423752.26145,40.8636606393529,0.823987182421661,-17.7309834439611
1580423752.26544,33.7834744792858,-1.25123979552905,-16.632333867399
1580423752.26943,26.2760357061111,-3.50957503624022,-15.8388647287709
1580423752.27343,19.6231021591516,-5.21858548867021,-15.228503852903
1580423752.27742,14.0077821011673,-6.74448767833974,-14.923323414969
1580423752.28142,9.55214770733187,-8.75867856870377,-15.0453955901426
1580423752.28541,5.76791027695117,-10.3456168459602,-15.4726482032502
1580423752.2894,2.7161058976119,-10.8949416342411,-16.5712977798123
1580423752.2934,0.091554131380235,-10.5897611963073,-18.1582360570687
1580423752.29739,-2.28885328450451,-9.61318379491877,-19.7451743343252
1580423752.30138,-5.40169375143046,-8.81971465629044,-21.5152208743418
1580423752.30538,-9.06385900663759,-8.6366063935302,-23.2852674143587
1580423752.30937,-14.068818188754,-8.88075074387734,-24.4449530785075
1580423752.31336,-20.355535210193,-9.85732814526591,-25.2994583047225
1580423752.31736,-27.1305409323261,-11.3832303349354,-25.8487830930037
1580423752.32135,-33.6003662165256,-13.2753490501259,-26.337071793698
1580423752.32534,-38.3001449607082,-14.8622873273823,-27.0695048447394
1580423752.32934,-40.5584802014191,-15.8999008163576,-27.8019378957808
1580423752.33333,-40.4364080262455,-16.3271534294652,-28.7174792095825
1580423752.33732,-38.3611810482948,-15.8999008163576,-29.6940566109711
1580423752.34132,-34.8210879682613,-15.228503852903,-30.6706340123596
1580423752.34537,-30.1823453116654,-14.3129625391011,-31.5861753261618
1580423752.34936,-24.6890974288547,-13.1532768749523,-32.074464026856
1580423752.35335,-18.7685969329366,-12.1766994735638,-32.1355001144427
1580423752.35735,-13.7636377508202,-11.6273746852826,-31.7082475013353
1580423752.36134,-10.8949416342411,-11.6273746852826,-30.7927061875332
1580423752.36533,-9.79629205767901,-11.3832303349354,-30.0602731364918
1580423752.36933,-9.4911116197452,-11.6884107728695,-29.5109483482108
1580423752.37332,-9.61318379491877,-12.2987716487373,-29.0836957351032
1580423752.37732,-9.24696726939806,-12.4208438239109,-28.5343709468223
1580423752.38131,-8.20935378042259,-12.0546272983902,-27.9240100709544
1580423752.3853,-7.04966811627378,-11.810482948043,-26.8863965819789
1580423752.3893,-6.56137941557949,-11.505302510109,-25.7877470054168
1580423752.39329,-6.68345159075307,-10.5897611963073,-24.7501335164416
1580423752.39728,-6.19516289005878,-9.67421988250544,-24.0177004654001
1580423752.40128,-4.7913328755626,-8.81971465629044,-23.5294117647059
1580423752.40527,-1.73952849622333,-7.59899290455473,-23.4073395895323
1580423752.40926,1.98367284657047,-6.13412680247188,-23.6514839398794
1580423752.41326,5.7068741893645,-4.30304417486832,-24.0177004654001
1580423752.41725,8.27038986800949,-2.47196154726475,-24.2008087281604
1580423752.42124,10.0404364080262,-1.12916762035547,-24.322880903334
1580423752.42523,11.2611581597619,-0.396734569314049,-24.0787365529868
1580423752.42922,12.4818799114976,0.213626306553806,-23.2242313267718
1580423752.43322,13.4584573128861,0.640878919661191,-22.4307621881437
1580423752.43721,13.9467460135804,0.762951094834762,-21.5762569619287
1580423752.44121,13.7026016632333,0.823987182421661,-20.904859998474
1580423752.4452,13.0312046997788,0.885023270008332,-20.5386434729533
1580423752.44919,12.1156633859769,1.25123979552905,-20.2944991226061
1580423752.45319,10.8949416342411,1.8616006713969,-20.1724269474325
1580423752.45718,10.1014724956131,2.41092545967808,-19.9282825970854
1580423752.46117,9.4911116197452,2.83817807278547,-19.6231021591516
1580423752.46517,8.94178683146401,2.89921416037237,-19.2568856336309
1580423752.46916,8.14831769283592,3.02128633554594,-18.7685969329366
1580423752.47315,7.59899290455473,3.26543068589308,-17.9140917067216
1580423752.47715,6.37827115281902,3.20439459830618,-16.9985503929197
1580423752.48114,4.18097199969475,3.02128633554594,-16.2050812542916
1580423752.48513,0.640878919661191,2.04470893415737,-14.923323414969
1580423752.48913,-4.7913328755626,0.579842832074519,-13.5805294880597
1580423752.49312,-11.810482948043,-1.25123979552905,-12.2987716487373
1580423752.49711,-19.6841382467383,-3.08232242313261,-11.0170138094147
1580423752.50111,-27.6188296330204,-5.03547722590974,-9.67421988250544
1580423752.50513,-35.2483405813689,-6.98863202868688,-8.45349813076973
1580423752.50912,-42.3895628290227,-8.27038986800949,-7.90417334248878
1580423752.51311,-49.7138933394369,-8.51453421835663,-8.08728160524902
1580423752.51711,-57.3434042877852,-8.27038986800949,-8.94178683146401
1580423752.5211,-64.9729152361333,-7.47692072938116,-10.4066529335469
1580423752.52509,-72.4193179217211,-6.31723506523235,-11.9325551232166
1580423752.52909,-78.7060349431601,-4.97444113832307,-12.9701686121919
1580423752.53308,-82.6123445487144,-3.81475547417404,-13.4584573128861
1580423752.53708,-83.9551384756237,-2.89921416037237,-13.4584573128861
1580423752.54107,-83.1616693369954,-2.34988937209118,-13.0922407873654
1580423752.54506,-81.2695506218051,-1.73952849622333,-12.1156633859769
1580423752.54905,-79.316395819028,-1.25123979552905,-10.7728694590676
1580423752.55305,-78.4008545052261,-0.579842832074519,-8.81971465629044
1580423752.55704,-79.011215381094,0.213626306553806,-6.31723506523235
1580423752.56104,-80.720225833524,1.43434805828952,-3.32646677347975
1580423752.56503,-82.7954528114747,3.02128633554594,0.0305180437933359
1580423752.56902,-84.0772106507973,4.91340505073617,3.38750286106665
1580423752.57302,-83.4058136873425,7.29381246662092,6.62241550316617
1580423752.57701,-80.4760814831768,10.1014724956131,9.4300755321583
1580423752.581,-75.1049057755397,13.1532768749523,11.9325551232166
1580423752.58499,-67.4753948271916,16.4492256046387,14.1298542763409
1580423752.58898,-58.3810177767605,20.1724269474325,15.777828641184
1580423752.59298,-48.1879911497674,24.2008087281604,17.0595864805066
1580423752.59697,-37.1404592965591,28.5343709468223,17.5478751812009
1580423752.60097,-25.8487830930037,32.8068970778972,17.6089112687876
1580423752.60496,-14.2519264515145,36.5911345082779,17.1816586556802
1580423752.60895,-3.44853894865332,39.8260471503775,16.4492256046387
1580423752.61295,5.95101853971164,42.2064545662622,15.2895399404897
1580423752.61694,13.0922407873654,43.8544289311053,14.0077821011673
1580423752.62093,17.5478751812009,44.9530785076674,12.664988174258
1580423752.62493,19.7451743343252,45.3192950331882,11.2001220721752
1580423752.62892,20.1724269474325,45.1972228580146,9.67421988250544
1580423752.63291,19.5620660715647,44.4647898069732,8.08728160524902
1580423752.63691,18.8296330205233,43.366140230411,6.62241550316617
1580423752.6409,18.8906691081102,41.7792019531546,5.09651331349664
1580423752.64489,19.6231021591516,40.4364080262453,3.57061112382689
1580423752.64889,21.3931486991683,39.5208667124436,2.16678110933094
1580423752.65288,24.1397726405737,38.7884336614022,1.0070954451819
1580423752.65687,27.8019378957808,38.239108873121,-0.0305180437933359
1580423752.66087,32.0744640268558,37.6897840848401,-0.823987182421661
1580423752.66486,36.4080262455175,37.2625314717325,-1.49538414587619
1580423752.66885,40.1312275883115,37.0183871213853,-1.98367284657047
1580423752.67284,43.7323567559317,36.8352788586251,-2.34988937209118
1580423752.67684,46.6010528725108,36.8963149462118,-2.7161058976119
1580423752.68083,48.7983520256348,37.0794232089722,-2.89921416037237
1580423752.68482,49.9580376897839,37.2625314717325,-3.08232242313261
1580423752.68882,49.7749294270234,37.3235675593194,-2.59403372243833
1580423752.69281,48.6762798504615,37.0183871213853,-1.98367284657047
1580423752.6968,46.7231250476843,36.4690623331044,-0.885023270008332
1580423752.7008,43.9154650186922,35.8587014572365,0.457770656900948
1580423752.70479,40.8636606393529,35.3093766689553,2.10574502174404
1580423752.70878,37.8728923476003,34.6379797055008,3.63164721141379
1580423752.71278,34.6379797055008,34.0886549172196,5.15754940108332
1580423752.71677,30.7927061875332,33.4172579537651,6.25619897764545
1580423752.72076,26.5201800564582,32.8679331654839,7.23277637903402
1580423752.72476,21.5762569619287,32.5627527275501,8.27038986800949
1580423752.72875,16.083009079118,32.3796444647896,9.24696726939806
1580423752.73274,10.2845807583733,32.3796444647896,10.4066529335469
1580423752.73674,4.7913328755626,32.7458609903103,11.6884107728695
1580423752.74073,0.152590218966907,33.2341496910046,12.9091325246052
1580423752.74475,-3.38750286106665,33.6003662165253,13.9467460135804
1580423752.74874,-5.58480201419093,33.8445105668725,14.8622873273823
1580423752.75274,-6.62241550316617,33.4172579537651,15.5947203784237
1580423752.75673,-7.53795681696806,32.7458609903103,15.777828641184
1580423752.76073,-8.81971465629044,31.9523918516823,15.5336842908368
1580423752.76472,-10.7728694590676,31.0978866254673,14.7402151522087
1580423752.76871,-13.519493400473,30.1823453116654,13.519493400473
1580423752.7727,-16.5712977798123,29.1447318226901,11.9325551232166
1580423752.7767,-19.6841382467383,27.8019378957808,9.91836423285258
1580423752.78069,-22.7359426260775,26.4591439688716,7.84313725490188
1580423752.78469,-25.6656748302432,24.8111696040282,5.95101853971164
1580423752.78868,-28.2291905088882,22.9800869764247,4.18097199969475
1580423752.79267,-30.1213092240787,21.0269321736475,2.47196154726475
1580423752.79667,-31.4641031509882,19.501029983978,0.885023270008332
1580423752.80066,-31.8303196765089,18.4634164950025,-0.823987182421661
1580423752.80465,-31.2809948882277,17.6089112687876,-2.28885328450451
1580423752.80865,-30.4875257495994,16.632333867399,-3.20439459830618
1580423752.81264,-29.9992370489051,16.2050812542916,-3.69268329900046
1580423752.81663,-29.9992370489051,15.4726482032502,-3.57061112382689
1580423752.82063,-30.5485618371861,14.6181429770352,-3.26543068589308
1580423752.82462,-30.9147783627068,13.1532768749523,-2.41092545967808
1580423752.82861,-30.8537422751201,11.1390859845883,-1.43434805828952
1580423752.8326,-29.4499122606239,8.75867856870377,-0.396734569314049
1580423752.8366,-27.0084687571525,5.95101853971164,0.091554131380235
1580423752.84059,-24.628061341268,3.02128633554594,0.51880674448762
1580423752.84458,-22.6749065384909,0.213626306553806,0.457770656900948
1580423752.84858,-20.9658960860609,-2.04470893415737,0.335698481727377
1580423752.85257,-19.0127412832837,-3.99786373693451,0.091554131380235
1580423752.85656,-15.7167925535973,-6.13412680247188,0.152590218966907
1580423752.86056,-11.1390859845883,-8.75867856870377,0.51880674448762
1580423752.86455,-6.13412680247188,-11.3832303349354,1.31227588311594
1580423752.86854,-1.67849240863666,-13.5805294880597,2.16678110933094
1580423752.87254,1.73952849622333,-15.7167925535973,3.14335851071951
1580423752.87653,4.30304417486832,-18.341344319829,4.24200808728165
1580423752.88052,6.74448767833974,-21.1490043488211,5.21858548867021
1580423752.88452,9.24696726939806,-23.773556115053,5.82894636453807
1580423752.88851,11.810482948043,-25.5436026550697,5.6458381017776
1580423752.8925,14.6181429770352,-26.2760357061111,4.7913328755626
1580423752.8965,17.486839093614,-25.6656748302432,3.57061112382689
1580423752.90049,20.1724269474325,-23.6514839398794,2.04470893415737
1580423752.90451,23.1021591515982,-21.3931486991683,0.946059357595232
1580423752.9085,26.9474326695658,-19.0127412832837,0.762951094834762
1580423752.9125,31.5251392385746,-16.3881895170518,1.0070954451819
1580423752.91649,36.2859540703439,-13.8246738384069,1.55642023346309
1580423752.92048,40.9246967269396,-11.2611581597619,1.67849240863666
1580423752.92448,45.6244754711222,-8.5755703059433,1.31227588311594
1580423752.92847,50.0801098649576,-5.82894636453807,0.152590218966907
1580423752.93246,53.8643472953381,-3.75371938658736,-1.0070954451819
1580423752.93646,56.48889906157,-2.96025024795904,-1.61745632104976
1580423752.94045,58.0148012512395,-2.7161058976119,-1.73952849622333
1580423752.94444,58.5641260395205,-3.14335851071951,-1.31227588311594
1580423752.94844,58.1368734264133,-3.69268329900046,-0.579842832074519
1580423752.95243,56.9161516746776,-3.50957503624022,0.0305180437933359
1580423752.95643,54.4747081712062,-2.10574502174404,0.823987182421661
1580423752.96042,50.2632181277177,-0.152590218966907,1.61745632104976
1580423752.96441,45.075150682841,1.61745632104976,1.98367284657047
1580423752.96841,39.948119325551,2.53299763485165,1.73952849622333
1580423752.9724,35.2483405813687,2.96025024795904,0.640878919661191
1580423752.97639,30.2433813992523,3.44853894865332,-1.25123979552905
1580423752.98039,24.322880903334,4.73029678797593,-4.05889982452118
1580423752.98438,17.1816586556802,6.43930724040592,-8.08728160524902
1580423752.98837,10.1014724956131,7.84313725490188,-12.0546272983902
1580423752.99236,5.03547722590974,8.14831769283592,-15.8388647287709
1580423752.99635,3.44853894865332,7.17174029144735,-18.7685969329366
1580423753.00035,5.34065766384379,8.02624551766235,-21.0879682612344
1580423753.00434,7.66002899214163,11.7494468604561,-22.7359426260775
1580423753.00834,7.47692072938116,14.3129625391011,-23.3463035019454
1580423753.01233,2.34988937209118,13.9467460135804,-22.5528343633173
1580423753.01632,-9.67421988250544,10.7118333714809,-20.355535210193
1580423753.02032,-27.3746852826732,7.59899290455473,-17.9751277943083
1580423753.02431,-44.892042420081,7.11070420386045,-16.632333867399
1580423753.0283,-56.000610360876,9.18593118181116,-16.5102616922254
1580423753.0323,-58.4420538643474,12.2377355611504,-17.9751277943083
1580423753.03629,-56.3057907988098,14.4960708018616,-20.2334630350194
1580423753.04028,-55.3292133974212,15.8388647287709,-23.5904478522925
1580423753.04428,-58.1368734264133,17.4258030060273,-27.6188296330204
1580423753.04827,-64.2404821850919,18.7075608453497,-31.5251392385749
1580423753.05226,-70.6492713817045,19.9282825970854,-34.637979705501
1580423753.05626,-74.5555809872587,20.1113908598459,-36.346990157931
1580423753.06025,-75.593194476234,18.8296330205233,-36.041809719997
1580423753.06424,-75.4100862134737,16.8764782177461,-34.4548714427406
1580423753.06823,-74.5555809872587,14.7402151522087,-31.7082475013353
1580423753.07223,-73.9452201113909,12.8480964370183,-27.9240100709544
1580423753.07622,-73.9452201113909,12.1156633859769,-23.1631952391851
1580423753.08021,-75.2880140383002,12.8480964370183,-18.2192721446554
1580423753.08421,-76.6918440527961,13.8857099259938,-13.3974212252995
1580423753.0882,-77.4242771038375,14.6181429770352,-8.81971465629044
1580423753.09219,-76.8139162279697,14.923323414969,-4.30304417486832
1580423753.09619,-75.043869687953,14.2519264515145,-0.0305180437933359
1580423753.10018,-72.4193179217211,12.5429159990845,4.36408026245522
1580423753.10417,-69.062333104448,11.1390859845883,8.88075074387734
1580423753.10817,-65.5222400244145,9.24696726939806,12.4818799114976
1580423753.11216,-62.2873273823147,6.5003433279926,15.1064316777295
1580423753.11615,-60.8834973678188,2.53299763485165,16.5102616922254
1580423753.12015,-62.0431830319676,-2.47196154726475,16.6933699549859
1580423753.12414,-65.2170595864804,-10.955977721828,16.5712977798123
1580423753.12813,-68.5130083161669,-24.2008087281604,17.486839093614
1580423753.13213,-68.8792248416876,-37.6897840848403,18.5244525825894
1580423753.13612,-65.4001678492409,-48.310063324941,19.2568856336309
1580423753.14012,-59.4796673533226,-55.4512855725948,21.0879682612344
1580423753.14413,-53.437094682231,-60.4562447547112,24.8111696040282
1580423753.14813,-48.0048828870069,-67.3533226520181,31.4030670634011
1580423753.15212,-42.5726710917831,-78.0956740672923,38.8494697489889
1580423753.15611,-35.6755931944763,-92.0119020370794,44.8920424200808
1580423753.16011,-27.2526131074997,-105.256733043412,47.3945220111389
1580423753.1641,-18.8296330205233,-116.975661860075,45.5634393835353
1580423753.16809,-14.1908903639276,-127.534905012589,39.7650110627908
1580423753.17209,-15.2895399404897,-136.202029449912,30.7927061875332
1580423753.17608,-19.3789578088044,-143.953612573434,19.6841382467383
1580423753.18008,-22.0035095750361,-153.780422674907,8.02624551766235
1580423753.18407,-19.8672465094987,-165.68245975433,-3.50957503624022
1580423753.18806,-12.2377355611504,-177.218280308232,-13.7636377508202
1580423753.19206,0.335698481727377,-185.946440833143,-22.4307621881437
1580423753.19605,17.3037308308537,-190.157930876631,-29.2668039978637
1580423753.20004,38.9715419241625,-190.096894789044,-34.7600518806746
1580423753.20404,64.2404821850923,-186.984054322118,-38.1780727855346
1580423753.20803,88.5938811322194,-181.490806439307,-40.7415884641796
1580423753.21202,109.346150911726,-175.509269855802,-43.0609597924774
1580423753.21602,125.215533684291,-170.870527199207,-45.2582589456017
1580423753.22001,136.446173800259,-166.475928892958,-47.1503776607919
1580423753.224,143.404287785153,-161.165789272908,-48.2490272373541
1580423753.22799,148.043030441749,-157.198443579767,-47.6386663614862
1580423753.23199,151.033798733501,-154.329747463187,-45.8686198214696
1580423753.23598,151.522087434195,-150.545510032807,-44.2206454566262
1580423753.23997,148.653391317616,-145.296406500343,-43.2440680552377
1580423753.24397,142.732890821698,-140.23041123064,-42.877851529717
1580423753.24796,133.699549858854,-135.713740749218,-43.183031967651
1580423753.25195,121.675440604257,-131.441214618143,-43.5492484931717
1580423753.25595,107.087815671016,-127.656977187762,-42.9388876173039
1580423753.25994,90.6691081101703,-124.66620889601,-41.6571297779813
1580423753.26393,74.6166170748456,-121.980621042191,-40.0091554131382
1580423753.26793,61.8600747692071,-120.881971465629,-37.8728923476006
1580423753.27192,52.0332646677348,-120.820935378042,-35.1262684061953
1580423753.27591,42.9388876173036,-122.285801480125,-31.5861753261618
1580423753.27991,33.7224383916989,-125.337605859464,-27.3136491950866
1580423753.2839,24.2618448157473,-129.854276340887,-22.613870450904
1580423753.28789,14.4350347142747,-134.431982909895,-17.486839093614
1580423753.29189,5.03547722590974,-138.948653391318,-12.0546272983902
1580423753.29588,-1.80056458381023,-143.282215609979,-7.04966811627378
1580423753.29988,-5.15754940108332,-147.432669565881,-2.65506981002522
1580423753.30389,-5.40169375143046,-150.850690470741,0.762951094834762
1580423753.30789,-3.32646677347975,-152.864881361105,2.65506981002522
1580423753.31188,0.213626306553806,-153.170061799039,3.32646677347975
1580423753.31587,4.66926070038903,-151.827267872129,3.38750286106665
1580423753.31987,9.73525597009234,-149.568932631418,2.89921416037237
1580423753.32386,15.5336842908368,-146.822308690013,1.9226367589838
1580423753.32785,22.1255817502097,-143.404287785153,0.274662394140478
1580423753.33185,29.2057679102768,-139.253833829252,-2.34988937209118
1580423753.33584,36.3469901579308,-134.187838559548,-5.40169375143046
1580423753.33983,43.1219958800639,-128.694590676738,-8.75867856870377
1580423753.34383,48.5542076752877,-123.384451056687,-11.1390859845883
1580423753.34782,51.911192492561,-119.050888838025,-11.9935912108033
1580423753.35182,50.8735790035857,-114.290074006256,-10.8949416342411
1580423753.35581,42.0233463035017,-106.538490882735,-7.96520943007545
1580423753.3598,22.7969787136644,-95.6130312046998,-3.14335851071951
1580423753.3638,-4.73029678797593,-86.2745098039215,3.26543068589308
1580423753.36779,-35.187304493782,-80.170901045243,12.1156633859769
1580423753.37178,-62.4704356450752,-78.3398184176394,22.4307621881437
1580423753.37578,-82.8564888990616,-83.5278858625161,31.9523918516823
1580423753.37977,-96.5285725185017,-95.857175555047,38.6053253986418
1580423753.38376,-104.34119172961,-110.99412527657,41.657129777981
1580423753.38775,-106.294346532387,-123.506523231861,42.8168154421301
1580423753.39174,-101.655603875792,-129.610131990539,43.9154650186922
1580423753.39574,-91.4015411612115,-128.938735027085,45.929655909056
1580423753.39973,-77.7904936293583,-123.079270618753,48.1879911497672
1580423753.40373,-63.4470130464638,-113.679713130388,49.9580376897839
1580423753.40772,-48.7983520256353,-101.289387350271,50.3852903028915
1580423753.41171,-32.9900053406577,-86.5186541542687,49.7749294270234
1580423753.41571,-14.7402151522087,-70.9544518196383,48.3710994125277
1580423753.4197,5.82894636453807,-55.8785381857024,46.6010528725108
1580423753.42369,27.2526131074997,-43.1219958800641,44.6478980697336
1580423753.42769,47.94384679942,-32.6848249027239,42.8168154421301
1580423753.43168,66.9260700389109,-24.0787365529868,41.2298771648736
1580423753.43567,83.7109941252766,-16.5102616922254,40.3143358510717
1580423753.43967,99.1531242847336,-8.69764248111687,40.2532997634851
1580423753.44366,114.106965743496,0.579842832074519,40.802624551766
1580423753.44765,128.999771114672,11.2611581597619,41.7181658655679
1580423753.45165,143.526359960326,23.6514839398794,42.8168154421301
1580423753.45564,156.221866178378,37.1404592965589,43.6713206683451
1580423753.45964,166.109712367437,50.8735790035857,44.0375371938658
1580423753.46362,171.969176775769,64.1184100099185,43.6102845807582
1580423753.46762,173.373006790265,76.0204470893418,42.6337071793696
1580423753.47161,171.17570763714,85.603112840467,40.8636606393529
1580423753.4756,166.04867627985,92.6222629129475,38.6053253986418
1580423753.4796,159.761959258411,97.4441138323036,36.0418097199968
1580423753.48359,152.864881361105,100.312809948882,33.4782940413518
1580423753.48758,145.601586938277,101.777676050965,31.0978866254673
1580423753.49158,136.995498588541,101.655603875792,28.9616235599296
1580423753.49557,125.581750209812,99.3972686350808,27.5577935454337
1580423753.49956,110.261692225528,95.1857785915922,27.191577019913
1580423753.50356,91.0963607232779,88.8380254825665,28.2291905088882
1580423753.50755,68.6350804913409,81.3916227969789,30.609597924773
1580423753.51154,44.7699702449072,73.5179674982837,34.0886549172196
1580423753.51554,20.904859998474,65.7663843747619,38.3001449607079
1580423753.51953,-1.98367284657047,58.9303425650414,42.8168154421301
1580423753.52352,-23.773556115053,53.5591668574043,47.2114137483786
1580423753.52752,-44.1596093690396,49.8970016021972,51.4229037918667
1580423753.53151,-62.775616083009,48.493171587701,55.4512855725948
1580423753.53551,-79.4995040817882,49.5307850766762,58.8082703898676
1580423753.5395,-94.5754177157246,52.3384451056686,61.9821469443805
1580423753.54352,-107.515068284123,56.1837186236362,64.85084306096
1580423753.54751,-117.83016708629,60.7003891050581,67.4753948271918
1580423753.5515,-125.03242542153,65.2170595864809,69.9778744182499
1580423753.5555,-128.755626764324,69.2454413672085,72.0531013962009
1580423753.55949,-128.999771114672,71.9310292210271,73.5179674982837
1580423753.56348,-125.581750209812,73.7621118486309,74.006256198978
1580423753.56748,-118.623636224918,74.7386892500194,73.2738231479366
1580423753.57147,-108.003356984817,75.9594110017551,70.7103074692914
1580423753.57547,-94.6364538033113,77.424277103838,66.1936369878695
1580423753.57946,-79.2553597314411,78.8891432059208,59.9679560540167
1580423753.58345,-63.5690852216374,79.133287556268,52.4605172808419
1580423753.58745,-49.3476768139162,77.0580605783171,44.3427176317996
1580423753.59144,-37.6897840848403,71.6258487830933,35.7976653696496
1580423753.59543,-29.3278400854504,63.3859769588771,27.4357213702601
1580423753.59943,-24.4449530785075,52.8267338063629,19.5620660715647
1580423753.60342,-23.0411230640116,41.657129777981,12.1156633859769
1580423753.60741,-24.8111696040282,31.0978866254673,5.21858548867021
1580423753.61141,-29.0836957351032,22.3086900129701,-1.25123979552905
1580423753.6154,-34.7600518806746,16.3271534294652,-7.11070420386045
1580423753.61939,-40.4974441138324,13.214312962539,-12.2987716487373
1580423753.62338,-44.8310063324941,12.4208438239109,-16.937514305333
1580423753.62738,-46.9062333104448,12.5429159990845,-20.904859998474
1580423753.63137,-46.2348363469903,12.9091325246052,-24.2008087281604
1580423753.63536,-42.6337071793698,12.359807736324,-26.5812161440451
1580423753.63936,-36.2859540703441,10.3456168459602,-28.1071183337147
1580423753.64335,-28.2902265964751,6.80552376592664,-28.2902265964751
1580423753.64734,-19.3789578088044,2.89921416037237,-27.3136491950866
1580423753.65134,-10.4676890211338,-0.70191500724809,-25.0553139543754
1580423753.65533,-2.41092545967808,-3.50957503624022,-21.759365224689
1580423753.65932,4.7913328755626,-3.99786373693451,-17.4258030060273
1580423753.66332,11.7494468604561,-1.37331197070262,-12.2377355611504
1580423753.66731,19.3179217212175,3.63164721141379,-6.5003433279926
1580423753.6713,28.046082246128,8.39246204318306,-0.640878919661191
1580423753.6753,37.9949645227739,12.4818799114976,5.15754940108332
1580423753.67929,48.8593881132219,18.0361638818952,10.8949416342411
1580423753.68328,60.3952086671243,25.6046387426566,16.5102616922254
1580423753.68728,72.297245746548,34.6379797055008,21.8814373998625
1580423753.69127,85.1148241397727,44.6478980697336,27.191577019913
1580423753.69526,97.566186007477,56.6720073243305,32.2575722896161
1580423753.69926,107.454032196536,72.0531013962009,37.9949645227739
1580423753.70328,113.008316166934,89.5094224460213,46.6010528725108
1580423753.70727,110.688944838636,108.552681773098,60.5172808422976
1580423753.71126,98.725871671626,125.581750209812,80.2319371328299
1580423753.71526,86.152437628748,120.576791027695,100.679026474403
1580423753.71925,86.0914015411613,81.6968032349127,115.938048371099
1580423753.72324,99.6414129854279,24.9332417792018,118.562600137331
1580423753.72724,117.891203173876,-29.2668039978637,95.9792477302208
1580423753.73123,115.022507057298,-63.4470130464638,58.3810177767605
1580423753.73522,60.2121004043638,-76.9359884031433,20.6607156481268
1580423753.73922,-21.2710765239947,-128.145265888457,-4.30304417486832
1580423753.74321,-64.9729152361333,-198.825055313954,-15.2895399404897
1580423753.74721,-83.8330663004501,-216.281376363775,-24.7501335164416
1580423753.7512,-110.078583962768,-175.326161593042,-40.619516289006
1580423753.75519,-143.953612573434,-108.857862211032,-59.1744869153888
1580423753.75919,-177.523460746166,-41.5960936903946,-74.3114366369116
1580423753.76318,-202.182040131227,13.1532768749523,-81.7578393224994
1580423753.76717,-206.149385824369,66.1326009002823,-78.6449988555732
1580423753.77117,-189.303425650416,117.83016708629,-66.9871061264973
1580423753.77516,-155.245288776989,142.549782558938,-50.5683985656519
1580423753.77915,-100.74006256199,130.769817654688,-32.2575722896163
1580423753.78314,-25.1773861295489,99.0920881971465,-13.214312962539
1580423753.78713,62.9587243457695,69.8558022430766,5.34065766384379
1580423753.79113,152.071412222476,55.329213397421,24.0177004654001
1580423753.79512,230.563820859083,56.0006103608757,41.9012741283282
1580423753.79912,284.092469672694,66.55985351339,57.2823682001981
1580423753.80311,296.787975890745,79.133287556268,68.7571526665142
1580423753.8071,262.973983367666,86.7017624170294,73.5179674982837
1580423753.8111,188.265812161441,91.9508659494927,68.2078278782333
1580423753.81509,93.1105516136417,109.102006561379,59.9679560540167
1580423753.81908,36.5911345082779,145.418478675517,57.0992599374376
1580423753.82308,67.4753948271918,205.050736247807,56.0616464484624
1580423753.82707,153.780422674906,257.724879835203,56.3668268863962
1580423753.83106,214.267185473411,260.593575951782,68.5740444037538
1580423753.83506,196.017395284962,213.71786068513,91.4625772487984
1580423753.83905,115.144579232471,148.409246967269,98.6037994964522
1580423753.84304,20.355535210193,113.496604867628,88.5938811322194
1580423753.84704,-50.1411459525445,104.15808346685,71.3206683451594
1580423753.85103,-93.7209124895094,97.016861219196,49.65285725185
1580423753.85502,-124.910353246357,90.9132524605175,23.1021591515982
1580423753.85902,-140.535591668574,92.1950102998399,-3.50957503624022
1580423753.86301,-138.155184252689,99.5193408102541,-22.9800869764247
1580423753.867,-121.43129625391,108.125429159991,-32.9900053406577
1580423753.87099,-97.2610055695432,116.243228809034,-34.8210879682613
1580423753.87499,-71.8089570458533,125.947966735332,-31.4641031509882
1580423753.87898,-48.6152437628748,138.460364690623,-24.2008087281604
1580423753.88297,-30.3044174868389,151.338979171435,-14.0077821011673
1580423753.88697,-17.6699473563745,161.837186236362,-1.9226367589838
1580423753.89096,-9.91836423285258,169.64980544747,11.3832303349354
1580423753.89495,-2.04470893415737,177.8286411841,24.3839169909209
1580423753.89895,10.955977721828,190.280003051805,36.530098420691
1580423753.90294,31.6472114137482,205.905241474022,46.7231250476843
1580423753.90693,57.5875486381319,220.981155107958,54.9019607843134
1580423753.91093,82.3071641107808,232.272831311513,61.61593041886
1580423753.91492,98.7869077592127,239.841306172274,67.3533226520181
1580423753.91892,102.754253452354,243.625543602655,72.480354009308
1580423753.92291,94.6974898908979,243.259327077134,77.0580605783171
1580423753.9269,78.7060349431604,239.047837033646,80.1098649576566
1580423753.9309,59.9679560540167,232.455939574274,81.0864423590451
1580423753.93489,41.5960936903944,224.887464713512,80.2319371328299
1580423753.93888,23.773556115053,216.830701152056,77.7904936293585
1580423753.9429,4.97444113832307,209.689478904402,74.0672922865647
1580423753.94689,-15.7167925535973,204.745555809873,68.9402609292747
1580423753.95089,-37.9339284351875,203.524834058137,62.1042191195543
1580423753.95488,-58.8082703898681,204.867627985047,54.1695277332719
1580423753.95887,-73.7621118486304,205.17280842298,46.1127641718165
1580423753.96287,-78.8281071183337,201.815823605707,38.7273975738153
1580423753.96686,-74.6776531624323,195.345998321508,31.5861753261615
1580423753.97086,-66.1326009002823,187.106126497291,24.1397726405737
1580423753.97485,-60.0289921416038,178.255893797208,16.8154421301595
1580423753.97884,-59.4796673533226,169.527733272297,9.24696726939806
1580423753.98284,-63.3249408712902,161.104753185321,0.51880674448762
1580423753.98683,-68.207827878233,150.057221332112,-5.76791027695117
1580423753.99082,-71.8699931334402,139.620050354772,-10.4676890211338
1580423753.99482,-74.0062561989776,131.746395056077,-12.2377355611504
1580423753.99881,-73.029678797589,123.933775844968,-10.650797283894
1580423754.0028,-65.339131761654,116.548409246967,-5.7068741893645
1580423754.0068,-46.601052872511,109.712367437247,2.04470893415737
1580423754.01079,-16.4492256046387,106.233310444801,11.6273746852826
1580423754.01478,21.210040436408,108.125429159991,21.9424734874494
1580423754.01878,61.1886778057524,113.740749217975,30.609597924773
1580423754.02277,98.2986190585184,119.783321889067,35.3704127565422
1580423754.02676,130.464637216754,122.163729304952,35.6145571068894
1580423754.03075,157.076371404593,117.83016708629,29.6940566109711
1580423754.03475,178.439002059968,106.538490882735,18.5854886701761
1580423754.03874,196.322575722897,91.2184328984513,4.24200808728165
1580423754.04273,212.436102845808,76.5087357900361,-10.7118333714809
1580423754.04673,228.000305180438,64.3625543602657,-21.8814373998625
1580423754.05072,242.893110551614,53.8033112077514,-31.4030670634013
1580423754.05471,253.452353704128,45.6244754711222,-36.2859540703441
1580423754.05871,257.114518959335,33.9665827420461,-37.4456397344932
1580423754.0627,252.84199282826,16.8764782177461,-37.1404592965591
1580423754.06669,240.695811398489,-5.88998245212474,-36.5300984206913
1580423754.07069,221.286335545892,-29.755092698558,-35.7366292820632
1580423754.07468,196.749828336004,-49.164568551156,-34.6990157930877
1580423754.07868,168.917372396429,-63.3859769588769,-32.9900053406577
1580423754.08267,139.681086442359,-74.0672922865645,-30.9147783627068
1580423754.08666,109.407186999314,-83.2837415121689,-29.0226596475165
1580423754.09065,79.0722514686809,-91.8898298619058,-27.3746852826732
1580423754.09465,49.7749294270234,-100.251773861296,-26.6422522316318
1580423754.09864,22.7359426260775,-107.270923933776,-26.1539635309375
1580423754.10266,-0.885023270008332,-112.458991378653,-25.7877470054168
1580423754.10665,-19.3179217212175,-113.496604867628,-25.2994583047225
1580423754.11065,-31.2199588006408,-113.191424429694,-24.6890974288547
1580423754.11464,-35.9807736324103,-116.670481422141,-23.8956282902266
1580423754.11863,-37.6897840848403,-124.177920195315,-22.9800869764247
1580423754.12263,-40.2532997634853,-135.835812924392,-21.759365224689
1580423754.12662,-42.5726710917831,-149.752040894179,-20.355535210193
1580423754.13061,-40.5584802014191,-164.461738002594,-19.2568856336309
1580423754.13461,-31.8303196765089,-179.72075989929,-18.9517051956968
1580423754.1386,-17.3037308308537,-191.805905241474,-20.355535210193
1580423754.1426,0.823987182421661,-198.397802700847,-23.2852674143587
1580423754.14659,19.9893186846723,-200.411993591211,-27.191577019913
1580423754.15058,37.1404592965589,-200.473029678798,-32.1355001144427
1580423754.15458,47.8828107118331,-200.04577706569,-41.3519493400474
1580423754.15857,44.6478980697336,-199.435416189822,-53.6812390325781
1580423754.16256,16.937514305333,-198.580910963607,-59.1744869153888
1580423754.16656,-43.2440680552377,-194.552529182879,-51.2397955291067
1580423754.17055,-122.95719844358,-186.495765621424,-36.4690623331046
1580423754.17454,-191.50072480354,-183.382925154498,-24.5670252536811
1580423754.17854,-236.484321355001,-186.19058518349,-18.5854886701761
1580423754.18252,-261.264972915236,-194.857709620813,-14.923323414969
1580423754.18652,-269.993133440146,-209.079118028534,-10.1625085831997
1580423754.19051,-266.88029297322,-229.037918669413,-3.81475547417404
1580423754.19451,-258.518348973831,-250.156404974441,3.75371938658736
1580423754.1985,-249.362935835813,-265.659571221485,10.955977721828
1580423754.20249,-242.404821850919,-271.580071717403,15.0453955901426
1580423754.20649,-237.82711528191,-268.711375600824,12.6039520866711
1580423754.21048,-231.662470435645,-262.302586404212,4.48615243762879
1580423754.21447,-217.929350728618,-255.954833295186,-3.99786373693451
1580423754.21847,-194.003204394598,-249.729152361334,-12.0546272983902
1580423754.22246,-160.189211871519,-242.282749675746,-20.5386434729533
1580423754.22645,-119.90539406424,-235.446707866026,-30.4264896620125
1580423754.23045,-76.8749523155566,-231.174181734951,-40.9857328145267
1580423754.23444,-34.8210879682613,-228.488593881132,-51.1177233539331
1580423754.23843,1.67849240863666,-223.60570687419,-59.1744869153888
1580423754.24243,29.8161287861446,-214.572365911345,-63.6911573968109
1580423754.24642,50.8125429159991,-203.158617532616,-64.0573739223316
1580423754.25041,68.879224841688,-192.294193942168,-59.9679560540169
1580423754.25441,88.1666285191122,-185.214007782101,-53.5591668574045
1580423754.2584,107.331960021363,-181.673914702068,-48.0659189745938
1580423754.26239,123.201342793927,-181.795986877241,-43.732356755932
1580423754.26638,133.760585946441,-185.030899519341,-41.5960936903946
1580423754.27038,138.643472953383,-187.838559548333,-42.1454184786755
1580423754.27437,138.399328603036,-188.876173037308,-45.6244754711224
1580423754.27836,134.493018997482,-188.021667811093,-50.8125429159991
1580423754.28236,128.999771114672,-185.152971694514,-57.2213321126117
1580423754.28635,123.14030670634,-178.255893797208,-63.7521934843976
1580423754.29034,117.83016708629,-168.673228046082,-69.4285496299688
1580423754.29434,113.069352254521,-158.84641794461,-73.4569314106966
1580423754.29833,108.613717860685,-149.568932631418,-75.8373388265811
1580423754.30233,103.181506065461,-141.451132982376,-76.447699702449
1580423754.30632,95.7351033798736,-133.760585946441,-75.7763027389944
1580423754.31031,85.603112840467,-126.802471961547,-73.8231479362173
1580423754.3143,73.2738231479366,-121.24818799115,-71.7479209582666
1580423754.3183,59.2355230029752,-116.182192721447,-69.3675135423819
1580423754.32229,44.0985732814524,-110.872053101396,-66.9871061264973
1580423754.32629,27.9850461585411,-105.622949568933,-64.6066987106126
1580423754.33028,11.1390859845883,-99.8855573357748,-61.921110856794
1580423754.33427,-6.86655985351331,-93.4157320515753,-59.1134508278019
1580423754.33827,-25.4215304798961,-85.7862211032273,-56.4278629739833
1580423754.34228,-44.6478980697339,-76.1425192645152,-53.8643472953383
1580423754.34628,-64.3625543602654,-64.484626535439,-50.9956511787595
1580423754.35027,-84.5654993514916,-50.873579003586,-47.2114137483788
1580423754.35426,-105.561913481346,-35.7976653696498,-41.5350576028077
1580423754.35826,-126.131074998093,-20.1113908598459,-33.6614023041125
1580423754.36225,-144.441901274128,-5.34065766384379,-23.4073395895323
1580423754.36625,-158.724345769436,6.31723506523235,-10.955977721828
1580423754.37024,-166.720073243305,15.7167925535973,3.57061112382689
1580423754.37423,-168.490119783322,24.9332417792018,19.501029983978
1580423754.37823,-161.959258411536,33.3562218661782,36.8963149462118
1580423754.38222,-139.009689478904,42.2064545662622,54.1695277332719
1580423754.38621,-99.7634851606012,54.1695277332719,68.3909361409937
1580423754.39021,-44.6478980697339,72.3582818341347,77.1190966659037
1580423754.3942,18.2192721446554,101.167315175097,79.0112153810942
1580423754.39819,63.3859769588771,139.436942092012,76.264591439689
1580423754.40219,78.8281071183337,180.941481651026,77.1801327534909
1580423754.40618,78.1567101548794,221.164263370718,91.4015411612118
1580423754.41017,77.3632410162509,255.893797207599,100.434882124056
1580423754.41417,91.5236133363851,277.988860914015,104.646372167544
1580423754.41816,130.342565041581,286.839093614099,117.769130998703
1580423754.42215,179.90386816205,284.641794460975,133.39436942092
1580423754.42614,231.418326085298,277.256427862974,147.188525215533
1580423754.43014,285.984588387884,266.086823834592,156.710154879072
1580423754.43413,339.635309376669,245.456626230259,161.898222323949
1580423754.43812,376.134889753567,209.872587167163,162.081330586709
1580423754.44212,368.627450980392,157.503624017701,155.062180514229
1580423754.44611,293.980315861753,91.5846494239722,141.634241245136
1580423754.4501,157.442587930113,26.6422522316318,125.520714122225
1580423754.4541,-6.5003433279926,-15.8388647287709,112.214847028305
1580423754.45809,-161.898222323949,-31.4641031509882,103.059433890288
1580423754.46208,-278.965438315404,-33.5393301289389,92.9274433508813
1580423754.46608,-341.161211566339,-32.2575722896163,79.5605401693751
1580423754.47007,-350.377660791943,-39.6429388876174,65.8884565499352
1580423754.47406,-321.141374837873,-58.9303425650417,56.3057907988095
1580423754.47806,-271.946288242924,-80.2929732204166,50.202182040131
1580423754.48205,-216.159304188601,-98.7869077592127,45.1361867704279
1580423754.48604,-165.438315403983,-106.904707408255,38.6663614862287
1580423754.49004,-134.004730296788,-89.3263141832608,29.2668039978637
1580423754.49403,-128.328374151217,-46.2958724345769,16.7544060425726
1580423754.49803,-143.526359960327,5.34065766384379,2.10574502174404
1580423754.50204,-167.086289768826,56.0006103608757,-12.1766994735638
1580423754.50604,-178.500038147555,86.8238345922027,-23.1021591515982
1580423754.51003,-159.02952620737,84.6875715266651,-30.3044174868389
1580423754.51402,-97.3830777447167,56.3057907988095,-33.6003662165256
1580423754.51802,3.93682764934761,20.050354772259,-32.4406805523768
1580423754.52201,127.107652399481,-14.4960708018616,-27.8019378957808
1580423754.52601,252.964065003433,-46.8451972228581,-21.5762569619287
1580423754.53,322.728313115129,-62.2262912947281,-7.7821011673152
1580423754.53399,260.715648126955,-80.720225833524,3.44853894865332
1580423754.53799,99.8245212481879,-130.464637216754,-31.0978866254673
1580423754.54198,-41.3519493400474,-160.433356221866,-85.3589684901197
1580423754.54597,-96.711680781262,-172.030212863355,-82.2461280231937
1580423754.54997,-118.928816662852,-160.860608834974,-49.5307850766767
1580423754.55396,-125.642786297398,-115.815976195926,-34.0886549172199
1580423754.55795,-85.4810406652932,-59.6017395284962,-40.6805523765927
1580423754.56195,0.946059357595232,-5.40169375143046,-59.6017395284962
1580423754.56594,96.7727168688489,22.9800869764247,-81.3916227969787
1580423754.56993,168.368047608148,26.9474326695658,-94.3312733653775
1580423754.57393,194.064240482185,19.3179217212175,-89.0821698329137
1580423754.57792,169.405661097123,-2.7771419851988,-70.5271992065309
1580423754.58191,115.632867933165,-30.1823453116654,-52.3994811932555
1580423754.5859,48.9204242008086,-28.4733348592354,-34.8210879682613
1580423754.5899,-11.0780498970016,4.30304417486832,-12.8480964370183
1580423754.59389,-48.9204242008088,43.7323567559317,13.1532768749523
1580423754.59788,-56.9161516746776,81.0864423590451,36.6521705958646
1580423754.60188,-24.8722056916151,105.989166094454,51.8501564049743
1580423754.60587,40.5584802014189,116.060120546273,56.48889906157
1580423754.60986,104.036011291676,122.774090180819,53.2539864194705
1580423754.61386,138.52140077821,121.858548867018,43.4882124055846
1580423754.61785,141.75631342031,110.139620050355,29.0226596475165
1580423754.62184,122.95719844358,92.0729381246665,14.8012512397954
1580423754.62584,86.7017624170294,86.0914015411613,4.05889982452118
1580423754.62983,40.9246967269396,91.0353246356908,-4.66926070038903
1580423754.63382,7.29381246662092,98.0544747081713,-11.8715190356297
1580423754.63782,-4.60822461280236,105.622949568933,-16.2050812542916
1580423754.64181,-1.12916762035547,111.482413977264,-18.5244525825894
1580423754.6458,1.37331197070262,114.656290531777,-20.5386434729533
1580423754.6498,-16.7544060425726,114.961470969711,-20.050354772259
1580423754.65379,-57.8927290760662,110.933089188983,-14.6791790646218
1580423754.65779,-105.378805218586,105.622949568933,-5.21858548867021
1580423754.66177,-140.23041123064,104.890516517891,3.50957503624022
1580423754.66577,-153.292133974212,110.139620050355,8.75867856870377
1580423754.66976,-146.272983901732,120.454718852522,10.7118333714809
1580423754.67375,-125.825894560159,133.272297245746,12.1766994735638
1580423754.67775,-98.3596551461053,145.845731288624,14.8012512397954
1580423754.68174,-69.062333104448,157.381551842527,19.3179217212175
1580423754.68573,-41.9623102159153,168.734264133669,25.5436026550697
1580423754.68973,-19.0127412832837,180.636301213092,33.3562218661782
1580423754.69372,0.091554131380235,193.270771343557,41.9623102159151
1580423754.69772,16.9985503929197,206.271457999542,50.5073624780648
1580423754.70171,31.6472114137482,218.905928130007,58.2589456015867
1580423754.7057,44.0375371938658,229.892423895628,65.2170595864809
1580423754.70969,53.8643472953381,239.047837033646,71.5648126955066
1580423754.71369,61.6769665064467,246.555275806821,77.1190966659037
1580423754.71768,67.5974670023652,252.780956740673,81.5747310597394
1580423754.72168,70.4661631189442,257.846952010376,85.0537880521861
1580423754.72567,69.5506218051423,261.997405966278,87.7393759060046
1580423754.72966,64.6677347981995,265.598535133898,89.4483863584346
1580423754.73366,55.3902494850076,268.711375600824,89.9366750591289
1580423754.73765,42.2064545662622,271.335927367056,88.8990615701537
1580423754.74167,29.755092698558,271.702143892576,85.1758602273594
1580423754.74566,21.8204013122759,270.298313878081,78.1567101548794
1580423754.74966,16.8764782177461,266.758220798047,68.3909361409937
1580423754.75365,10.650797283894,260.288395513848,57.648584725719
1580423754.75764,0.885023270008332,252.84199282826,48.4321355001143
1580423754.76164,-12.1766994735638,244.602121004044,38.6053253986418
1580423754.76563,-24.6890974288547,233.737697413596,23.9566643778132
1580423754.76962,-29.3278400854504,222.568093385214,-3.38750286106665
1580423754.77362,-27.9240100709544,214.206149385825,-21.0269321736475
1580423754.77761,-33.1731136034182,214.206149385825,5.76791027695117
1580423754.7816,-40.2532997634853,212.130922407874,18.7075608453497
1580423754.7856,-33.7224383916991,199.191271839475,22.064545662623
1580423754.78959,-15.8388647287709,196.383611810483,25.3604943923094
1580423754.79358,2.96025024795904,190.768291752499,30.4264896620125
1580423754.79758,14.5571068894483,179.049362935836,36.4690623331044
1580423754.80157,17.6699473563745,165.438315403982,42.7557793545432
1580423754.80556,16.8154421301595,151.522087434195,48.6762798504615
1580423754.80956,16.937514305333,137.117570763714,52.5215533684291
1580423754.81355,19.5620660715647,122.468909742885,53.0098420691234
1580423754.81754,24.7501335164416,108.613717860685,48.2490272373539
1580423754.82153,32.318608377203,95.5519951171132,36.8963149462118
1580423754.82553,42.7557793545432,82.1240558480204,18.7075608453497
1580423754.82952,57.8927290760662,66.9871061264976,-2.53299763485165
1580423754.83351,77.7294575417718,50.202182040131,-23.2852674143587
1580423754.83751,100.129701686122,33.0510414282444,-40.9246967269398
1580423754.8415,120.271610589761,13.2753490501259,-54.3526359960326
1580423754.84549,133.943694209201,-10.1625085831997,-63.5690852216374
1580423754.84949,138.948653391318,-35.3704127565425,-68.8181887541009
1580423754.85348,136.81239032578,-60.0900282291905,-70.5882352941176
1580423754.85747,131.136034180209,-82.1240558480201,-68.9402609292745
1580423754.86147,125.276569771878,-100.190737773709,-65.2780956740673
1580423754.86546,120.454718852522,-114.351110093843,-60.2731364919509
1580423754.86945,114.961470969711,-123.994811932555,-54.4747081712062
1580423754.87345,105.073624780652,-129.304951552605,-48.8593881132219
1580423754.87744,89.2652780956741,-134.065766384375,-43.9154650186924
1580423754.88143,68.7571526665142,-144.014648661021,-40.2532997634853
1580423754.88543,43.5492484931715,-159.578850995651,-37.6287479972534
1580423754.88942,15.1064316777295,-178.133821622034,-36.2859540703441
1580423754.89342,-10.4066529335469,-193.759060044251,-36.4080262455177
1580423754.89741,-29.2668039978637,-201.815823605707,-37.4456397344932
1580423754.90146,-43.6102845807584,-205.600061036087,-39.5208667124439
1580423754.90545,-53.3150225070574,-208.896009765774,-42.2064545662624
1580423754.90945,-56.3668268863967,-208.957045853361,-44.7699702449074
1580423754.91344,-54.4747081712062,-202.914473182269,-47.2114137483788
1580423754.91743,-50.9346150911726,-194.73563744564,-49.4087129015031
1580423754.92143,-49.2866407263296,-189.547570000763,-51.8501564049745
1580423754.92542,-50.2632181277181,-187.045090409705,-54.9629968719005
1580423754.92941,-50.6294346532388,-184.66468299382,-57.648584725719
1580423754.93341,-46.9672693980317,-182.345311665522,-59.4796673533226
1580423754.9374,-38.910505836576,-179.35454337377,-60.6393530174716
1580423754.94139,-25.2384222171358,-175.143053330282,-62.0431830319676
1580423754.94539,-6.62241550316617,-171.236743724727,-63.8132295719845
1580423754.94938,12.1766994735638,-169.405661097124,-65.4612039368276
1580423754.95337,27.8629739833675,-171.114671549554,-66.4377813382162
1580423754.95737,38.7884336614022,-178.255893797208,-66.0715648126954
1580423754.96136,44.5258258945601,-189.79171435111,-64.6677347981995
1580423754.96535,43.7323567559317,-203.46379797055,-61.7380025940338
1580423754.96935,31.5251392385746,-216.220340276188,-56.9161516746776
1580423754.97334,4.73029678797593,-225.558861676967,-51.2397955291067
1580423754.97733,-29.8771648737315,-224.15503166247,-46.4179446097505
1580423754.98132,-59.7848477912567,-214.328221560998,-43.3051041428246
1580423754.98532,-82.9175249866482,-206.515602349889,-39.2156862745098
1580423754.98931,-104.15808346685,-207.003891050584,-33.1120775158313
1580423754.9933,-124.66620889601,-215.304798962386,-26.1539635309375
1580423754.9973,-141.084916456855,-229.098954757,-19.5620660715647
1580423755.00129,-148.470283054856,-243.869687953002,-13.7026016632333
1580423755.00528,-144.319829098955,-254.978255893797,-9.12489509422448
1580423755.00928,-131.013962005035,-261.142900740062,-7.72106507972831
1580423755.01327,-113.313496604868,-263.523308155947,-9.55214770733187
1580423755.01726,-96.2844281681546,-263.157091630427,-13.8246738384069
1580423755.02126,-83.0395971618218,-260.654612039368,-18.5854886701761
1580423755.02525,-73.2127870603495,-257.175555046922,-22.1255817502097
1580423755.02924,-65.7053482871747,-253.513389791714,-24.7501335164416
1580423755.03324,-57.7096208133059,-249.301899748226,-26.8863965819789
1580423755.03723,-47.1503776607919,-243.686579690242,-28.8395513847561
1580423755.04123,-32.5017166399634,-236.11810482948,-30.5485618371861
1580423755.04522,-14.4960708018616,-227.512016479744,-31.1589227130539
1580423755.04921,5.34065766384379,-218.600747692073,-29.8771648737315
1580423755.05321,25.482566567483,-211.520561532006,-24.9332417792018
1580423755.0572,45.3803311207751,-206.149385824369,-19.6231021591516
1580423755.06119,63.8132295719847,-201.266498817426,-15.3505760280766
1580423755.06518,78.6449988555737,-196.566720073243,-13.3974212252995
1580423755.06917,88.6549172198065,-192.965590905623,-14.6181429770352
1580423755.07317,94.9416342412451,-192.782482642863,-17.486839093614
1580423755.07716,97.0778973067827,-191.31761654078,-21.8814373998625
1580423755.08115,93.1715877012284,-187.533379110399,-26.8863965819789
1580423755.08515,83.2837415121694,-184.176394293126,-32.5017166399634
1580423755.08914,68.0247196154728,-182.040131227588,-38.3001449607082
1580423755.09313,49.042496375982,-178.988326848249,-44.1596093690396
1580423755.09713,28.2291905088882,-173.678187228199,-49.8970016021974
1580423755.10112,7.11070420386045,-165.987640192264,-54.9629968719005
1580423755.10512,-13.5805294880597,-155.916685740444,-59.8458838788433
1580423755.10911,-33.2341496910049,-144.686045624475,-64.2404821850919
1580423755.1131,-50.0801098649576,-132.661936369879,-68.3299000534066
1580423755.1171,-63.9963378347447,-120.943007553216,-72.0531013962004
1580423755.12109,-74.3114366369116,-109.10200656138,-74.8607614251925
1580423755.12508,-81.6968032349125,-96.8947890440224,-76.6308079652094
1580423755.12908,-86.7017624170289,-84.0161745632104,-76.6308079652094
1580423755.13307,-89.570458533608,-71.2596322575723,-74.3114366369116
1580423755.13706,-90.1808194094758,-58.5641260395209,-69.9778744182497
1580423755.14108,-88.8380254825665,-46.6620889600977,-63.1418326085297
1580423755.14508,-87.5562676432439,-34.5159075303275,-54.0474555580988
1580423755.14907,-87.006942854963,-19.6231021591516,-43.0609597924774
1580423755.15306,-88.2887006942854,-0.51880674448762,-30.3654535744258
1580423755.15706,-90.3639276722361,23.773556115053,-15.7167925535973
1580423755.16105,-90.9742885481039,52.8267338063629,-0.885023270008332
1580423755.16504,-87.6173037308308,86.2745098039218,13.214312962539
1580423755.16904,-77.7294575417716,121.065079728389,26.5812161440451
1580423755.17303,-59.7848477912567,155.42839703975,39.8870832379644
1580423755.17702,-34.0276188296332,188.937209124895,54.4747081712062
1580423755.18102,-1.8616006713969,222.873273823148,71.5648126955066
1580423755.18501,34.3327992675668,257.297627222095,90.4249637598232
1580423755.189,69.5506218051423,288.73121232929,109.590295262074
1580423755.193,98.8479438467994,313.572899977112,127.473868925002
1580423755.19699,123.689631494621,328.648813611048,144.563973449302
1580423755.20098,149.385824368658,332.921339742123,161.837186236362
1580423755.20498,179.53765163653,327.733272297246,178.561074235141
1580423755.20897,212.985427634089,317.845426108187,193.087663080797
1580423755.21297,243.442435339895,304.600595101854,203.219653620203
1580423755.21696,262.241550316625,292.454413672083,203.768978408484
1580423755.22095,262.912947280079,284.275577935454,194.430457007706
1580423755.22494,243.259327077134,268.711375600824,177.401388570992
1580423755.22893,202.059967956054,246.311131456474,157.32051575494
1580423755.23293,140.779736018921,217.318989852751,135.713740749218
1580423755.23692,64.4235904478523,177.64553292134,115.144579232471
1580423755.24091,-17.792019531548,134.798199435416,94.148165102617
1580423755.24491,-88.3497367818723,85.0537880521861,73.0907148851761
1580423755.2489,-130.891889829862,27.0695048447394,54.1695277332719
1580423755.25289,-139.620050354772,-27.191577019913,41.0467689021132
1580423755.25689,-118.989852750439,-69.916838330663,36.8352788586251
1580423755.26088,-81.574731059739,-97.9324025329977,38.3611810482946
1580423755.26488,-44.8310063324941,-106.294346532387,42.6337071793696
1580423755.26887,-20.5996795605402,-98.5427634088655,49.3476768139162
1580423755.27286,-12.8480964370183,-81.025406271458,59.2355230029752
1580423755.27686,-15.9609369039445,-66.4377813382162,68.9402609292747
1580423755.28085,-27.9850461585411,-55.9395742732891,75.0438696879532
1580423755.28484,-54.6578164339667,-44.2206454566262,74.189364461738
1580423755.28884,-102.082856488899,-29.4499122606239,64.7898069733733
1580423755.29283,-164.522774090181,-12.4818799114976,47.8828107118331
1580423755.29682,-221.774624246586,0.70191500724809,26.9474326695658
1580423755.30084,-256.870374608988,8.88075074387734,5.58480201419093
1580423755.30483,-268.162050812543,15.6557564660104,-13.8246738384069
1580423755.30883,-260.288395513847,22.919050888838,-29.1447318226901
1580423755.31282,-240.024414435035,32.5627527275501,-39.0936140993363
1580423755.31682,-212.985427634089,48.1269550621805,-44.3427176317998
1580423755.32081,-173.739223315785,64.85084306096,-47.3945220111391
1580423755.3248,-112.52002746624,73.5179674982837,-50.9956511787595
1580423755.3288,-32.0134279392691,67.6585030899523,-56.0616464484626
1580423755.33279,58.2589456015867,45.2582589456015,-64.3625543602654
1580423755.33678,148.59235523003,9.4300755321583,-75.898374914168
1580423755.34078,226.779583428702,-37.4456397344932,-87.2510872053101
1580423755.34477,287.449454489967,-99.8245212481881,-87.3121232928968
1580423755.34876,301.976043335622,-135.10337987335,-35.187304493782
1580423755.35276,134.493018997482,-118.379491874571,11.2001220721752
1580423755.35675,-67.4143587396047,-108.064393072404,-18.5854886701761
1580423755.36074,-52.4605172808424,-72.7244983596552,-10.5287251087204
1580423755.36474,3.87579156176093,-50.6294346532388,10.2845807583733
1580423755.36873,-12.7870603494316,2.7771419851988,27.4357213702601
1580423755.37273,-2.89921416037237,31.2809948882275,30.6706340123596
1580423755.37672,66.8650339513238,40.0701915007246,9.73525597009234
1580423755.38071,142.610818646525,45.1361867704279,-26.0318913557639
1580423755.3847,205.416952773327,39.3987945372701,-59.2355230029755
1580423755.38869,243.381399252308,20.9658960860609,-76.3256275272754
1580423755.39269,216.647592889296,-2.7771419851988,-66.0715648126954
1580423755.39668,122.896162355993,-25.0553139543754,-36.7132066834517
1580423755.40067,1.73952849622333,-37.5066758220798,-4.05889982452118
1580423755.40467,-106.843671320668,-33.9665827420463,23.9566643778132
1580423755.40866,-172.030212863355,-14.8622873273823,42.5726710917829
1580423755.41265,-179.72075989929,15.8388647287709,48.8593881132219
1580423755.41665,-134.615091172656,53.07087815671,45.8686198214693
1580423755.42064,-51.6670481422141,87.8004119935913,36.3469901579308
1580423755.42463,47.4555580987258,116.731517509728,22.7359426260775
1580423755.42863,131.258106355383,135.530632486458,10.650797283894
1580423755.43262,164.400701915007,139.436942092012,9.79629205767901
1580423755.43662,140.901808194095,127.168688487068,21.0879682612344
1580423755.44061,91.5236133363851,105.317769130999,31.464103150988
1580423755.4446,54.6578164339662,94.6364538033113,28.1071183337147
1580423755.4486,50.9956511787591,109.895475700008,12.6039520866711
1580423755.45259,82.9785610742351,131.563286793316,-6.37827115281902
1580423755.45658,124.971389333944,136.385137712673,-21.210040436408
1580423755.46057,144.502937361715,128.08422980087,-26.8863965819789
1580423755.46456,130.830853742275,119.72228580148,-24.5670252536811
1580423755.46856,93.6598764019227,116.060120546273,-20.4776073853666
1580423755.47255,47.5776302738993,115.877012283513,-20.050354772259
1580423755.47654,2.96025024795904,117.708094911116,-24.3839169909209
1580423755.48054,-34.0276188296332,121.553368429084,-29.5109483482108
1580423755.48453,-60.3952086671245,126.619363698787,-30.8537422751201
1580423755.48852,-75.9594110017547,130.952925917449,-27.5577935454337
1580423755.49252,-84.0161745632104,133.638513771267,-21.6372930495154
1580423755.49651,-87.9224841687646,135.896849011978,-14.4960708018616
1580423755.50051,-89.0211337453268,140.718699931334,-6.62241550316617
1580423755.5045,-86.9459067673761,149.019607843137,1.73952849622333
1580423755.50849,-81.1474784466316,159.761959258411,10.1625085831997
1580423755.51249,-71.5037766079195,171.419851987488,18.646524757763
1580423755.51648,-58.9913786526283,182.345311665522,26.6422522316318
1580423755.52047,-45.9296559090562,191.927977416648,34.0886549172196
1580423755.52447,-35.9807736324103,200.228885328451,41.2298771648736
1580423755.52846,-31.1589227130539,206.332494087129,48.7983520256348
1580423755.53245,-30.3654535744258,210.849164568551,56.2447547112229
1580423755.53645,-31.1589227130539,215.2437628748,63.3249408712904
1580423755.54047,-30.5485618371861,220.675974670024,69.7947661554895
1580423755.54446,-27.6188296330204,226.901655603876,75.1049057755399
1580423755.54845,-22.7969787136644,233.859769588769,78.4618905928132
1580423755.55245,-16.9985503929197,240.756847486076,79.6215762569623
1580423755.55644,-11.6884107728695,247.409781033036,77.9125658045323
1580423755.56043,-7.59899290455473,252.597848477913,73.0296787975894
1580423755.56443,-3.08232242313261,254.428931105516,66.4377813382166
1580423755.56842,1.73952849622333,256.382085908293,56.5499351491567
1580423755.57241,8.27038986800949,257.663843747616,31.2809948882275
1580423755.57641,15.777828641184,255.649652857252,14.6791790646218
1580423755.5804,13.6415655756466,261.38704509041,38.0560006103608
1580423755.58439,3.93682764934761,264.560921644922,46.784161135271
1580423755.58839,1.73952849622333,255.771725032425,50.8125429159991
1580423755.59238,10.8949416342411,255.039291981384,53.1319142442967
1580423755.59637,26.337071793698,256.809338521401,56.2447547112229
1580423755.60037,45.1972228580146,255.893797207599,60.1510643167771
1580423755.60436,66.55985351339,251.255054551003,64.4235904478523
1580423755.60836,89.8756389715422,244.968337529564,68.6961165789276
1580423755.61235,113.069352254521,236.423285267414,71.6258487830933
1580423755.61634,134.248874647135,224.887464713512,72.7855344472423
1580423755.62033,153.475242236972,208.59082932784,71.8089570458537
1580423755.62432,169.893949797818,187.89959563592,67.8416113527123
1580423755.62832,181.551842526894,164.400701915007,60.2121004043638
1580423755.63231,185.763332570382,139.864194705119,48.7983520256348
1580423755.6363,180.819409475852,115.571831845579,33.4782940413518
1580423755.6403,167.086289768826,92.3781185626003,14.8622873273823
1580423755.64429,148.287174792096,70.8323796444652,-6.07309071488521
1580423755.64828,128.389410238804,51.9722285801477,-27.4967574578468
1580423755.65228,112.642099641413,35.6145571068894,-46.9672693980317
1580423755.65627,103.425650415808,20.1113908598459,-63.4470130464638
1580423755.66027,97.8713664454108,1.98367284657047,-76.3256275272754
1580423755.66426,88.0445563439384,-21.8204013122759,-85.6641489280537
1580423755.66825,66.3767452506295,-50.9346150911726,-91.0963607232775
1580423755.67225,32.318608377203,-81.6357671473259,-91.7677576867322
1580423755.67624,-6.86655985351331,-110.322728313115,-88.1666285191118
1580423755.68023,-41.9012741283284,-134.431982909895,-80.8422980086975
1580423755.68423,-64.484626535439,-152.742809185931,-70.2830548561838
1580423755.68822,-72.7855344472418,-164.15655756466,-57.5265125505455
1580423755.69221,-69.4895857175554,-168.490119783322,-43.9765011062791
1580423755.69621,-59.8458838788433,-166.659037155718,-30.9147783627068
1580423755.70022,-50.2632181277181,-160.494392309453,-18.9517051956968
1580423755.70422,-45.1361867704281,-154.024567025254,-9.06385900663759
1580423755.70821,-44.892042420081,-148.897535667964,-1.73952849622333
1580423755.71221,-47.8217746242467,-145.296406500343,3.14335851071951
1580423755.7162,-55.0240329594874,-145.235370412757,5.27962157625689
1580423755.72019,-64.5456626230259,-154.940108339055,4.24200808728165
1580423755.72419,-70.5882352941176,-175.082017242695,-0.091554131380235
1580423755.72818,-65.0339513237202,-197.482261387045,-6.80552376592664
1580423755.73217,-47.6386663614862,-215.60997940032,-14.6791790646218
1580423755.73617,-28.3512626840618,-227.267872129397,-22.919050888838
1580423755.74016,-9.97940032043948,-232.70008392462,-30.9758144502937
1580423755.74415,11.0780498970016,-233.066300450141,-38.7273975738156
1580423755.74815,31.6472114137482,-227.634088654917,-46.0517280842298
1580423755.75214,47.2724498359653,-218.234531166552,-53.3760585946441
1580423755.75613,57.1602960250248,-208.834973678187,-60.212100404364
1580423755.76013,62.7145799954224,-201.144426642252,-65.8274204623483
1580423755.76412,63.2028686961166,-196.505683985657,-70.6492713817045
1580423755.76812,56.6720073243305,-195.895323109789,-74.6776531624323
1580423755.77211,41.5960936903944,-197.726405737392,-77.302204928664
1580423755.7761,18.8906691081102,-202.365148393988,-76.3866636148623
1580423755.78009,-11.1390859845883,-207.186999313344,-70.6492713817045
1580423755.78408,-45.8686198214696,-208.224612802319,-61.0055695429924
1580423755.78808,-76.9970244907302,-207.492179751278,-50.5073624780653
1580423755.79207,-97.6272220950639,-210.910200656138,-42.1454184786755
1580423755.79606,-108.003356984817,-218.051422903792,-35.5535210193027
1580423755.80006,-111.970702677958,-225.253681239033,-30.1213092240787
1580423755.80405,-112.092774853132,-231.418326085298,-25.0553139543754
1580423755.80804,-110.627908751049,-236.789501792935,-20.1113908598459
1580423755.81204,-109.224078736553,-240.329594872969,-15.6557564660104
1580423755.81603,-108.308537422751,-241.000991836423,-11.5663385976959
1580423755.82002,-106.965743495842,-239.16990920882,-8.45349813076973
1580423755.82402,-102.388036926833,-236.545357442588,-7.29381246662092
1580423755.82801,-92.3781185626001,-234.164950026703,-7.90417334248878
1580423755.83201,-76.0814831769283,-233.737697413596,-9.55214770733187
1580423755.836,-55.3902494850081,-235.812924391547,-11.6884107728695
1580423755.83999,-34.4548714427406,-239.475089646754,-13.6415655756466
1580423755.84399,-17.4258030060273,-243.442435339895,-15.3505760280766
1580423755.84798,-5.6458381017776,-245.944914930953,-16.8154421301595
1580423755.85197,1.55642023346309,-245.761806668193,-17.4258030060273
1580423755.85597,6.68345159075307,-241.916533150225,-17.0595864805066
1580423755.85995,12.664988174258,-234.348058289464,-14.9843595025559
1580423755.86395,22.2476539253832,-225.68093385214,-10.5287251087204
1580423755.86794,36.2249179827572,-217.074845502403,-4.8523689631495
1580423755.87193,53.3760585946438,-209.811551079576,0.70191500724809
1580423755.87593,70.3440909437709,-204.440375371939,4.24200808728165
1580423755.87992,84.0772106507975,-200.473029678798,6.31723506523235
1580423755.88392,92.7443350881208,-198.33676661326,6.43930724040592
1580423755.88791,94.6974898908979,-196.566720073243,3.14335851071951
1580423755.8919,89.2042420080875,-194.857709620813,-1.73952849622333
1580423755.8959,77.7294575417718,-193.453879606317,-7.53795681696806
1580423755.89989,62.1652552071409,-191.012436102846,-13.6415655756466
1580423755.90388,43.7933928435186,-188.143739986267,-19.6841382467383
1580423755.90788,23.8956282902266,-185.214007782101,-25.2994583047225
1580423755.91187,3.14335851071951,-182.040131227588,-30.4875257495994
1580423755.91586,-17.7309834439611,-177.889677271687,-35.6145571068896
1580423755.91986,-38.1780727855346,-172.70160982681,-40.4364080262455
1580423755.92385,-57.7096208133059,-166.903181506065,-45.1972228580148
1580423755.92784,-75.5321583886473,-160.128175783932,-49.7138933394369
1580423755.93184,-91.0353246356908,-152.681773098344,-53.7422751201648
1580423755.93583,-104.15808346685,-144.502937361715,-56.7940794995041
1580423755.93985,-114.900434882124,-135.774776836805,-58.8693064774548
1580423755.94384,-123.689631494621,-126.192111085679,-60.212100404364
1580423755.94784,-130.708781567102,-115.815976195926,-60.6393530174716
1580423755.95183,-135.957885099565,-104.951552605478,-60.3952086671245
1580423755.95582,-139.131761654078,-93.1105516136415,-59.2355230029755
1580423755.95982,-140.352483405814,-79.865720607309,-56.9771877622645
1580423755.96381,-139.497978179599,-64.6677347981995,-53.6812390325781
1580423755.9678,-137.422751201648,-47.2114137483788,-48.8593881132219
1580423755.9718,-134.004730296788,-27.0084687571525,-42.7557793545434
1580423755.97579,-128.389410238804,-3.93682764934761,-35.4314488441291
1580423755.97978,-120.149538414588,20.2944991226061,-27.0084687571525
1580423755.98378,-108.796826123445,44.8920424200808,-16.6933699549859
1580423755.98777,-93.5988403143358,69.2454413672085,-4.7913328755626
1580423755.99177,-73.8231479362173,94.5143816281379,7.84313725490188
1580423755.99576,-49.164568551156,120.637827115282,19.9893186846723
1580423755.99975,-18.2803082322423,144.319829098955,30.7927061875332
1580423756.00375,18.4634164950025,163.851377126726,41.657129777981
1580423756.00774,60.2121004043638,181.185626001373,54.3526359960324
1580423756.01173,105.012588693065,199.496452277409,68.5740444037538
1580423756.01573,148.653391317616,219.211108567941,82.9175249866485
1580423756.01971,186.007476920729,238.010223544671,96.8337529564355
1580423756.02371,213.656824597544,253.147173266193,110.139620050355
1580423756.0277,232.150759136339,263.09605554284,122.835126268406
1580423756.03169,247.165636682689,267.734798199435,134.615091172656
1580423756.03569,264.377813382162,268.101014724956,144.930189974822
1580423756.03968,284.824902723735,265.659571221485,152.864881361105
1580423756.04367,304.722667277028,259.494926375219,156.893263141832
1580423756.04767,316.014343480583,248.813611047532,155.733577477683
1580423756.05166,311.192492561227,235.141527428092,148.897535667963
1580423756.05566,282.871747920958,216.342412451362,137.483787289235
1580423756.05965,225.436789501793,191.622796978714,124.116884107729
1580423756.06364,139.253833829252,158.175020981155,110.99412527657
1580423756.06764,35.3093766689553,112.031738765545,99.4583047226674
1580423756.07163,-65.8274204623483,54.1084916456853,88.6549172198065
1580423756.07562,-142.305638208591,-6.31723506523235,77.3632410162509
1580423756.07962,-181.551842526894,-58.2589456015869,65.4001678492409
1580423756.08361,-182.650492103456,-94.0871290150303,54.1695277332719
1580423756.0876,-158.297093156329,-111.055161364157,44.7089341573203
1580423756.0916,-126.924544136721,-113.862821393149,37.2625314717325
1580423756.09559,-102.937361715114,-108.003356984817,30.9147783627068
1580423756.09961,-94.453345540551,-94.2092011902039,24.322880903334
1580423756.1036,-102.937361715114,-72.175173571374,16.083009079118
1580423756.1076,-125.276569771878,-41.7792019531548,5.6458381017776
1580423756.11159,-156.588082703899,-8.02624551766235,-5.82894636453807
1580423756.11558,-188.693064774548,23.0411230640116,-16.2661173418783
1580423756.11958,-212.375066758221,48.0048828870067,-24.5059891660944
1580423756.12357,-218.173495078965,64.0573739223319,-30.609597924773
1580423756.12756,-199.801632715343,68.2688639658199,-35.6755931944763
1580423756.13156,-154.207675288014,64.6677347981995,-41.2298771648739
1580423756.13555,-85.1758602273594,56.6720073243305,-47.6386663614862
1580423756.13954,-6.07309071488521,42.8168154421301,-53.9864194705119
1580423756.14354,67.2922865644314,18.8296330205233,-61.4328221560997
1580423756.14753,121.24818799115,-18.4023804074159,-71.0765239948119
1580423756.15153,149.080643930724,-67.6585030899519,-77.1190966659037
1580423756.15552,140.04730296788,-100.801098649577,-70.0389105058366
1580423756.15951,66.1936369878695,-107.637140459297,-67.4753948271916
1580423756.1635,-7.7821011673152,-123.445487144274,-83.1006332494087
1580423756.1675,-26.1539635309375,-113.252460517281,-71.625848783093
1580423756.17149,-46.5400167849241,-80.4760814831768,-44.2206454566262
1580423756.17549,-86.6407263294423,-38.2391088731213,-33.4172579537653
1580423756.17947,-104.646372167544,-6.86655985351331,-33.7224383916991
1580423756.18347,-59.2355230029755,23.4073395895323,-39.7039749752041
1580423756.18746,42.8168154421301,48.1879911497672,-56.0616464484626
1580423756.19145,159.884031433585,58.8082703898676,-73.2738231479361
1580423756.19545,242.954146639201,54.2305638208591,-72.8465705348287
1580423756.19944,246.860456244755,41.2909132524603,-49.164568551156
1580423756.20343,171.602960250248,27.3746852826732,-13.0312046997788
1580423756.20743,57.2213321126114,18.4634164950025,22.3697261005568
1580423756.21142,-47.8828107118334,23.8956282902266,51.4839398794534
1580423756.21542,-109.28511482414,46.0517280842296,73.7010757610437
1580423756.21941,-112.031738765545,73.1517509727628,88.5328450446327
1580423756.2234,-63.3859769588769,89.8146028839551,92.6222629129475
1580423756.2274,10.2235446707866,99.7634851606012,82.4292362859542
1580423756.23139,87.312123292897,109.529259174487,56.8551155870905
1580423756.23538,145.113298237583,117.708094911116,28.1681544213016
1580423756.23938,157.930876630808,124.361028458076,9.36903944457163
1580423756.24337,134.431982909895,126.314183260853,2.28885328450451
1580423756.24736,106.538490882735,122.95719844358,-3.50957503624022
1580423756.25136,92.8664072632946,128.328374151217,-14.8012512397954
1580423756.25535,99.3362325474936,140.840772106508,-30.0602731364918
1580423756.25934,112.947280079347,143.404287785153,-44.5258258945603
1580423756.26333,109.346150911726,137.544823376822,-48.9814602883955
1580423756.26732,80.0488288700694,135.225452048523,-41.8402380407417
1580423756.27132,33.4782940413518,136.263065537499,-30.9758144502937
1580423756.27531,-15.6557564660104,136.202029449912,-24.8111696040282
1580423756.27931,-58.8082703898681,136.995498588541,-24.8722056916151
1580423756.2833,-90.1808194094758,139.864194705119,-25.9098191805904
1580423756.28729,-106.904707408255,144.502937361715,-24.0177004654001
1580423756.29129,-111.17723353933,149.507896543832,-18.2803082322423
1580423756.29528,-108.979934386206,155.001144426642,-9.79629205767901
1580423756.29927,-104.707408255131,161.043717097734,0.152590218966907
1580423756.30327,-98.4817273212789,168.734264133669,11.0170138094147
1580423756.30726,-89.9977111467153,178.744182497902,22.1255817502097
1580423756.31125,-78.5839627679866,190.646219577325,33.173113603418
1580423756.31525,-63.3859769588769,204.135194934005,44.1596093690393
1580423756.31924,-45.0751506828412,219.089036392767,55.1461051346605
1580423756.32323,-25.482566567483,234.409094377051,66.3157091630428
1580423756.32723,-8.27038986800949,248.691538872358,77.3022049286642
1580423756.33122,3.99786373693451,260.593575951782,87.3731593804837
1580423756.33521,10.0404364080262,269.382772564279,95.6740672922865
1580423756.33923,9.91836423285258,275.364309147783,102.082856488899
1580423756.34323,4.91340505073617,279.514763103685,105.439841306172
1580423756.34722,-3.75371938658736,281.589990081636,105.439841306172
1580423756.35121,-14.5571068894483,281.345845731289,102.510109102006
1580423756.35521,-26.4591439688716,279.819943541619,98.2375829709317
1580423756.3592,-37.8728923476006,277.195391775387,93.6598764019227
1580423756.36319,-48.9204242008088,274.509803921569,90.2418554970627
1580423756.36719,-59.5407034409095,272.617685206378,85.4810406652937
1580423756.37118,-62.775616083009,268.589303425651,55.8175020981153
1580423756.37517,-52.8877698939498,255.893797207599,23.3463035019454
1580423756.37917,-53.437094682231,264.682993820096,80.0488288700694
1580423756.38316,-55.7564660105288,269.93209735256,92.0119020370794
1580423756.38715,-34.5769436179141,261.264972915236,95.7961394674603
1580423756.39115,5.03547722590974,266.575112535286,96.1623559929808
1580423756.39514,45.6855115587089,266.086823834592,94.8195620660717
1580423756.39914,78.4008545052266,256.321049820706,92.0729381246665
1580423756.40313,100.495918211643,241.06202792401,87.8004119935913
1580423756.40712,112.336919203479,221.896696421759,81.8188754100865
1580423756.41112,114.961470969711,199.313344014649,73.0296787975894
1580423756.41511,110.322728313115,174.898908979934,61.61593041886
1580423756.4191,101.838712138552,150.423437857633,47.3334859235522
1580423756.42309,92.0729381246665,126.985580224308,30.2433813992523
1580423756.42708,80.7202258335242,105.012588693065,10.1014724956131
1580423756.43108,66.9871061264976,85.5420767528803,-12.1766994735638
1580423756.43507,52.6436255436024,68.3909361409937,-34.8210879682613
1580423756.43906,41.8402380407415,52.5215533684291,-55.0240329594874
1580423756.44306,38.1780727855344,36.2249179827572,-71.5648126955061
1580423756.44705,40.0701915007246,17.2426947432668,-83.9551384756237
1580423756.45105,41.5350576028075,-5.6458381017776,-92.5612268253603
1580423756.45504,36.2859540703439,-31.8303196765089,-97.2610055695432
1580423756.45903,22.5528343633173,-60.0289921416038,-97.6882581826505
1580423756.46303,3.20439459830618,-88.1055924315251,-93.9040207522698
1580423756.46702,-14.1298542763409,-113.801785305562,-86.7017624170289
1580423756.47101,-23.2852674143587,-133.760585946441,-76.8749523155566
1580423756.47501,-21.8814373998625,-146.395056076905,-65.5832761120012
1580423756.479,-12.0546272983902,-152.681773098344,-53.9864194705119
1580423756.48299,1.37331197070262,-155.733577477684,-42.8168154421303
1580423756.48699,15.7167925535973,-159.639887083238,-32.623788815137
1580423756.49098,28.4122987716487,-164.705882352941,-23.7125200274661
1580423756.49497,36.5911345082779,-170.687418936446,-16.5102616922254
1580423756.49899,39.7039749752039,-174.654764629587,-10.5287251087204
1580423756.50299,40.2532997634851,-172.579537651637,-6.74448767833974
1580423756.50698,41.3519493400472,-166.04867627985,-4.7913328755626
1580423756.51097,44.5868619821467,-163.79034103914,-4.18097199969475
1580423756.51497,49.4697489890896,-169.46669718471,-4.73029678797593
1580423756.51896,54.0474555580986,-181.979095140002,-6.98863202868688
1580423756.52295,56.7330434119172,-195.407034409094,-10.5287251087204
1580423756.52695,52.4605172808419,-205.966277561608,-14.2519264515145
1580423756.53094,37.8118562600137,-212.558175020981,-17.9751277943083
1580423756.53493,14.9843595025559,-214.572365911345,-22.3086900129701
1580423756.53893,-11.505302510109,-212.680247196155,-28.2902265964751
1580423756.54292,-36.041809719997,-207.919432364385,-34.8210879682613
1580423756.54691,-51.9722285801481,-200.717174029145,-40.619516289006
1580423756.55091,-55.8175020981155,-193.02662699321,-45.0751506828412
1580423756.5549,-45.9906919966431,-187.106126497292,-48.5542076752881
1580423756.55889,-24.7501335164416,-184.359502555886,-51.6670481422141
1580423756.56289,-1.0070954451819,-184.359502555886,-52.4605172808424
1580423756.56688,12.9091325246052,-185.580224307622,-50.4463263904784
1580423756.57088,12.6039520866711,-188.204776073854,-47.0893415732053
1580423756.57487,2.7161058976119,-191.927977416648,-44.4037537193867
1580423756.57886,-11.810482948043,-196.200503547723,-43.4271763179981
1580423756.58285,-27.9240100709544,-202.670328831922,-43.1219958800641
1580423756.58684,-43.7933928435189,-214.267185473411,-41.9623102159153
1580423756.59084,-58.3199816891738,-229.159990844587,-39.5819028000305
1580423756.59483,-69.3064774547952,-241.24513618677,-35.9807736324103
1580423756.59882,-74.6166170748454,-246.860456244755,-31.3420309758146
1580423756.60282,-74.0672922865645,-245.578698405432,-26.7643244068054
1580423756.60681,-69.3064774547952,-239.475089646754,-23.1631952391851
1580423756.61081,-63.2028686961166,-232.51697566186,-20.904859998474
1580423756.6148,-57.0992599374381,-227.450980392157,-19.501029983978
1580423756.61879,-50.8125429159991,-225.436789501793,-18.4023804074159
1580423756.62279,-44.1596093690396,-226.291294728008,-17.6089112687876
1580423756.62678,-38.056000610361,-229.28206301976,-17.486839093614
1580423756.63077,-33.1731136034182,-233.310444800488,-17.9751277943083
1580423756.63477,-28.900587472343,-236.545357442588,-18.646524757763
1580423756.63876,-24.0787365529868,-236.240177004654,-18.8906691081102
1580423756.64275,-17.6089112687876,-230.62485694667,-18.4634164950025
1580423756.64675,-9.4911116197452,-221.530479896239,-16.0219729915311
1580423756.65074,-0.762951094834762,-212.130922407874,-11.4442664225223
1580423756.65473,8.14831769283592,-204.745555809872,-5.52376592660403
1580423756.65875,16.4492256046387,-201.022354467079,0.51880674448762
1580423756.66275,23.773556115053,-199.801632715343,5.09651331349664
1580423756.66674,29.0226596475165,-199.374380102235,7.04966811627378
1580423756.67073,31.5251392385746,-198.275730525673,6.68345159075307
1580423756.67473,31.3420309758144,-195.651178759442,3.44853894865332
1580423756.67872,29.2057679102768,-192.721446555276,-2.89921416037237
1580423756.68271,26.0929274433508,-188.815136949722,-11.3221942473488
1580423756.68671,22.1866178377966,-182.040131227588,-20.050354772259
1580423756.6907,17.3037308308537,-173.922331578546,-27.5577935454337
1580423756.69469,11.4442664225223,-167.025253681239,-33.8445105668727
1580423756.69869,4.24200808728165,-161.287861448081,-38.7273975738156
1580423756.70268,-3.75371938658736,-155.61150530251,-42.4505989166096
1580423756.70667,-12.4208438239109,-149.263752193484,-45.441367208362
1580423756.71067,-21.3931486991683,-142.366674296178,-48.5542076752881
1580423756.71466,-31.0368505378804,-134.981307698177,-51.3008316166934
1580423756.71865,-41.0467689021134,-126.985580224308,-54.4747081712062
1580423756.72265,-51.1787594415198,-118.01327534905,-57.8316929884795
1580423756.72664,-61.1276417181659,-108.369573510338,-61.7990386816205
1580423756.73063,-70.0999465934233,-97.9934386205846,-65.7663843747616
1580423756.73463,-77.7294575417716,-86.8238345922025,-69.3064774547952
1580423756.73862,-83.7109941252766,-75.4711223010604,-71.625848783093
1580423756.74261,-88.7769893949796,-63.9963378347447,-72.7244983596552
1580423756.7466,-92.6222629129472,-52.7046616311895,-72.175173571374
1580423756.7506,-95.9182116426339,-41.2298771648739,-69.7947661554895
1580423756.75459,-98.6648355840391,-29.0226596475165,-65.2780956740673
1580423756.75858,-100.190737773709,-15.4116121156633,-57.8927290760662
1580423756.76258,-99.0920881971467,0.091554131380235,-47.8217746242467
1580423756.76657,-94.5143816281377,16.7544060425726,-34.5159075303275
1580423756.77057,-87.006942854963,34.027618829633,-17.2426947432668
1580423756.77456,-76.9970244907302,51.2397955291062,4.42511635004189
1580423756.77855,-62.1652552071412,68.0247196154728,28.046082246128
1580423756.78254,-40.8636606393532,84.443427176318,49.7749294270234
1580423756.78654,-10.8949416342411,98.8479438467994,64.85084306096
1580423756.79053,23.7125200274661,115.877012283513,68.6961165789276
1580423756.79453,48.9204242008086,140.23041123064,65.8274204623485
1580423756.79852,57.8927290760662,170.138094148165,67.6585030899523
1580423756.80251,56.0006103608757,198.580910963607,80.7812619211109
1580423756.80651,53.0098420691234,226.718547341115,99.275196459907
1580423756.8105,57.1602960250248,249.179827573053,111.543450064851
1580423756.81449,75.4711223010609,268.650339513237,125.459678034638
1580423756.81848,111.787594415198,283.299000534066,141.268024719615
1580423756.82247,163.912413214313,294.956893263142,158.541237506676
1580423756.82647,222.26291294728,307.469291218433,173.189898527504
1580423756.83046,276.401922636759,314.183260852979,182.95567254139
1580423756.83446,319.005111772336,299.656672007324,190.524147402152
1580423756.83845,339.147020675975,253.269245441367,195.468070496681
1580423756.84244,319.188220035096,179.72075989929,190.218966964218
1580423756.84644,242.526894026093,93.7209124895094,173.861295490959
1580423756.85043,113.191424429694,14.1298542763409,153.170061799039
1580423756.85442,-34.7600518806746,-47.455558098726,131.807431143664
1580423756.85842,-159.273670557717,-84.8096437018387,108.125429159991
1580423756.86241,-232.639047837034,-106.111238269627,82.734416723888
1580423756.8664,-245.395590142672,-119.478141451133,58.3810177767605
1580423756.8704,-211.886778057526,-127.718013275349,39.2156862745096
1580423756.87439,-158.66330968185,-133.821622034028,28.3512626840618
1580423756.87838,-106.294346532387,-136.62928206302,23.6514839398794
1580423756.88238,-65.8274204623483,-135.835812924392,19.3789578088044
1580423756.88637,-45.8686198214696,-126.680399786374,11.2001220721752
1580423756.89036,-55.5123216601817,-102.143892576486,-1.19020370794237
1580423756.89436,-92.4391546501868,-54.1084916456855,-15.5336842908368
1580423756.89838,-147.188525215534,4.11993591210808,-28.9616235599296
1580423756.90237,-200.595101853971,42.3895628290225,-39.459830624857
1580423756.90636,-223.239490348669,49.4087129015029,-46.5400167849241
1580423756.91036,-196.81086442359,35.7976653696496,-52.8877698939498
1580423756.91435,-110.322728313115,16.4492256046387,-57.2823682001983
1580423756.91834,26.337071793698,7.53795681696806,-59.0524147402152
1580423756.92234,181.24666208896,9.30800335698473,-61.0055695429924
1580423756.92633,328.831921873808,-2.65506981002522,-66.8039978637369
1580423756.93032,437.903410391394,-24.0787365529868,-63.7521934843976
1580423756.93432,394.995040817883,-44.9530785076677,-26.0318913557639
1580423756.93831,165.987640192263,-108.247501335165,-3.75371938658736
1580423756.9423,-49.8359655146105,-173.067826352331,-38.8494697489891
1580423756.9463,-150.30136568246,-159.02952620737,-47.5165941863127
1580423756.95029,-202.914473182269,-108.125429159991,-14.6181429770352
1580423756.95428,-217.074845502403,-59.2355230029755,-5.46272983901736
1580423756.95828,-151.766231784542,-27.0084687571525,-22.1255817502097
1580423756.96227,-4.42511635004189,17.3037308308537,-41.0467689021134
1580423756.96627,179.964904249638,49.1645685511558,-67.8416113527123
1580423756.97026,311.070420386053,45.7465476462958,-88.5938811322194
1580423756.97425,311.009384298466,17.9140917067216,-84.8706797894254
1580423756.97824,183.13878080415,-22.4307621881437,-65.5832761120012
1580423756.98223,13.214312962539,-47.6386663614862,-42.5116350041963
1580423756.98623,-116.243228809033,-35.3093766689556,-14.8622873273823
1580423756.99022,-151.400015259022,7.84313725490188,11.2611581597619
1580423756.99422,-104.34119172961,46.6620889600974,29.2057679102768
1580423756.99821,-10.7118333714809,73.7621118486309,32.4406805523765
1580423757.0022,72.6024261844818,84.7486076142523,25.1163500419623
1580423757.00619,94.5143816281379,88.7769893949799,17.792019531548
1580423757.01019,81.8799114976732,89.021133745327,11.1390859845883
1580423757.01418,67.719539177539,86.2745098039218,3.69268329900046
1580423757.01818,64.1184100099185,85.9082932784008,-3.44853894865332
1580423757.02217,81.8799114976732,91.5236133363851,-11.4442664225223
1580423757.02616,101.350423437858,107.392996108949,-27.4357213702601
1580423757.03016,106.05020218204,119.53917753872,-42.4505989166096
1580423757.03415,103.791866941329,122.896162355993,-45.1361867704281
1580423757.03814,94.5754177157246,121.980621042191,-33.783474479286
1580423757.04214,72.4193179217214,120.088502327001,-14.4960708018616
1580423757.04613,35.5535210193025,119.966430151827,2.47196154726475
1580423757.05012,-8.81971465629044,120.943007553216,11.4442664225223
1580423757.05412,-45.6244754711224,121.675440604257,11.7494468604561
1580423757.05814,-68.4519722285802,123.750667582208,5.7068741893645
1580423757.06213,-79.2553597314411,127.718013275349,-2.7771419851988
1580423757.06612,-81.3916227969787,133.39436942092,-9.91836423285258
1580423757.07012,-78.5839627679866,141.268024719615,-13.9467460135804
1580423757.07411,-73.0907148851759,150.728618295567,-14.9843595025559
1580423757.0781,-66.4377813382162,160.128175783932,-13.2753490501259
1580423757.0821,-59.9069199664302,168.429083695735,-8.94178683146401
1580423757.08609,-55.0240329594874,175.93652246891,-1.8616006713969
1580423757.09008,-51.5449759670405,183.566033417258,7.7821011673152
1580423757.09408,-49.5307850766767,192.660410467689,19.501029983978
1580423757.09807,-48.1269550621805,203.097581445029,32.7458609903103
1580423757.10206,-47.9438467994203,213.351644159609,46.7231250476843
1580423757.10606,-48.6152437628748,222.201876859694,61.1276417181657
1580423757.11005,-50.4463263904784,229.465171282521,75.5931944762342
1580423757.11404,-53.6202029449912,235.568780041199,89.3873502708479
1580423757.11804,-57.3434042877852,240.207522697795,101.411459525445
1580423757.12203,-60.5783169298847,244.48004882887,110.200656137942
1580423757.12602,-63.4470130464638,248.630502784772,114.168001831083
1580423757.13002,-65.5832761120012,252.048523689632,113.679713130388
1580423757.13401,-68.0857557030595,254.489967193103,109.163042648966
1580423757.138,-72.4193179217211,255.039291981384,102.693217364767
1580423757.14199,-79.1332875562675,254.428931105516,95.307850766766
1580423757.14599,-87.4952315556573,252.84199282826,88.6549172198065
1580423757.14998,-96.7727168688489,250.522621499962,83.3447775997561
1580423757.15397,-105.989166094453,247.592889295796,77.6684214541851
1580423757.15797,-111.543450064851,245.578698405432,71.1985961699856
1580423757.16196,-113.252460517281,244.235904478523,62.4704356450748
1580423757.16595,-106.538490882735,243.137254901961,39.3377584496832
1580423757.16995,-90.1808194094758,242.282749675746,35.7976653696496
1580423757.17394,-73.3958953231097,251.377126726177,59.90691996643
1580423757.17793,-55.2071412222476,248.630502784772,64.6677347981995
1580423757.18193,-27.4967574578468,239.780270084688,69.3675135423823
1580423757.18592,9.36903944457163,236.545357442588,71.8089570458537
1580423757.18992,46.0517280842296,228.183413443198,73.0907148851761
1580423757.19391,78.5229266803999,215.121690699626,73.2738231479366
1580423757.1979,106.843671320668,198.031586175327,71.8699931334404
1580423757.2019,131.990539406424,176.974135957885,68.0857557030595
1580423757.20589,153.71938658732,155.184252689402,62.0431830319676
1580423757.20988,170.80949111162,135.835812924392,53.07087815671
1580423757.21388,182.162203402762,118.745708400092,40.8636606393529
1580423757.21786,187.472343022812,101.716639963378,25.1773861295489
1580423757.22186,187.533379110399,83.1006332494089,6.37827115281902
1580423757.22585,183.749141680018,63.5690852216376,-13.8246738384069
1580423757.22985,177.096208133059,44.6478980697336,-33.6003662165256
1580423757.23384,167.330434119173,25.1773861295489,-51.4229037918669
1580423757.23783,151.522087434195,4.60822461280236,-66.5598535133897
1580423757.24183,127.351796749828,-17.6089112687876,-78.2787823300525
1580423757.24582,95.6740672922865,-41.7181658655682,-86.3965819790951
1580423757.24981,60.0900282291905,-66.9871061264973,-90.3639276722361
1580423757.25381,26.337071793698,-92.1950102998396,-89.8756389715418
1580423757.2578,0.274662394140478,-115.144579232471,-85.4200045777065
1580423757.26179,-15.1064316777295,-134.431982909895,-77.8515297169452
1580423757.26579,-20.4165712977797,-148.714427405203,-68.1467917906461
1580423757.26978,-19.9893186846723,-157.869840543221,-57.4654764629588
1580423757.27377,-18.2192721446554,-163.118944075685,-46.9672693980317
1580423757.27777,-18.2192721446554,-166.04867627985,-37.3235675593196
1580423757.28176,-21.3321126115816,-166.964217593652,-29.1447318226901
1580423757.28575,-27.1305409323261,-165.316243228809,-23.1631952391851
1580423757.28975,-33.2951857785918,-162.020294499123,-19.1348134584573
1580423757.29374,-37.1404592965591,-160.189211871519,-17.0595864805066
1580423757.29776,-36.8352788586253,-162.44754711223,-16.2661173418783
1580423757.30175,-33.1731136034182,-168.551155870909,-16.4492256046387
1580423757.30575,-29.0836957351032,-175.814450293736,-17.6089112687876
1580423757.30974,-27.3746852826732,-180.697337300679,-19.6231021591516
1580423757.31373,-28.7174792095825,-183.016708628977,-22.3086900129701
1580423757.31773,-30.0602731364918,-184.176394293126,-25.3604943923094
1580423757.32172,-27.9240100709544,-185.885404745556,-29.2057679102768
1580423757.32571,-18.2192721446554,-189.059281300069,-33.3562218661784
1580423757.32971,-0.579842832074519,-191.073472190433,-37.9339284351875
1580423757.3337,18.1582360570687,-190.096894789044,-42.023346303502
1580423757.33769,31.5861753261615,-186.800946059358,-46.2348363469903
1580423757.34169,38.9105058365758,-183.016708628977,-50.6294346532388
