Timestamp_seconds,Gyro_X_s,Gyro_Y_s,Gyro_Z_s
1580417216.84655,2.7771419851988,0.70191500724809,-2.83817807278547
1580417216.85054,2.59403372243833,0.457770656900948,-2.65506981002522
1580417216.85454,2.22781719691761,0.457770656900948,-2.59403372243833
1580417216.85853,2.16678110933094,0.396734569314049,-2.47196154726475
1580417216.86253,2.10574502174404,0.274662394140478,-2.22781719691761
1580417216.86652,1.8616006713969,0.213626306553806,-2.22781719691761
1580417216.87051,1.80056458381023,0.152590218966907,-2.10574502174404
1580417216.87451,1.55642023346309,-0.0305180437933359,-2.16678110933094
1580417216.8785,1.31227588311594,-0.274662394140478,-2.10574502174404
1580417216.8825,0.946059357595232,-0.396734569314049,-2.04470893415737
1580417216.88649,0.823987182421661,-0.579842832074519,-1.80056458381023
1580417216.89048,0.885023270008332,-0.640878919661191,-1.67849240863666
1580417216.89448,1.0681315327688,-0.640878919661191,-1.49538414587619
1580417216.89847,1.31227588311594,-0.579842832074519,-1.31227588311594
1580417216.90246,1.43434805828952,-0.396734569314049,-1.19020370794237
1580417216.90646,1.49538414587619,-0.335698481727377,-1.19020370794237
1580417216.91045,1.55642023346309,-0.396734569314049,-1.0681315327688
1580417216.91445,1.61745632104976,-0.51880674448762,-0.946059357595232
1580417216.91846,1.61745632104976,-0.579842832074519,-0.885023270008332
1580417216.92245,1.55642023346309,-0.762951094834762,-0.762951094834762
1580417216.92645,1.61745632104976,-0.946059357595232,-0.579842832074519
1580417216.93044,1.73952849622333,-1.0070954451819,-0.579842832074519
1580417216.93443,1.61745632104976,-1.12916762035547,-0.51880674448762
1580417216.93843,1.55642023346309,-1.0070954451819,-0.396734569314049
1580417216.94242,1.61745632104976,-1.0070954451819,-0.335698481727377
1580417216.94641,1.73952849622333,-0.885023270008332,-0.152590218966907
1580417216.95041,1.73952849622333,-0.70191500724809,-0.091554131380235
1580417216.9544,2.04470893415737,-0.70191500724809,-0.091554131380235
1580417216.9584,2.10574502174404,-0.51880674448762,0.0305180437933359
1580417216.96239,2.41092545967808,-0.396734569314049,0.152590218966907
1580417216.96638,2.7771419851988,-0.396734569314049,0.396734569314049
1580417216.97038,3.20439459830618,-0.274662394140478,0.579842832074519
1580417216.97437,3.57061112382689,-0.335698481727377,0.579842832074519
1580417216.97837,3.63164721141379,-0.213626306553806,0.762951094834762
1580417216.98236,3.75371938658736,-0.152590218966907,0.823987182421661
1580417216.98635,3.81475547417404,-0.152590218966907,0.946059357595232
1580417216.99035,3.50957503624022,-0.213626306553806,1.0070954451819
1580417216.99434,3.44853894865332,-0.274662394140478,1.12916762035547
1580417216.99832,3.14335851071951,-0.152590218966907,1.0681315327688
1580417217.00232,2.7161058976119,-0.274662394140478,1.0070954451819
1580417217.00631,2.47196154726475,-0.396734569314049,1.0070954451819
1580417217.0103,2.22781719691761,-0.396734569314049,1.0070954451819
1580417217.0143,2.34988937209118,-0.396734569314049,1.0681315327688
1580417217.01829,2.41092545967808,-0.579842832074519,1.0070954451819
1580417217.02228,2.53299763485165,-0.51880674448762,0.823987182421661
1580417217.02628,2.83817807278547,-0.457770656900948,0.946059357595232
1580417217.03027,3.02128633554594,-0.335698481727377,0.70191500724809
1580417217.03427,3.26543068589308,-0.091554131380235,0.70191500724809
1580417217.03826,3.44853894865332,0.0305180437933359,0.762951094834762
1580417217.04225,3.69268329900046,0.152590218966907,0.762951094834762
1580417217.04625,3.69268329900046,0.213626306553806,0.823987182421661
1580417217.05024,3.63164721141379,0.152590218966907,0.762951094834762
1580417217.05424,3.57061112382689,-0.091554131380235,0.640878919661191
1580417217.05823,3.44853894865332,-0.152590218966907,0.70191500724809
1580417217.06222,3.02128633554594,-0.396734569314049,0.70191500724809
1580417217.06622,2.47196154726475,-0.579842832074519,0.640878919661191
1580417217.07021,2.16678110933094,-0.823987182421661,0.396734569314049
1580417217.07421,1.61745632104976,-1.0681315327688,0.335698481727377
1580417217.07822,1.31227588311594,-1.31227588311594,0.274662394140478
1580417217.08221,1.0070954451819,-1.67849240863666,0.0305180437933359
1580417217.0862,0.762951094834762,-1.8616006713969,-0.152590218966907
1580417217.0902,0.640878919661191,-2.04470893415737,-0.335698481727377
1580417217.09419,0.51880674448762,-2.22781719691761,-0.457770656900948
1580417217.09819,0.51880674448762,-2.34988937209118,-0.762951094834762
1580417217.10218,0.70191500724809,-2.16678110933094,-0.946059357595232
1580417217.10617,1.0070954451819,-2.16678110933094,-0.885023270008332
1580417217.11017,1.55642023346309,-2.10574502174404,-0.946059357595232
1580417217.11416,2.10574502174404,-1.98367284657047,-0.946059357595232
1580417217.11816,2.7771419851988,-1.73952849622333,-0.946059357595232
1580417217.12215,3.26543068589308,-1.61745632104976,-1.0070954451819
1580417217.12614,3.75371938658736,-1.31227588311594,-0.885023270008332
1580417217.13014,4.24200808728165,-1.0070954451819,-0.823987182421661
1580417217.13413,4.60822461280236,-0.885023270008332,-0.579842832074519
1580417217.13813,4.73029678797593,-0.885023270008332,-0.579842832074519
1580417217.14212,4.73029678797593,-0.70191500724809,-0.457770656900948
1580417217.14611,4.60822461280236,-0.70191500724809,-0.335698481727377
1580417217.15011,4.42511635004189,-0.762951094834762,-0.213626306553806
1580417217.1541,4.18097199969475,-0.885023270008332,-0.0305180437933359
1580417217.15808,3.93682764934761,-0.946059357595232,-0.0305180437933359
1580417217.16208,3.69268329900046,-0.946059357595232,0.213626306553806
1580417217.16607,3.20439459830618,-0.823987182421661,0.274662394140478
1580417217.17006,3.02128633554594,-0.762951094834762,0.274662394140478
1580417217.17406,2.89921416037237,-0.823987182421661,0.213626306553806
1580417217.17805,3.02128633554594,-0.70191500724809,0.396734569314049
1580417217.18204,3.02128633554594,-0.70191500724809,0.457770656900948
1580417217.18604,2.65506981002522,-0.823987182421661,0.457770656900948
1580417217.19003,2.7771419851988,-0.762951094834762,0.335698481727377
1580417217.19403,2.65506981002522,-0.762951094834762,0.396734569314049
1580417217.19802,2.59403372243833,-0.70191500724809,0.335698481727377
1580417217.20201,2.28885328450451,-0.762951094834762,0.396734569314049
1580417217.20601,2.16678110933094,-0.885023270008332,0.335698481727377
1580417217.21,1.98367284657047,-0.885023270008332,0.274662394140478
1580417217.214,1.80056458381023,-0.823987182421661,0.396734569314049
1580417217.21799,1.8616006713969,-0.762951094834762,0.51880674448762
1580417217.22198,1.67849240863666,-0.762951094834762,0.579842832074519
1580417217.22598,1.49538414587619,-0.823987182421661,0.640878919661191
1580417217.22997,1.25123979552905,-0.946059357595232,0.70191500724809
1580417217.23397,1.0070954451819,-1.19020370794237,0.885023270008332
1580417217.23798,0.823987182421661,-1.19020370794237,0.885023270008332
1580417217.24197,0.640878919661191,-1.31227588311594,1.0070954451819
1580417217.24596,0.396734569314049,-1.49538414587619,1.19020370794237
1580417217.24996,0.152590218966907,-1.55642023346309,1.31227588311594
1580417217.25395,0.0305180437933359,-1.55642023346309,1.43434805828952
1580417217.25795,0.0305180437933359,-1.43434805828952,1.67849240863666
1580417217.26194,0.0305180437933359,-1.37331197070262,1.73952849622333
1580417217.26593,-0.0305180437933359,-1.12916762035547,1.98367284657047
1580417217.26993,-0.091554131380235,-1.0070954451819,1.9226367589838
1580417217.27392,-0.091554131380235,-0.823987182421661,2.10574502174404
1580417217.27792,0.213626306553806,-0.762951094834762,2.16678110933094
1580417217.28191,0.457770656900948,-0.51880674448762,2.28885328450451
1580417217.2859,0.823987182421661,-0.335698481727377,2.22781719691761
1580417217.2899,1.0070954451819,-0.213626306553806,2.22781719691761
1580417217.29389,1.0681315327688,-0.335698481727377,2.16678110933094
1580417217.29789,0.946059357595232,-0.457770656900948,2.16678110933094
1580417217.30188,0.762951094834762,-0.51880674448762,1.98367284657047
1580417217.30587,0.457770656900948,-0.579842832074519,1.9226367589838
1580417217.30987,0.335698481727377,-0.640878919661191,1.98367284657047
1580417217.31386,0.0305180437933359,-0.640878919661191,1.9226367589838
1580417217.31784,-0.0305180437933359,-0.762951094834762,1.98367284657047
1580417217.32183,-0.152590218966907,-0.885023270008332,2.28885328450451
1580417217.32583,-0.335698481727377,-1.0070954451819,2.41092545967808
1580417217.32982,-0.51880674448762,-1.19020370794237,2.34988937209118
1580417217.33382,-0.70191500724809,-1.31227588311594,2.53299763485165
1580417217.33781,-0.885023270008332,-1.31227588311594,2.53299763485165
1580417217.3418,-1.0681315327688,-1.43434805828952,2.34988937209118
1580417217.3458,-1.25123979552905,-1.61745632104976,2.34988937209118
1580417217.34979,-1.37331197070262,-1.67849240863666,2.28885328450451
1580417217.35379,-1.25123979552905,-1.80056458381023,2.28885328450451
1580417217.35778,-1.0681315327688,-1.8616006713969,2.28885328450451
1580417217.36177,-0.762951094834762,-1.80056458381023,2.16678110933094
1580417217.36577,-0.091554131380235,-1.49538414587619,2.10574502174404
1580417217.36976,0.335698481727377,-1.19020370794237,2.16678110933094
1580417217.37376,0.762951094834762,-0.885023270008332,2.16678110933094
1580417217.37775,1.0681315327688,-0.70191500724809,2.16678110933094
1580417217.38174,1.25123979552905,-0.335698481727377,2.22781719691761
1580417217.38574,1.43434805828952,-0.335698481727377,2.16678110933094
1580417217.38973,1.61745632104976,0.0305180437933359,2.28885328450451
1580417217.39373,1.80056458381023,0.274662394140478,2.34988937209118
1580417217.39773,1.8616006713969,0.70191500724809,2.41092545967808
1580417217.40173,1.98367284657047,1.0070954451819,2.59403372243833
1580417217.40572,1.9226367589838,1.43434805828952,2.59403372243833
1580417217.40972,1.80056458381023,1.55642023346309,2.7771419851988
1580417217.41371,1.49538414587619,1.8616006713969,2.83817807278547
1580417217.4177,1.0681315327688,1.98367284657047,2.89921416037237
1580417217.4217,0.823987182421661,2.10574502174404,3.08232242313261
1580417217.42569,0.51880674448762,2.28885328450451,3.32646677347975
1580417217.42969,0.335698481727377,2.41092545967808,3.57061112382689
1580417217.43368,0.335698481727377,2.53299763485165,3.57061112382689
1580417217.43767,0.152590218966907,2.7161058976119,3.69268329900046
1580417217.44167,-0.091554131380235,2.96025024795904,3.75371938658736
1580417217.44566,-0.335698481727377,3.08232242313261,3.75371938658736
1580417217.44966,-0.51880674448762,3.14335851071951,3.75371938658736
1580417217.45365,-0.946059357595232,2.96025024795904,3.93682764934761
1580417217.45764,-1.37331197070262,3.02128633554594,3.81475547417404
1580417217.46164,-1.55642023346309,3.14335851071951,3.81475547417404
1580417217.46563,-1.55642023346309,3.26543068589308,3.69268329900046
1580417217.46963,-1.37331197070262,3.32646677347975,3.81475547417404
1580417217.47362,-1.12916762035547,3.57061112382689,3.63164721141379
1580417217.4776,-0.823987182421661,3.57061112382689,3.32646677347975
1580417217.48159,-0.946059357595232,3.32646677347975,3.02128633554594
1580417217.48559,-1.25123979552905,2.7771419851988,2.7161058976119
1580417217.48958,-1.67849240863666,2.04470893415737,2.10574502174404
1580417217.49358,-2.59403372243833,0.946059357595232,1.37331197070262
1580417217.49757,-3.63164721141379,-0.457770656900948,0.823987182421661
1580417217.50156,-4.11993591210808,-1.8616006713969,0.274662394140478
1580417217.50556,-3.87579156176093,-3.44853894865332,-0.274662394140478
1580417217.50955,-2.83817807278547,-4.48615243762879,-0.640878919661191
1580417217.51355,-1.61745632104976,-5.03547722590974,-0.885023270008332
1580417217.51754,-0.457770656900948,-4.91340505073617,-1.19020370794237
1580417217.52153,0.091554131380235,-4.48615243762879,-1.49538414587619
1580417217.52553,0.213626306553806,-3.93682764934761,-1.67849240863666
1580417217.52952,0.396734569314049,-3.57061112382689,-1.8616006713969
1580417217.53352,0.762951094834762,-2.96025024795904,-1.80056458381023
1580417217.53751,1.73952849622333,-2.47196154726475,-1.67849240863666
1580417217.5415,3.14335851071951,-1.43434805828952,-1.25123979552905
1580417217.5455,4.7913328755626,-0.091554131380235,-0.579842832074519
1580417217.54949,6.31723506523235,1.12916762035547,-0.091554131380235
1580417217.55348,7.29381246662092,1.98367284657047,0.396734569314049
1580417217.55749,7.72106507972831,2.34988937209118,0.70191500724809
1580417217.56149,7.23277637903402,1.80056458381023,0.885023270008332
1580417217.56548,6.56137941557949,0.579842832074519,0.823987182421661
1580417217.56948,5.82894636453807,-0.762951094834762,0.70191500724809
1580417217.57347,4.97444113832307,-2.16678110933094,0.51880674448762
1580417217.57746,4.36408026245522,-3.20439459830618,0.213626306553806
1580417217.58146,3.87579156176093,-3.81475547417404,-0.091554131380235
1580417217.58545,3.32646677347975,-4.05889982452118,-0.274662394140478
1580417217.58945,2.7771419851988,-3.99786373693451,-0.213626306553806
1580417217.59344,2.22781719691761,-3.75371938658736,-0.396734569314049
1580417217.59743,1.67849240863666,-3.32646677347975,-0.396734569314049
1580417217.60143,1.43434805828952,-2.7161058976119,-0.457770656900948
1580417217.60542,1.43434805828952,-2.22781719691761,-0.457770656900948
1580417217.60942,1.61745632104976,-1.55642023346309,-0.274662394140478
1580417217.61341,2.10574502174404,-0.885023270008332,-0.0305180437933359
1580417217.6174,2.7161058976119,-0.274662394140478,0.213626306553806
1580417217.6214,3.38750286106665,0.152590218966907,0.51880674448762
1580417217.62539,3.81475547417404,0.51880674448762,0.762951094834762
1580417217.62939,4.11993591210808,0.640878919661191,0.885023270008332
1580417217.63338,4.24200808728165,0.885023270008332,1.12916762035547
1580417217.63736,4.11993591210808,0.70191500724809,1.12916762035547
1580417217.64135,3.87579156176093,0.51880674448762,1.0070954451819
1580417217.64535,3.57061112382689,0.51880674448762,1.0070954451819
1580417217.64934,3.26543068589308,0.457770656900948,1.12916762035547
1580417217.65333,2.83817807278547,0.51880674448762,0.946059357595232
1580417217.65733,2.10574502174404,0.762951094834762,0.946059357595232
1580417217.66132,1.37331197070262,1.12916762035547,1.0070954451819
1580417217.66532,0.152590218966907,1.19020370794237,1.12916762035547
1580417217.66931,-0.823987182421661,1.25123979552905,1.31227588311594
1580417217.67331,-1.49538414587619,1.37331197070262,1.49538414587619
1580417217.6773,-2.04470893415737,1.31227588311594,1.9226367589838
1580417217.68129,-2.16678110933094,1.37331197070262,2.28885328450451
1580417217.68529,-2.10574502174404,1.49538414587619,2.59403372243833
1580417217.68928,-1.73952849622333,1.61745632104976,2.96025024795904
1580417217.69327,-1.55642023346309,1.73952849622333,3.32646677347975
1580417217.69727,-1.19020370794237,1.8616006713969,3.38750286106665
1580417217.70126,-0.823987182421661,2.22781719691761,3.57061112382689
1580417217.70526,-0.457770656900948,2.59403372243833,3.69268329900046
1580417217.70925,-0.091554131380235,2.96025024795904,3.63164721141379
1580417217.71324,0.152590218966907,3.20439459830618,3.38750286106665
1580417217.71725,0.0305180437933359,3.32646677347975,3.26543068589308
1580417217.72125,-0.091554131380235,3.26543068589308,3.02128633554594
1580417217.72524,-0.396734569314049,3.02128633554594,2.65506981002522
1580417217.72924,-1.0070954451819,2.53299763485165,2.22781719691761
1580417217.73323,-1.61745632104976,1.73952849622333,1.98367284657047
1580417217.73722,-2.22781719691761,1.0681315327688,1.80056458381023
1580417217.74122,-3.02128633554594,0.51880674448762,1.61745632104976
1580417217.74521,-3.38750286106665,-0.091554131380235,1.37331197070262
1580417217.74921,-3.69268329900046,-0.640878919661191,1.19020370794237
1580417217.7532,-3.57061112382689,-0.946059357595232,1.0070954451819
1580417217.75719,-3.02128633554594,-0.946059357595232,0.762951094834762
1580417217.76119,-2.41092545967808,-0.946059357595232,0.457770656900948
1580417217.76518,-1.73952849622333,-0.640878919661191,0.152590218966907
1580417217.76918,-0.823987182421661,-0.152590218966907,0.0305180437933359
1580417217.77317,-0.091554131380235,0.335698481727377,-0.213626306553806
1580417217.77716,0.579842832074519,0.762951094834762,-0.335698481727377
1580417217.78116,1.31227588311594,1.19020370794237,-0.457770656900948
1580417217.78515,2.16678110933094,1.55642023346309,-0.51880674448762
1580417217.78915,3.02128633554594,1.73952849622333,-0.579842832074519
1580417217.79314,3.69268329900046,1.9226367589838,-0.457770656900948
1580417217.79712,4.11993591210808,1.9226367589838,-0.457770656900948
1580417217.80111,4.30304417486832,1.73952849622333,-0.457770656900948
1580417217.80511,4.24200808728165,1.67849240863666,-0.70191500724809
1580417217.8091,4.18097199969475,1.12916762035547,-1.0681315327688
1580417217.81309,4.05889982452118,0.640878919661191,-1.25123979552905
1580417217.81709,3.57061112382689,0.091554131380235,-1.43434805828952
1580417217.82108,2.96025024795904,-0.335698481727377,-1.8616006713969
1580417217.82508,2.41092545967808,-0.946059357595232,-2.10574502174404
1580417217.82907,1.73952849622333,-1.49538414587619,-2.41092545967808
1580417217.83307,1.12916762035547,-2.10574502174404,-2.53299763485165
1580417217.83706,0.640878919661191,-2.41092545967808,-2.59403372243833
1580417217.84105,0.335698481727377,-2.53299763485165,-2.53299763485165
1580417217.84505,0.213626306553806,-2.34988937209118,-2.28885328450451
1580417217.84904,0.274662394140478,-2.28885328450451,-2.22781719691761
1580417217.85303,0.70191500724809,-1.98367284657047,-2.04470893415737
1580417217.85703,1.0070954451819,-1.8616006713969,-1.8616006713969
1580417217.86102,1.55642023346309,-1.55642023346309,-1.80056458381023
1580417217.86502,1.98367284657047,-1.37331197070262,-1.80056458381023
1580417217.86901,2.34988937209118,-1.0681315327688,-1.67849240863666
1580417217.873,2.89921416037237,-0.823987182421661,-1.55642023346309
1580417217.87701,3.63164721141379,-0.335698481727377,-1.25123979552905
1580417217.88101,4.18097199969475,-0.091554131380235,-1.0070954451819
1580417217.885,4.42511635004189,0.396734569314049,-0.823987182421661
1580417217.889,4.54718852521546,0.762951094834762,-0.579842832074519
1580417217.89299,4.48615243762879,0.885023270008332,-0.335698481727377
1580417217.89698,4.18097199969475,0.946059357595232,-0.091554131380235
1580417217.90098,3.75371938658736,0.946059357595232,0.0305180437933359
1580417217.90497,3.20439459830618,0.885023270008332,0.213626306553806
1580417217.90897,2.53299763485165,0.70191500724809,0.335698481727377
1580417217.91296,1.9226367589838,0.51880674448762,0.396734569314049
1580417217.91695,1.43434805828952,0.335698481727377,0.51880674448762
1580417217.92095,0.885023270008332,0.213626306553806,0.579842832074519
1580417217.92494,0.396734569314049,0.152590218966907,0.70191500724809
1580417217.92894,0.152590218966907,0.152590218966907,0.70191500724809
1580417217.93293,-0.152590218966907,0.213626306553806,0.762951094834762
1580417217.93692,-0.274662394140478,0.51880674448762,0.946059357595232
1580417217.94092,-0.274662394140478,0.762951094834762,0.823987182421661
1580417217.94491,-0.274662394140478,0.885023270008332,0.946059357595232
1580417217.94891,-0.091554131380235,0.946059357595232,0.885023270008332
1580417217.9529,-0.152590218966907,1.0070954451819,0.762951094834762
1580417217.95688,-0.213626306553806,0.885023270008332,0.640878919661191
1580417217.96087,-0.335698481727377,0.762951094834762,0.579842832074519
1580417217.96487,-0.396734569314049,0.457770656900948,0.579842832074519
1580417217.96886,-0.640878919661191,0.091554131380235,0.213626306553806
1580417217.97285,-0.70191500724809,-0.274662394140478,-0.0305180437933359
1580417217.97685,-0.762951094834762,-0.457770656900948,-0.152590218966907
1580417217.98084,-0.762951094834762,-0.70191500724809,-0.396734569314049
1580417217.98484,-0.823987182421661,-0.70191500724809,-0.579842832074519
1580417217.98883,-0.885023270008332,-0.579842832074519,-0.762951094834762
1580417217.99282,-0.885023270008332,-0.457770656900948,-0.70191500724809
1580417217.99682,-0.885023270008332,-0.152590218966907,-0.70191500724809
1580417218.00081,-0.640878919661191,0.152590218966907,-0.70191500724809
1580417218.00481,-0.335698481727377,0.457770656900948,-0.579842832074519
1580417218.0088,0.091554131380235,0.640878919661191,-0.335698481727377
1580417218.01279,0.70191500724809,0.823987182421661,-0.152590218966907
1580417218.01679,1.25123979552905,1.0681315327688,0.213626306553806
1580417218.02078,1.80056458381023,1.0070954451819,0.457770656900948
1580417218.02478,2.28885328450451,1.0070954451819,0.70191500724809
1580417218.02877,2.59403372243833,0.946059357595232,0.823987182421661
1580417218.03276,2.89921416037237,0.885023270008332,1.25123979552905
1580417218.03677,2.96025024795904,0.823987182421661,1.25123979552905
1580417218.04077,3.26543068589308,0.762951094834762,1.43434805828952
1580417218.04476,3.26543068589308,0.762951094834762,1.31227588311594
1580417218.04875,3.38750286106665,0.640878919661191,1.25123979552905
1580417218.05275,3.32646677347975,0.640878919661191,1.19020370794237
1580417218.05674,3.26543068589308,0.51880674448762,1.0070954451819
1580417218.06074,2.89921416037237,0.396734569314049,0.762951094834762
1580417218.06473,2.16678110933094,0.335698481727377,0.640878919661191
1580417218.06872,1.49538414587619,0.091554131380235,0.51880674448762
1580417218.07272,0.640878919661191,0.152590218966907,0.396734569314049
1580417218.07671,-0.51880674448762,0.335698481727377,0.274662394140478
1580417218.08071,-1.49538414587619,0.335698481727377,0.152590218966907
1580417218.0847,-2.28885328450451,0.396734569314049,0.091554131380235
1580417218.08869,-2.83817807278547,0.335698481727377,-0.213626306553806
1580417218.09269,-3.08232242313261,0.274662394140478,-0.396734569314049
1580417218.09668,-3.08232242313261,0.152590218966907,-0.640878919661191
1580417218.10068,-2.83817807278547,-0.091554131380235,-0.823987182421661
1580417218.10467,-2.7771419851988,-0.091554131380235,-1.19020370794237
1580417218.10866,-2.7771419851988,-0.0305180437933359,-1.49538414587619
1580417218.11266,-2.47196154726475,-0.091554131380235,-1.9226367589838
1580417218.11664,-2.34988937209118,-0.152590218966907,-2.04470893415737
1580417218.12063,-2.04470893415737,-0.213626306553806,-2.22781719691761
1580417218.12463,-1.61745632104976,-0.396734569314049,-2.53299763485165
1580417218.12862,-1.12916762035547,-0.335698481727377,-2.7161058976119
1580417218.13261,-0.579842832074519,-0.457770656900948,-2.65506981002522
1580417218.13661,0.0305180437933359,-0.274662394140478,-2.7771419851988
1580417218.1406,0.579842832074519,-0.0305180437933359,-2.7161058976119
1580417218.1446,1.25123979552905,0.152590218966907,-2.7161058976119
1580417218.14859,1.8616006713969,0.213626306553806,-2.65506981002522
1580417218.15258,2.53299763485165,0.335698481727377,-2.53299763485165
1580417218.15658,3.08232242313261,0.457770656900948,-2.47196154726475
1580417218.16057,3.75371938658736,0.640878919661191,-2.59403372243833
1580417218.16457,4.36408026245522,0.640878919661191,-2.59403372243833
1580417218.16856,4.8523689631495,0.70191500724809,-2.53299763485165
1580417218.17255,5.03547722590974,0.640878919661191,-2.65506981002522
1580417218.17655,5.40169375143046,0.762951094834762,-2.7771419851988
1580417218.18054,5.52376592660403,1.0681315327688,-2.7771419851988
1580417218.18454,5.76791027695117,1.25123979552905,-2.7771419851988
1580417218.18853,5.88998245212474,1.31227588311594,-2.7161058976119
1580417218.19252,5.7068741893645,1.37331197070262,-2.65506981002522
1580417218.19653,5.58480201419093,1.49538414587619,-2.65506981002522
1580417218.20053,5.15754940108332,1.49538414587619,-2.53299763485165
1580417218.20452,4.66926070038903,1.43434805828952,-2.34988937209118
1580417218.20851,4.05889982452118,1.31227588311594,-2.22781719691761
1580417218.21251,3.57061112382689,1.37331197070262,-2.16678110933094
1580417218.2165,3.02128633554594,1.25123979552905,-2.22781719691761
1580417218.2205,2.59403372243833,1.49538414587619,-2.22781719691761
1580417218.22449,2.22781719691761,1.61745632104976,-2.47196154726475
1580417218.22848,1.73952849622333,1.61745632104976,-2.59403372243833
1580417218.23248,1.55642023346309,1.31227588311594,-2.65506981002522
1580417218.23647,1.31227588311594,1.19020370794237,-2.7161058976119
1580417218.24047,1.12916762035547,1.0070954451819,-2.7771419851988
1580417218.24446,1.37331197070262,0.823987182421661,-2.7771419851988
1580417218.24846,1.49538414587619,0.640878919661191,-2.7771419851988
1580417218.25245,1.80056458381023,0.51880674448762,-2.7161058976119
1580417218.25644,2.28885328450451,0.579842832074519,-2.7161058976119
1580417218.26044,2.65506981002522,0.579842832074519,-2.59403372243833
1580417218.26443,2.96025024795904,0.762951094834762,-2.28885328450451
1580417218.26842,3.26543068589308,1.0681315327688,-2.04470893415737
1580417218.27242,3.69268329900046,1.37331197070262,-1.61745632104976
1580417218.2764,4.05889982452118,1.43434805828952,-1.43434805828952
1580417218.28039,4.24200808728165,1.61745632104976,-1.12916762035547
1580417218.28438,4.18097199969475,1.55642023346309,-1.0681315327688
1580417218.28838,3.99786373693451,1.19020370794237,-1.0070954451819
1580417218.29237,3.44853894865332,0.823987182421661,-1.0681315327688
1580417218.29637,2.89921416037237,0.152590218966907,-1.31227588311594
1580417218.30036,2.22781719691761,-0.396734569314049,-1.37331197070262
1580417218.30435,1.9226367589838,-0.885023270008332,-1.31227588311594
1580417218.30835,1.73952849622333,-1.0681315327688,-1.55642023346309
1580417218.31234,1.67849240863666,-1.31227588311594,-1.67849240863666
1580417218.31634,1.67849240863666,-1.25123979552905,-1.61745632104976
1580417218.32033,1.80056458381023,-1.19020370794237,-1.80056458381023
1580417218.32432,1.73952849622333,-1.0681315327688,-1.67849240863666
1580417218.32832,1.67849240863666,-1.0070954451819,-1.49538414587619
1580417218.33231,1.55642023346309,-1.0070954451819,-1.31227588311594
1580417218.33631,1.19020370794237,-1.0681315327688,-1.12916762035547
1580417218.3403,0.946059357595232,-1.0681315327688,-0.885023270008332
1580417218.3443,0.762951094834762,-1.0681315327688,-0.579842832074519
1580417218.34829,0.762951094834762,-1.0070954451819,-0.396734569314049
1580417218.35228,0.579842832074519,-0.762951094834762,-0.152590218966907
1580417218.35629,0.335698481727377,-0.823987182421661,-0.152590218966907
1580417218.36029,-0.091554131380235,-0.946059357595232,-0.152590218966907
1580417218.36428,-0.274662394140478,-1.12916762035547,-0.152590218966907
1580417218.36827,-0.640878919661191,-1.31227588311594,-0.274662394140478
1580417218.37227,-0.762951094834762,-1.37331197070262,-0.213626306553806
1580417218.37626,-0.70191500724809,-1.43434805828952,-0.396734569314049
1580417218.38026,-0.70191500724809,-1.31227588311594,-0.457770656900948
1580417218.38425,-0.457770656900948,-1.0070954451819,-0.51880674448762
1580417218.38824,-0.335698481727377,-0.885023270008332,-0.579842832074519
1580417218.39224,-0.0305180437933359,-0.823987182421661,-0.640878919661191
1580417218.39623,0.091554131380235,-0.640878919661191,-0.640878919661191
1580417218.40023,0.213626306553806,-0.457770656900948,-0.70191500724809
1580417218.40422,0.274662394140478,-0.396734569314049,-0.762951094834762
1580417218.40821,0.335698481727377,-0.396734569314049,-0.823987182421661
1580417218.41221,0.51880674448762,-0.51880674448762,-0.823987182421661
1580417218.4162,0.640878919661191,-0.51880674448762,-0.885023270008332
1580417218.4202,0.885023270008332,-0.396734569314049,-1.0681315327688
1580417218.42419,1.25123979552905,-0.213626306553806,-0.885023270008332
1580417218.42818,1.61745632104976,0.213626306553806,-0.885023270008332
1580417218.43218,1.98367284657047,0.579842832074519,-0.70191500724809
1580417218.43616,2.28885328450451,1.0070954451819,-0.457770656900948
1580417218.44015,2.7161058976119,1.31227588311594,-0.335698481727377
1580417218.44414,3.08232242313261,1.67849240863666,-0.0305180437933359
1580417218.44814,3.26543068589308,2.16678110933094,0.091554131380235
1580417218.45213,3.26543068589308,2.41092545967808,0.335698481727377
1580417218.45613,3.32646677347975,2.65506981002522,0.70191500724809
1580417218.46012,3.08232242313261,2.65506981002522,0.885023270008332
1580417218.46411,2.7161058976119,2.65506981002522,1.0070954451819
1580417218.46811,2.34988937209118,2.65506981002522,1.19020370794237
1580417218.4721,1.98367284657047,2.47196154726475,1.37331197070262
1580417218.4761,1.8616006713969,2.53299763485165,1.31227588311594
1580417218.48009,1.55642023346309,2.41092545967808,1.25123979552905
1580417218.48408,1.25123979552905,2.22781719691761,1.0681315327688
1580417218.48808,0.885023270008332,2.04470893415737,0.823987182421661
1580417218.49207,0.579842832074519,1.73952849622333,0.640878919661191
1580417218.49607,0.396734569314049,1.37331197070262,0.396734569314049
1580417218.50006,0.457770656900948,0.885023270008332,0.152590218966907
1580417218.50406,0.457770656900948,0.70191500724809,0.091554131380235
1580417218.50805,0.51880674448762,0.579842832074519,-0.091554131380235
1580417218.51204,0.396734569314049,0.640878919661191,-0.152590218966907
1580417218.51605,0.457770656900948,0.823987182421661,-0.213626306553806
1580417218.52005,0.457770656900948,0.946059357595232,-0.152590218966907
1580417218.52404,0.70191500724809,1.12916762035547,0.0305180437933359
1580417218.52803,0.885023270008332,1.37331197070262,0.152590218966907
1580417218.53203,1.0681315327688,1.55642023346309,0.335698481727377
1580417218.53602,1.0681315327688,1.8616006713969,0.335698481727377
1580417218.54002,1.12916762035547,2.10574502174404,0.335698481727377
1580417218.54401,0.823987182421661,2.10574502174404,0.335698481727377
1580417218.548,0.579842832074519,1.9226367589838,0.274662394140478
1580417218.552,0.335698481727377,1.61745632104976,0.213626306553806
1580417218.55599,0.274662394140478,1.37331197070262,0.0305180437933359
1580417218.55999,0.0305180437933359,1.12916762035547,-0.213626306553806
1580417218.56398,-0.0305180437933359,0.885023270008332,-0.396734569314049
1580417218.56797,0.213626306553806,0.640878919661191,-0.457770656900948
1580417218.57197,0.213626306553806,0.640878919661191,-0.457770656900948
1580417218.57596,0.457770656900948,0.579842832074519,-0.457770656900948
1580417218.57996,0.946059357595232,0.51880674448762,-0.213626306553806
1580417218.58395,1.37331197070262,0.70191500724809,0.152590218966907
1580417218.58794,1.80056458381023,0.946059357595232,0.51880674448762
1580417218.59194,1.9226367589838,1.25123979552905,0.823987182421661
1580417218.59595,1.98367284657047,1.43434805828952,0.946059357595232
1580417218.59994,2.16678110933094,1.49538414587619,1.0070954451819
1580417218.60394,2.16678110933094,1.49538414587619,1.0681315327688
1580417218.60793,2.34988937209118,1.25123979552905,0.946059357595232
1580417218.61192,2.41092545967808,0.885023270008332,0.762951094834762
1580417218.61592,2.53299763485165,0.579842832074519,0.51880674448762
1580417218.61991,2.10574502174404,0.274662394140478,0.213626306553806
1580417218.6239,1.9226367589838,-0.091554131380235,-0.0305180437933359
1580417218.6279,1.73952849622333,-0.457770656900948,-0.396734569314049
1580417218.63189,1.37331197070262,-0.885023270008332,-0.762951094834762
1580417218.63589,1.12916762035547,-1.19020370794237,-1.0681315327688
1580417218.63988,1.0681315327688,-1.55642023346309,-1.37331197070262
1580417218.64387,1.12916762035547,-1.80056458381023,-1.73952849622333
1580417218.64787,1.49538414587619,-2.10574502174404,-1.8616006713969
1580417218.65186,2.10574502174404,-2.16678110933094,-1.80056458381023
1580417218.65586,2.65506981002522,-2.28885328450451,-1.61745632104976
1580417218.65985,2.89921416037237,-2.47196154726475,-1.49538414587619
1580417218.66384,2.96025024795904,-2.47196154726475,-1.12916762035547
1580417218.66784,2.7161058976119,-2.53299763485165,-0.762951094834762
1580417218.67183,2.65506981002522,-2.65506981002522,-0.213626306553806
1580417218.67581,2.53299763485165,-2.7771419851988,0.152590218966907
1580417218.67981,3.02128633554594,-2.7161058976119,0.579842832074519
1580417218.6838,3.63164721141379,-2.47196154726475,1.0070954451819
1580417218.68779,4.48615243762879,-1.98367284657047,1.49538414587619
1580417218.69179,5.03547722590974,-1.55642023346309,1.8616006713969
1580417218.69578,5.27962157625689,-1.0070954451819,2.04470893415737
1580417218.69977,5.09651331349664,-0.823987182421661,2.28885328450451
1580417218.70377,4.66926070038903,-0.823987182421661,2.34988937209118
1580417218.70776,4.05889982452118,-1.0681315327688,2.47196154726475
1580417218.71176,3.44853894865332,-1.37331197070262,2.7161058976119
1580417218.71575,3.14335851071951,-1.55642023346309,2.89921416037237
1580417218.71974,2.96025024795904,-1.37331197070262,3.38750286106665
1580417218.72374,2.83817807278547,-0.823987182421661,3.75371938658736
1580417218.72773,2.22781719691761,-0.274662394140478,4.05889982452118
1580417218.73173,1.55642023346309,0.213626306553806,4.11993591210808
1580417218.73572,0.640878919661191,0.335698481727377,4.11993591210808
1580417218.73971,-0.51880674448762,-0.152590218966907,4.05889982452118
1580417218.74371,-1.61745632104976,-0.885023270008332,3.81475547417404
1580417218.7477,-2.53299763485165,-1.61745632104976,3.38750286106665
1580417218.7517,-3.38750286106665,-2.28885328450451,3.08232242313261
1580417218.75571,-3.75371938658736,-2.34988937209118,2.89921416037237
1580417218.7597,-4.05889982452118,-2.04470893415737,2.7771419851988
1580417218.76369,-4.30304417486832,-1.61745632104976,2.7771419851988
1580417218.76769,-4.36408026245522,-0.762951094834762,2.7771419851988
1580417218.77168,-4.36408026245522,0.091554131380235,2.89921416037237
1580417218.77568,-4.30304417486832,0.885023270008332,3.08232242313261
1580417218.77967,-3.99786373693451,1.61745632104976,3.26543068589308
1580417218.78366,-3.87579156176093,2.22781719691761,3.44853894865332
1580417218.78766,-3.69268329900046,2.59403372243833,3.50957503624022
1580417218.79165,-3.63164721141379,2.7771419851988,3.57061112382689
1580417218.79565,-3.93682764934761,2.89921416037237,3.32646677347975
1580417218.79964,-4.36408026245522,2.89921416037237,3.14335851071951
1580417218.80363,-4.7913328755626,2.7771419851988,2.83817807278547
1580417218.80763,-5.6458381017776,2.7161058976119,2.41092545967808
1580417218.81162,-6.43930724040592,2.59403372243833,1.98367284657047
1580417218.81562,-7.17174029144735,2.28885328450451,1.55642023346309
1580417218.81961,-7.90417334248878,2.04470893415737,1.0681315327688
1580417218.8236,-8.5755703059433,1.80056458381023,0.51880674448762
1580417218.8276,-9.24696726939806,1.61745632104976,0.091554131380235
1580417218.83159,-9.36903944457163,1.49538414587619,-0.335698481727377
1580417218.83557,-9.06385900663759,1.31227588311594,-0.762951094834762
1580417218.83957,-8.33142595559616,1.25123979552905,-1.0070954451819
1580417218.84356,-7.29381246662092,1.19020370794237,-1.25123979552905
1580417218.84755,-6.19516289005878,1.12916762035547,-1.43434805828952
1580417218.85155,-5.09651331349664,1.0681315327688,-1.61745632104976
1580417218.85554,-4.36408026245522,0.70191500724809,-1.9226367589838
1580417218.85953,-3.63164721141379,0.335698481727377,-2.22781719691761
1580417218.86353,-2.7161058976119,0.0305180437933359,-2.53299763485165
1580417218.86752,-2.10574502174404,-0.274662394140478,-2.7771419851988
1580417218.87152,-1.61745632104976,-0.51880674448762,-2.89921416037237
1580417218.87551,-1.0070954451819,-0.640878919661191,-3.32646677347975
1580417218.8795,-0.335698481727377,-0.823987182421661,-3.75371938658736
1580417218.8835,0.762951094834762,-1.0070954451819,-3.99786373693451
1580417218.88749,1.9226367589838,-1.12916762035547,-4.42511635004189
1580417218.89149,3.08232242313261,-0.946059357595232,-4.54718852521546
1580417218.89548,3.99786373693451,-0.457770656900948,-4.54718852521546
1580417218.89947,4.8523689631495,0.274662394140478,-4.42511635004189
1580417218.90347,5.6458381017776,0.885023270008332,-4.24200808728165
1580417218.90746,6.19516289005878,1.43434805828952,-4.11993591210808
1580417218.91146,6.68345159075307,1.67849240863666,-3.87579156176093
1580417218.91547,6.86655985351331,1.43434805828952,-3.69268329900046
1580417218.91946,6.92759594110021,1.37331197070262,-3.44853894865332
1580417218.92345,7.23277637903402,1.25123979552905,-3.32646677347975
1580417218.92745,7.23277637903402,1.55642023346309,-3.32646677347975
1580417218.93144,7.23277637903402,1.73952849622333,-3.63164721141379
1580417218.93544,7.04966811627378,1.61745632104976,-3.93682764934761
1580417218.93943,6.74448767833974,1.19020370794237,-4.36408026245522
1580417218.94342,6.13412680247188,0.579842832074519,-4.97444113832307
1580417218.94742,5.7068741893645,-0.091554131380235,-5.46272983901736
1580417218.95141,5.58480201419093,-0.70191500724809,-5.76791027695117
1580417218.95541,5.88998245212474,-0.885023270008332,-6.19516289005878
1580417218.9594,6.31723506523235,-0.51880674448762,-6.31723506523235
1580417218.96339,6.74448767833974,0.152590218966907,-6.43930724040592
1580417218.96739,7.17174029144735,0.823987182421661,-6.5003433279926
1580417218.97138,7.29381246662092,1.37331197070262,-6.43930724040592
1580417218.97538,7.35484855420759,1.55642023346309,-6.43930724040592
1580417218.97937,7.11070420386045,1.31227588311594,-6.37827115281902
1580417218.98336,6.68345159075307,0.70191500724809,-6.31723506523235
1580417218.98736,6.01205462729831,-0.091554131380235,-6.07309071488521
1580417218.99135,5.40169375143046,-0.762951094834762,-5.76791027695117
1580417218.99533,4.8523689631495,-1.19020370794237,-5.52376592660403
1580417218.99932,3.99786373693451,-1.61745632104976,-5.46272983901736
1580417219.00332,3.14335851071951,-1.8616006713969,-5.34065766384379
1580417219.00731,2.41092545967808,-2.16678110933094,-5.40169375143046
1580417219.01131,2.04470893415737,-2.34988937209118,-5.27962157625689
1580417219.0153,1.73952849622333,-2.41092545967808,-5.27962157625689
1580417219.01929,1.37331197070262,-2.34988937209118,-5.27962157625689
1580417219.02329,1.43434805828952,-2.10574502174404,-5.58480201419093
1580417219.02728,1.61745632104976,-1.80056458381023,-5.6458381017776
1580417219.03128,1.98367284657047,-1.55642023346309,-5.76791027695117
1580417219.03527,2.28885328450451,-1.19020370794237,-5.88998245212474
1580417219.03926,2.65506981002522,-1.0681315327688,-5.95101853971164
1580417219.04326,3.02128633554594,-1.12916762035547,-6.01205462729831
1580417219.04725,3.08232242313261,-1.19020370794237,-6.01205462729831
1580417219.05125,3.02128633554594,-1.43434805828952,-5.95101853971164
1580417219.05524,2.7161058976119,-1.80056458381023,-5.88998245212474
1580417219.05923,2.28885328450451,-2.04470893415737,-5.7068741893645
1580417219.06323,1.9226367589838,-2.41092545967808,-5.6458381017776
1580417219.06722,1.80056458381023,-2.59403372243833,-5.6458381017776
1580417219.07122,1.8616006713969,-2.7161058976119,-5.6458381017776
1580417219.07522,2.47196154726475,-2.59403372243833,-5.6458381017776
1580417219.07922,3.08232242313261,-2.47196154726475,-5.52376592660403
1580417219.08321,3.75371938658736,-2.22781719691761,-5.52376592660403
1580417219.08721,4.42511635004189,-1.98367284657047,-5.40169375143046
1580417219.0912,5.03547722590974,-1.9226367589838,-5.27962157625689
1580417219.09519,5.52376592660403,-1.73952849622333,-5.27962157625689
1580417219.09919,5.7068741893645,-1.55642023346309,-4.97444113832307
1580417219.10318,5.82894636453807,-1.61745632104976,-4.8523689631495
1580417219.10718,6.01205462729831,-1.67849240863666,-4.60822461280236
1580417219.11117,6.13412680247188,-1.80056458381023,-4.54718852521546
1580417219.11516,6.07309071488521,-1.98367284657047,-4.18097199969475
1580417219.11916,6.07309071488521,-2.22781719691761,-4.24200808728165
1580417219.12315,6.01205462729831,-2.22781719691761,-4.11993591210808
1580417219.12715,5.88998245212474,-2.59403372243833,-4.11993591210808
1580417219.13114,5.52376592660403,-2.89921416037237,-4.36408026245522
1580417219.13513,5.34065766384379,-3.14335851071951,-4.54718852521546
1580417219.13913,5.34065766384379,-3.57061112382689,-4.7913328755626
1580417219.14312,5.27962157625689,-3.75371938658736,-5.09651331349664
1580417219.14712,5.15754940108332,-4.05889982452118,-5.40169375143046
1580417219.15111,5.21858548867021,-4.36408026245522,-5.88998245212474
1580417219.15509,5.46272983901736,-4.73029678797593,-6.25619897764545
1580417219.15908,5.6458381017776,-5.09651331349664,-6.43930724040592
1580417219.16308,5.82894636453807,-5.34065766384379,-6.62241550316617
1580417219.16707,6.07309071488521,-5.34065766384379,-6.68345159075307
1580417219.17107,6.31723506523235,-5.34065766384379,-6.74448767833974
1580417219.17506,6.5003433279926,-5.15754940108332,-6.56137941557949
1580417219.17905,6.5003433279926,-5.03547722590974,-6.25619897764545
1580417219.18305,6.43930724040592,-4.91340505073617,-5.88998245212474
1580417219.18704,6.25619897764545,-4.97444113832307,-5.34065766384379
1580417219.19104,6.31723506523235,-5.09651331349664,-4.8523689631495
1580417219.19503,6.43930724040592,-5.21858548867021,-4.42511635004189
1580417219.19902,6.56137941557949,-5.09651331349664,-3.99786373693451
1580417219.20302,6.62241550316617,-4.8523689631495,-3.63164721141379
1580417219.20701,6.74448767833974,-4.42511635004189,-3.26543068589308
1580417219.21101,6.74448767833974,-4.18097199969475,-2.83817807278547
1580417219.215,6.25619897764545,-3.81475547417404,-2.59403372243833
1580417219.21899,5.7068741893645,-3.69268329900046,-2.34988937209118
1580417219.22299,4.97444113832307,-3.75371938658736,-2.04470893415737
1580417219.22698,4.05889982452118,-3.99786373693451,-1.67849240863666
1580417219.23098,3.38750286106665,-3.99786373693451,-1.49538414587619
1580417219.23498,2.83817807278547,-3.99786373693451,-1.37331197070262
1580417219.23898,2.7161058976119,-3.99786373693451,-1.12916762035547
1580417219.24297,2.7771419851988,-3.57061112382689,-1.0070954451819
1580417219.24697,3.32646677347975,-2.7771419851988,-0.762951094834762
1580417219.25096,3.93682764934761,-2.16678110933094,-0.70191500724809
1580417219.25495,4.73029678797593,-1.67849240863666,-0.579842832074519
1580417219.25895,5.52376592660403,-1.25123979552905,-0.457770656900948
1580417219.26294,6.5003433279926,-0.70191500724809,-0.213626306553806
1580417219.26694,7.29381246662092,-0.396734569314049,-0.152590218966907
1580417219.27093,8.02624551766235,-0.396734569314049,-0.091554131380235
1580417219.27492,8.20935378042259,-0.51880674448762,0.091554131380235
1580417219.27892,8.20935378042259,-0.640878919661191,0.335698481727377
1580417219.28291,7.7821011673152,-0.640878919661191,0.51880674448762
1580417219.28691,7.35484855420759,-0.640878919661191,0.70191500724809
1580417219.2909,6.80552376592664,-0.579842832074519,1.12916762035547
1580417219.29489,6.13412680247188,-0.640878919661191,1.49538414587619
1580417219.29889,5.46272983901736,-0.70191500724809,1.9226367589838
1580417219.30288,4.73029678797593,-0.885023270008332,2.16678110933094
1580417219.30688,3.93682764934761,-0.823987182421661,2.7161058976119
1580417219.31087,3.26543068589308,-0.885023270008332,3.14335851071951
1580417219.31485,2.53299763485165,-0.823987182421661,3.57061112382689
1580417219.31884,2.10574502174404,-0.762951094834762,3.93682764934761
1580417219.32284,1.67849240863666,-0.579842832074519,4.18097199969475
1580417219.32683,1.25123979552905,-0.091554131380235,4.36408026245522
1580417219.33082,1.37331197070262,0.213626306553806,4.54718852521546
1580417219.33482,1.19020370794237,0.579842832074519,4.66926070038903
1580417219.33881,1.19020370794237,0.823987182421661,4.66926070038903
1580417219.34281,1.0681315327688,0.946059357595232,4.60822461280236
1580417219.3468,0.946059357595232,1.19020370794237,4.42511635004189
1580417219.3508,0.70191500724809,1.19020370794237,4.24200808728165
1580417219.35479,0.70191500724809,1.31227588311594,3.93682764934761
1580417219.35878,0.70191500724809,1.31227588311594,3.69268329900046
1580417219.36278,0.457770656900948,1.37331197070262,3.44853894865332
1580417219.36677,0.51880674448762,1.37331197070262,3.20439459830618
1580417219.37076,0.396734569314049,1.37331197070262,3.02128633554594
1580417219.37476,0.213626306553806,1.37331197070262,2.83817807278547
1580417219.37875,0.0305180437933359,1.19020370794237,2.83817807278547
1580417219.38275,-0.152590218966907,1.0681315327688,2.96025024795904
1580417219.38674,-0.640878919661191,0.823987182421661,3.14335851071951
1580417219.39073,-1.19020370794237,0.579842832074519,3.38750286106665
1580417219.39474,-1.9226367589838,0.396734569314049,3.57061112382689
1580417219.39874,-2.41092545967808,0.396734569314049,3.81475547417404
1580417219.40273,-2.65506981002522,0.091554131380235,4.11993591210808
1580417219.40673,-2.7161058976119,-0.152590218966907,4.42511635004189
1580417219.41072,-2.89921416037237,-0.274662394140478,4.73029678797593
1580417219.41471,-2.89921416037237,-0.396734569314049,4.91340505073617
1580417219.41871,-3.02128633554594,-0.51880674448762,4.73029678797593
1580417219.4227,-2.83817807278547,-0.640878919661191,4.54718852521546
1580417219.4267,-2.7771419851988,-0.762951094834762,4.36408026245522
1580417219.43069,-2.65506981002522,-1.0070954451819,4.05889982452118
1580417219.43468,-2.59403372243833,-1.0070954451819,3.50957503624022
1580417219.43868,-2.34988937209118,-1.25123979552905,3.02128633554594
1580417219.44267,-1.8616006713969,-1.12916762035547,2.47196154726475
1580417219.44667,-1.25123979552905,-1.0681315327688,1.9226367589838
1580417219.45066,-0.396734569314049,-0.885023270008332,1.49538414587619
1580417219.45465,0.51880674448762,-0.823987182421661,0.946059357595232
1580417219.45865,1.0681315327688,-0.457770656900948,0.579842832074519
1580417219.46264,1.61745632104976,-0.396734569314049,-0.0305180437933359
1580417219.46664,1.8616006713969,-0.51880674448762,-0.274662394140478
1580417219.47063,2.04470893415737,-0.579842832074519,-0.579842832074519
1580417219.47461,2.28885328450451,-0.946059357595232,-0.885023270008332
1580417219.4786,2.47196154726475,-1.19020370794237,-1.0070954451819
1580417219.4826,2.53299763485165,-1.37331197070262,-1.0681315327688
1580417219.48659,2.7161058976119,-1.55642023346309,-1.0070954451819
1580417219.49058,2.7771419851988,-1.55642023346309,-0.823987182421661
1580417219.49458,2.59403372243833,-1.43434805828952,-0.640878919661191
1580417219.49857,2.7161058976119,-1.12916762035547,-0.51880674448762
1580417219.50257,2.7771419851988,-0.946059357595232,-0.396734569314049
1580417219.50656,2.59403372243833,-0.640878919661191,-0.274662394140478
1580417219.51056,2.7161058976119,-0.579842832074519,0.091554131380235
1580417219.51455,2.7771419851988,-0.396734569314049,0.213626306553806
1580417219.51854,2.96025024795904,-0.274662394140478,0.396734569314049
1580417219.52254,3.08232242313261,-0.213626306553806,0.457770656900948
1580417219.52653,3.32646677347975,-0.091554131380235,0.457770656900948
1580417219.53052,3.38750286106665,0.213626306553806,0.457770656900948
1580417219.53452,3.69268329900046,0.335698481727377,0.457770656900948
1580417219.53851,3.93682764934761,0.396734569314049,0.335698481727377
1580417219.54251,4.11993591210808,0.51880674448762,0.091554131380235
1580417219.5465,4.18097199969475,0.51880674448762,-0.0305180437933359
1580417219.55049,4.30304417486832,0.640878919661191,-0.152590218966907
1580417219.5545,4.54718852521546,0.51880674448762,-0.457770656900948
1580417219.5585,4.73029678797593,0.51880674448762,-0.457770656900948
1580417219.56249,4.91340505073617,0.579842832074519,-0.396734569314049
1580417219.56649,4.91340505073617,0.640878919661191,-0.274662394140478
1580417219.57048,4.8523689631495,0.640878919661191,-0.0305180437933359
1580417219.57447,4.8523689631495,0.762951094834762,0.152590218966907
1580417219.57847,4.7913328755626,0.762951094834762,0.579842832074519
1580417219.58246,4.60822461280236,0.885023270008332,1.0070954451819
1580417219.58646,4.48615243762879,1.0070954451819,1.49538414587619
1580417219.59045,4.30304417486832,1.25123979552905,1.73952849622333
1580417219.59444,4.42511635004189,1.31227588311594,2.22781719691761
1580417219.59844,4.30304417486832,1.31227588311594,2.65506981002522
1580417219.60243,4.05889982452118,1.43434805828952,3.08232242313261
1580417219.60643,3.75371938658736,1.61745632104976,3.08232242313261
1580417219.61042,3.57061112382689,1.67849240863666,3.32646677347975
1580417219.61441,3.38750286106665,1.8616006713969,3.44853894865332
1580417219.61841,3.08232242313261,1.80056458381023,3.44853894865332
1580417219.6224,2.47196154726475,1.61745632104976,3.38750286106665
1580417219.6264,1.73952849622333,1.43434805828952,3.08232242313261
1580417219.63039,0.823987182421661,1.31227588311594,2.65506981002522
1580417219.63437,-0.152590218966907,0.946059357595232,2.28885328450451
1580417219.63836,-1.19020370794237,0.396734569314049,1.73952849622333
1580417219.64236,-1.9226367589838,-0.152590218966907,1.19020370794237
1580417219.64635,-2.7771419851988,-0.823987182421661,0.762951094834762
1580417219.65034,-3.38750286106665,-1.19020370794237,0.51880674448762
1580417219.65434,-3.75371938658736,-1.73952849622333,0.335698481727377
1580417219.65833,-3.93682764934761,-2.10574502174404,-0.0305180437933359
1580417219.66233,-3.99786373693451,-2.22781719691761,-0.152590218966907
1580417219.66632,-3.87579156176093,-2.34988937209118,-0.152590218966907
1580417219.67031,-3.63164721141379,-2.34988937209118,-0.335698481727377
1580417219.67431,-3.32646677347975,-2.47196154726475,-0.335698481727377
1580417219.6783,-3.08232242313261,-2.34988937209118,-0.396734569314049
1580417219.6823,-2.65506981002522,-2.22781719691761,-0.335698481727377
1580417219.68629,-2.16678110933094,-1.9226367589838,-0.457770656900948
1580417219.69028,-1.8616006713969,-1.61745632104976,-0.640878919661191
1580417219.69428,-1.31227588311594,-1.43434805828952,-0.640878919661191
1580417219.69827,-0.823987182421661,-1.25123979552905,-0.762951094834762
1580417219.70227,-0.213626306553806,-1.19020370794237,-0.946059357595232
1580417219.70626,0.579842832074519,-1.0681315327688,-0.946059357595232
1580417219.71025,1.61745632104976,-0.885023270008332,-1.0681315327688
1580417219.71426,2.59403372243833,-0.762951094834762,-1.19020370794237
1580417219.71826,3.44853894865332,-0.51880674448762,-1.49538414587619
1580417219.72225,4.36408026245522,-0.274662394140478,-1.55642023346309
1580417219.72625,4.91340505073617,-0.213626306553806,-1.67849240863666
1580417219.73024,5.52376592660403,-0.091554131380235,-1.80056458381023
1580417219.73423,5.76791027695117,-0.0305180437933359,-1.9226367589838
1580417219.73823,5.88998245212474,0.091554131380235,-2.16678110933094
1580417219.74222,6.01205462729831,0.152590218966907,-2.28885328450451
1580417219.74621,6.19516289005878,0.457770656900948,-2.28885328450451
1580417219.75021,6.25619897764545,0.70191500724809,-2.34988937209118
1580417219.7542,6.43930724040592,0.70191500724809,-2.28885328450451
1580417219.7582,6.37827115281902,0.762951094834762,-2.28885328450451
1580417219.76219,6.07309071488521,0.762951094834762,-2.28885328450451
1580417219.76619,5.6458381017776,0.762951094834762,-2.34988937209118
1580417219.77018,4.8523689631495,0.579842832074519,-2.28885328450451
1580417219.77417,3.99786373693451,0.335698481727377,-2.16678110933094
1580417219.77817,3.02128633554594,0.152590218966907,-2.41092545967808
1580417219.78216,2.22781719691761,0.091554131380235,-2.47196154726475
1580417219.78615,1.55642023346309,0.152590218966907,-2.59403372243833
1580417219.79015,1.0681315327688,0.335698481727377,-2.83817807278547
1580417219.79413,0.946059357595232,0.762951094834762,-2.7771419851988
1580417219.79812,0.579842832074519,1.0681315327688,-2.96025024795904
1580417219.80212,0.457770656900948,1.49538414587619,-3.08232242313261
1580417219.80611,0.335698481727377,1.98367284657047,-3.02128633554594
1580417219.8101,0.0305180437933359,2.59403372243833,-3.08232242313261
1580417219.8141,-0.152590218966907,2.96025024795904,-3.20439459830618
1580417219.81809,-0.152590218966907,3.38750286106665,-3.26543068589308
1580417219.82209,-0.274662394140478,3.81475547417404,-3.20439459830618
1580417219.82608,-0.0305180437933359,4.30304417486832,-3.08232242313261
1580417219.83007,0.396734569314049,4.7913328755626,-2.83817807278547
1580417219.83407,0.946059357595232,5.34065766384379,-2.59403372243833
1580417219.83806,1.43434805828952,5.6458381017776,-2.34988937209118
1580417219.84206,1.73952849622333,6.01205462729831,-1.98367284657047
1580417219.84605,1.9226367589838,6.25619897764545,-1.49538414587619
1580417219.85004,2.16678110933094,6.5003433279926,-1.12916762035547
1580417219.85404,2.22781719691761,6.74448767833974,-0.70191500724809
1580417219.85803,2.16678110933094,7.04966811627378,-0.213626306553806
1580417219.86203,1.9226367589838,7.23277637903402,0.152590218966907
1580417219.86602,1.49538414587619,7.53795681696806,0.396734569314049
1580417219.87001,0.823987182421661,7.59899290455473,0.762951094834762
1580417219.87402,0.0305180437933359,7.7821011673152,1.25123979552905
1580417219.87802,-0.70191500724809,7.66002899214163,1.43434805828952
1580417219.88201,-1.67849240863666,7.59899290455473,1.61745632104976
1580417219.886,-2.34988937209118,7.41588464179449,1.98367284657047
1580417219.89,-3.08232242313261,7.17174029144735,2.16678110933094
1580417219.89399,-3.57061112382689,7.04966811627378,2.34988937209118
1580417219.89799,-3.99786373693451,6.80552376592664,2.47196154726475
1580417219.90198,-4.24200808728165,6.68345159075307,2.59403372243833
1580417219.90597,-4.48615243762879,6.37827115281902,2.53299763485165
1580417219.90997,-4.73029678797593,6.07309071488521,2.53299763485165
1580417219.91396,-5.03547722590974,5.7068741893645,2.34988937209118
1580417219.91796,-5.21858548867021,5.27962157625689,2.04470893415737
1580417219.92195,-5.6458381017776,4.8523689631495,1.61745632104976
1580417219.92595,-5.88998245212474,4.11993591210808,1.25123979552905
1580417219.92994,-5.88998245212474,3.38750286106665,0.762951094834762
1580417219.93393,-5.76791027695117,2.7161058976119,0.091554131380235
1580417219.93793,-5.40169375143046,1.8616006713969,-0.579842832074519
1580417219.94192,-5.21858548867021,1.0681315327688,-1.0681315327688
1580417219.94591,-4.97444113832307,0.396734569314049,-1.55642023346309
1580417219.94991,-4.91340505073617,-0.396734569314049,-1.9226367589838
1580417219.95389,-4.8523689631495,-1.0070954451819,-2.22781719691761
1580417219.95788,-4.97444113832307,-1.73952849622333,-2.53299763485165
1580417219.96188,-5.46272983901736,-2.41092545967808,-2.96025024795904
1580417219.96587,-6.01205462729831,-3.26543068589308,-3.38750286106665
1580417219.96986,-6.68345159075307,-3.93682764934761,-3.75371938658736
1580417219.97386,-7.11070420386045,-4.48615243762879,-4.24200808728165
1580417219.97785,-7.47692072938116,-4.91340505073617,-4.73029678797593
1580417219.98184,-7.7821011673152,-5.15754940108332,-5.27962157625689
1580417219.98584,-7.84313725490188,-5.46272983901736,-5.6458381017776
1580417219.98983,-7.35484855420759,-5.46272983901736,-6.13412680247188
1580417219.99383,-6.13412680247188,-5.7068741893645,-6.43930724040592
1580417219.99782,-4.7913328755626,-5.7068741893645,-6.74448767833974
1580417220.00181,-2.65506981002522,-5.58480201419093,-6.92759594110021
1580417220.00581,-0.152590218966907,-5.46272983901736,-7.04966811627378
1580417220.0098,2.53299763485165,-5.21858548867021,-7.23277637903402
1580417220.0138,5.27962157625689,-4.97444113832307,-7.35484855420759
1580417220.01779,7.84313725490188,-4.8523689631495,-7.41588464179449
1580417220.02179,10.0404364080262,-4.54718852521546,-7.41588464179449
1580417220.02578,11.7494468604561,-4.30304417486832,-7.41588464179449
1580417220.02977,13.0312046997788,-4.24200808728165,-7.29381246662092
1580417220.03378,13.8246738384069,-4.05889982452118,-7.29381246662092
1580417220.03778,14.0077821011673,-4.11993591210808,-6.86655985351331
1580417220.04177,13.5805294880597,-3.93682764934761,-6.5003433279926
1580417220.04576,12.6039520866711,-3.69268329900046,-5.95101853971164
1580417220.04976,11.2611581597619,-3.50957503624022,-5.15754940108332
1580417220.05375,9.4911116197452,-3.38750286106665,-4.42511635004189
1580417220.05775,7.90417334248878,-3.32646677347975,-3.20439459830618
1580417220.06174,6.74448767833974,-3.20439459830618,-2.16678110933094
1580417220.06573,5.82894636453807,-3.20439459830618,-0.885023270008332
1580417220.06973,4.97444113832307,-3.20439459830618,0.274662394140478
1580417220.07372,4.30304417486832,-3.14335851071951,1.55642023346309
1580417220.07772,3.75371938658736,-3.08232242313261,2.83817807278547
1580417220.08171,3.20439459830618,-2.65506981002522,4.05889982452118
1580417220.0857,2.59403372243833,-1.98367284657047,5.09651331349664
1580417220.0897,1.73952849622333,-1.0681315327688,5.82894636453807
1580417220.09369,0.70191500724809,0.274662394140478,6.37827115281902
1580417220.09769,-0.457770656900948,1.80056458381023,6.92759594110021
1580417220.10168,-0.70191500724809,3.32646677347975,7.47692072938116
1580417220.10567,-0.0305180437933359,5.09651331349664,7.84313725490188
1580417220.10967,1.37331197070262,6.74448767833974,8.33142595559616
1580417220.11365,2.83817807278547,8.39246204318306,8.88075074387734
1580417220.11764,3.38750286106665,9.73525597009234,9.55214770733187
1580417220.12163,3.02128633554594,10.7728694590676,10.5287251087204
1580417220.12563,1.43434805828952,11.810482948043,11.9325551232166
1580417220.12962,-1.12916762035547,12.7870603494316,13.3363851377126
1580417220.13362,-4.18097199969475,13.7026016632333,14.9843595025559
1580417220.13761,-7.04966811627378,14.4350347142747,16.5712977798123
1580417220.1416,-10.0404364080262,14.9843595025559,17.9751277943083
1580417220.1456,-12.7260242618447,15.2895399404897,19.0737773708704
1580417220.14959,-15.6557564660104,15.4116121156633,19.9893186846723
1580417220.15359,-17.9751277943083,15.1064316777295,20.355535210193
1580417220.15758,-19.9893186846723,14.2519264515145,20.2944991226061
1580417220.16157,-21.5762569619287,13.214312962539,19.6841382467383
1580417220.16557,-22.919050888838,11.6273746852826,18.4634164950025
1580417220.16956,-23.8345922026397,10.1014724956131,16.7544060425726
1580417220.17356,-24.8722056916151,8.33142595559616,14.7402151522087
1580417220.17755,-25.7267109178301,6.68345159075307,12.7260242618447
1580417220.18155,-26.0929274433508,4.91340505073617,10.8339055466545
1580417220.18554,-26.0929274433508,3.44853894865332,9.12489509422448
1580417220.18953,-25.6046387426566,1.8616006713969,7.47692072938116
1580417220.19354,-24.6890974288547,0.762951094834762,5.82894636453807
1580417220.19754,-23.5294117647059,-0.213626306553806,4.36408026245522
1580417220.20153,-22.0035095750361,-0.640878919661191,3.02128633554594
1580417220.20552,-19.6231021591516,-0.885023270008332,1.73952849622333
1580417220.20952,-16.4492256046387,-0.946059357595232,0.457770656900948
1580417220.21351,-12.8480964370183,-1.19020370794237,-0.762951094834762
1580417220.21751,-9.24696726939806,-1.55642023346309,-1.80056458381023
1580417220.2215,-5.95101853971164,-2.04470893415737,-2.59403372243833
1580417220.22549,-3.08232242313261,-2.53299763485165,-3.32646677347975
1580417220.22949,-0.51880674448762,-3.20439459830618,-3.93682764934761
1580417220.23348,1.80056458381023,-3.69268329900046,-4.30304417486832
1580417220.23748,3.81475547417404,-4.18097199969475,-4.73029678797593
1580417220.24147,5.82894636453807,-4.54718852521546,-4.8523689631495
1580417220.24546,7.35484855420759,-4.60822461280236,-5.03547722590974
1580417220.24946,8.39246204318306,-4.54718852521546,-4.7913328755626
1580417220.25345,9.12489509422448,-4.30304417486832,-4.7913328755626
1580417220.25745,9.61318379491877,-3.99786373693451,-4.66926070038903
1580417220.26144,10.4676890211338,-3.57061112382689,-4.60822461280236
1580417220.26543,11.9325551232166,-3.02128633554594,-4.54718852521546
1580417220.26943,13.8857099259938,-2.34988937209118,-4.48615243762879
1580417220.27341,16.632333867399,-1.61745632104976,-4.54718852521546
1580417220.2774,19.0737773708704,-0.823987182421661,-4.48615243762879
1580417220.28139,21.0269321736475,0.091554131380235,-4.60822461280236
1580417220.28539,22.3086900129701,0.885023270008332,-4.60822461280236
1580417220.28938,22.8580148012511,1.73952849622333,-4.66926070038903
1580417220.29338,22.5528343633173,2.7771419851988,-5.03547722590974
1580417220.29737,21.6983291371023,3.63164721141379,-5.46272983901736
1580417220.30136,20.355535210193,4.54718852521546,-6.07309071488521
1580417220.30536,19.195849546044,5.15754940108332,-6.74448767833974
1580417220.30935,18.2192721446554,5.40169375143046,-7.66002899214163
1580417220.31335,17.8530556191347,5.58480201419093,-8.69764248111687
1580417220.31734,17.792019531548,5.76791027695117,-9.4300755321583
1580417220.32133,17.8530556191347,5.82894636453807,-9.91836423285258
1580417220.32533,18.2192721446554,5.58480201419093,-10.2845807583733
1580417220.32932,18.2803082322423,5.15754940108332,-10.4066529335469
1580417220.33332,18.1582360570687,4.66926070038903,-10.4066529335469
1580417220.33731,17.5478751812009,4.05889982452118,-9.91836423285258
1580417220.3413,16.2050812542916,3.69268329900046,-9.4300755321583
1580417220.3453,13.9467460135804,3.69268329900046,-8.69764248111687
1580417220.34929,11.2611581597619,4.24200808728165,-8.33142595559616
1580417220.3533,8.27038986800949,5.03547722590974,-7.90417334248878
1580417220.3573,4.73029678797593,5.76791027695117,-7.72106507972831
1580417220.36129,1.19020370794237,6.37827115281902,-7.72106507972831
1580417220.36528,-2.10574502174404,6.80552376592664,-7.66002899214163
1580417220.36928,-4.97444113832307,6.86655985351331,-7.7821011673152
1580417220.37327,-7.11070420386045,6.92759594110021,-7.90417334248878
1580417220.37727,-8.75867856870377,7.04966811627378,-8.02624551766235
1580417220.38126,-9.85732814526591,7.29381246662092,-8.02624551766235
1580417220.38525,-10.2845807583733,7.66002899214163,-8.14831769283592
1580417220.38925,-10.0404364080262,8.14831769283592,-8.20935378042259
1580417220.39324,-9.30800335698473,8.69764248111687,-8.33142595559616
1580417220.39723,-8.27038986800949,9.30800335698473,-8.6366063935302
1580417220.40123,-7.35484855420759,9.61318379491877,-8.81971465629044
1580417220.40522,-6.56137941557949,9.55214770733187,-9.00282291905091
1580417220.40922,-6.07309071488521,9.36903944457163,-8.94178683146401
1580417220.41321,-5.95101853971164,8.69764248111687,-8.51453421835663
1580417220.4172,-6.31723506523235,8.14831769283592,-7.66002899214163
1580417220.4212,-7.23277637903402,7.66002899214163,-6.86655985351331
1580417220.42519,-7.90417334248878,7.47692072938116,-6.19516289005878
1580417220.42919,-8.20935378042259,7.41588464179449,-5.34065766384379
1580417220.43317,-7.41588464179449,7.47692072938116,-4.60822461280236
1580417220.43716,-5.7068741893645,7.96520943007545,-3.87579156176093
1580417220.44115,-3.08232242313261,8.27038986800949,-3.08232242313261
1580417220.44515,0.274662394140478,8.27038986800949,-2.28885328450451
1580417220.44914,4.05889982452118,8.20935378042259,-1.43434805828952
1580417220.45314,7.53795681696806,8.02624551766235,-0.335698481727377
1580417220.45713,10.1625085831997,7.7821011673152,0.70191500724809
1580417220.46112,11.2001220721752,7.35484855420759,1.73952849622333
1580417220.46512,11.0780498970016,6.62241550316617,2.65506981002522
1580417220.46911,10.2235446707866,5.95101853971164,3.44853894865332
1580417220.47311,9.06385900663759,5.21858548867021,4.30304417486832
1580417220.4771,8.27038986800949,4.42511635004189,5.09651331349664
1580417220.48109,8.02624551766235,3.63164721141379,5.82894636453807
1580417220.48509,8.02624551766235,2.89921416037237,6.19516289005878
1580417220.48908,8.33142595559616,2.28885328450451,6.62241550316617
1580417220.49308,8.39246204318306,1.67849240863666,7.04966811627378
1580417220.49707,8.27038986800949,1.0681315327688,7.23277637903402
1580417220.50106,7.66002899214163,0.51880674448762,7.41588464179449
1580417220.50506,6.80552376592664,0.0305180437933359,7.66002899214163
1580417220.50905,6.13412680247188,-0.335698481727377,7.84313725490188
1580417220.51306,5.34065766384379,-0.396734569314049,7.96520943007545
1580417220.51706,4.54718852521546,-0.335698481727377,7.84313725490188
1580417220.52105,3.69268329900046,0.0305180437933359,7.72106507972831
1580417220.52504,2.47196154726475,0.335698481727377,7.35484855420759
1580417220.52904,1.19020370794237,0.457770656900948,6.86655985351331
1580417220.53303,-0.274662394140478,0.335698481727377,6.25619897764545
1580417220.53702,-1.55642023346309,0.274662394140478,5.58480201419093
1580417220.54102,-2.34988937209118,0.152590218966907,4.8523689631495
1580417220.54501,-2.34988937209118,-0.0305180437933359,4.05889982452118
1580417220.54901,-1.61745632104976,-0.0305180437933359,3.50957503624022
1580417220.553,-0.885023270008332,-0.274662394140478,3.08232242313261
1580417220.55699,-0.51880674448762,-0.152590218966907,2.65506981002522
1580417220.56099,-0.457770656900948,-0.152590218966907,2.22781719691761
1580417220.56498,-0.640878919661191,-0.335698481727377,2.10574502174404
1580417220.56898,-1.0070954451819,-0.579842832074519,2.04470893415737
1580417220.57297,-1.0070954451819,-0.579842832074519,1.73952849622333
1580417220.57696,-0.51880674448762,-0.762951094834762,1.61745632104976
1580417220.58096,0.274662394140478,-0.946059357595232,1.31227588311594
1580417220.58495,1.43434805828952,-0.762951094834762,0.823987182421661
1580417220.58895,3.14335851071951,-0.213626306553806,0.457770656900948
1580417220.59293,4.73029678797593,0.213626306553806,0.213626306553806
1580417220.59692,6.43930724040592,0.640878919661191,-0.213626306553806
1580417220.60091,7.35484855420759,0.70191500724809,-0.51880674448762
1580417220.60491,7.47692072938116,0.70191500724809,-0.946059357595232
1580417220.6089,7.11070420386045,0.640878919661191,-1.37331197070262
1580417220.6129,6.31723506523235,0.640878919661191,-2.04470893415737
1580417220.61689,5.58480201419093,0.640878919661191,-2.83817807278547
1580417220.62088,5.21858548867021,0.579842832074519,-3.69268329900046
1580417220.62488,5.15754940108332,0.579842832074519,-4.7913328755626
1580417220.62887,5.7068741893645,0.579842832074519,-5.76791027695117
1580417220.63287,6.43930724040592,0.640878919661191,-6.86655985351331
1580417220.63686,7.23277637903402,1.0681315327688,-7.96520943007545
1580417220.64085,7.90417334248878,1.8616006713969,-9.00282291905091
1580417220.64485,8.75867856870377,2.7161058976119,-9.91836423285258
1580417220.64884,9.67421988250544,3.38750286106665,-10.650797283894
1580417220.65283,10.0404364080262,3.99786373693451,-11.2001220721752
1580417220.65683,9.85732814526591,4.66926070038903,-11.5663385976959
1580417220.66082,9.06385900663759,5.21858548867021,-11.7494468604561
1580417220.66482,8.33142595559616,5.40169375143046,-11.8715190356297
1580417220.66881,7.96520943007545,5.27962157625689,-11.6273746852826
1580417220.67282,7.11070420386045,5.15754940108332,-11.3221942473488
1580417220.67682,6.01205462729831,5.27962157625689,-11.0780498970016
1580417220.68081,4.73029678797593,5.6458381017776,-10.8339055466545
1580417220.6848,3.08232242313261,6.01205462729831,-10.5287251087204
1580417220.6888,1.61745632104976,6.07309071488521,-10.2235446707866
1580417220.69279,0.51880674448762,6.01205462729831,-9.85732814526591
1580417220.69678,0.274662394140478,5.52376592660403,-9.30800335698473
1580417220.70078,0.213626306553806,5.03547722590974,-8.69764248111687
1580417220.70477,0.396734569314049,4.66926070038903,-8.20935378042259
1580417220.70877,0.579842832074519,4.18097199969475,-7.53795681696806
1580417220.71276,0.51880674448762,3.87579156176093,-7.23277637903402
1580417220.71675,0.274662394140478,3.99786373693451,-6.62241550316617
1580417220.72075,0.0305180437933359,4.36408026245522,-6.13412680247188
1580417220.72474,-0.213626306553806,4.73029678797593,-5.52376592660403
1580417220.72874,-0.091554131380235,4.73029678797593,-4.97444113832307
1580417220.73273,-0.579842832074519,5.03547722590974,-4.42511635004189
1580417220.73672,-1.55642023346309,5.15754940108332,-4.18097199969475
1580417220.74072,-3.08232242313261,5.03547722590974,-3.99786373693451
1580417220.74471,-4.24200808728165,4.7913328755626,-3.99786373693451
1580417220.74871,-5.09651331349664,4.60822461280236,-4.24200808728165
1580417220.75268,-5.15754940108332,4.48615243762879,-4.60822461280236
1580417220.75668,-4.24200808728165,4.48615243762879,-4.97444113832307
1580417220.76067,-2.7161058976119,4.73029678797593,-5.09651331349664
1580417220.76467,-0.885023270008332,4.8523689631495,-5.15754940108332
1580417220.76866,1.0681315327688,4.73029678797593,-4.97444113832307
1580417220.77266,2.53299763485165,4.24200808728165,-4.91340505073617
1580417220.77665,3.26543068589308,3.75371938658736,-4.7913328755626
1580417220.78064,3.02128633554594,3.38750286106665,-4.48615243762879
1580417220.78464,2.22781719691761,3.08232242313261,-4.36408026245522
1580417220.78863,1.55642023346309,2.89921416037237,-4.30304417486832
1580417220.79262,1.25123979552905,2.53299763485165,-3.99786373693451
1580417220.79662,1.67849240863666,2.22781719691761,-3.81475547417404
1580417220.80061,2.34988937209118,1.80056458381023,-3.32646677347975
1580417220.80461,2.83817807278547,1.31227588311594,-2.65506981002522
1580417220.8086,3.02128633554594,0.823987182421661,-1.9226367589838
1580417220.81259,2.96025024795904,0.640878919661191,-1.12916762035547
1580417220.81659,3.08232242313261,0.335698481727377,-0.51880674448762
1580417220.82058,3.57061112382689,0.0305180437933359,0.0305180437933359
1580417220.82458,4.36408026245522,-0.274662394140478,0.51880674448762
1580417220.82857,5.40169375143046,-0.457770656900948,1.12916762035547
1580417220.83258,6.80552376592664,-0.640878919661191,1.49538414587619
1580417220.83657,8.20935378042259,-0.762951094834762,1.9226367589838
1580417220.84057,9.12489509422448,-0.885023270008332,2.16678110933094
1580417220.84456,9.4911116197452,-0.823987182421661,2.34988937209118
1580417220.84856,9.4300755321583,-0.579842832074519,2.53299763485165
1580417220.85255,8.81971465629044,-0.091554131380235,2.7771419851988
1580417220.85654,8.33142595559616,-0.0305180437933359,3.14335851071951
1580417220.86054,7.84313725490188,-0.091554131380235,3.44853894865332
1580417220.86453,7.11070420386045,-0.335698481727377,3.93682764934761
1580417220.86853,6.25619897764545,-0.640878919661191,4.36408026245522
1580417220.87252,4.97444113832307,-1.0070954451819,4.66926070038903
1580417220.87651,3.26543068589308,-1.73952849622333,5.09651331349664
1580417220.88051,1.25123979552905,-2.34988937209118,5.46272983901736
1580417220.8845,-0.70191500724809,-3.08232242313261,5.7068741893645
1580417220.8885,-2.28885328450451,-3.14335851071951,5.76791027695117
1580417220.89249,-3.44853894865332,-3.08232242313261,5.76791027695117
1580417220.89648,-4.30304417486832,-2.89921416037237,5.52376592660403
1580417220.90048,-4.97444113832307,-3.08232242313261,5.40169375143046
1580417220.90447,-5.27962157625689,-3.50957503624022,5.09651331349664
1580417220.90847,-5.46272983901736,-3.93682764934761,4.7913328755626
1580417220.91244,-5.27962157625689,-4.18097199969475,4.36408026245522
1580417220.91644,-4.91340505073617,-4.24200808728165,3.99786373693451
1580417220.92043,-3.81475547417404,-4.11993591210808,3.57061112382689
1580417220.92443,-2.28885328450451,-3.69268329900046,2.89921416037237
1580417220.92842,-0.274662394140478,-3.14335851071951,2.41092545967808
1580417220.93242,1.67849240863666,-2.53299763485165,1.8616006713969
1580417220.93641,3.57061112382689,-1.80056458381023,1.43434805828952
1580417220.9404,4.7913328755626,-1.19020370794237,1.0070954451819
1580417220.9444,5.82894636453807,-0.51880674448762,0.640878919661191
1580417220.94839,6.74448767833974,-0.274662394140478,0.396734569314049
1580417220.95238,7.7821011673152,-0.091554131380235,0.274662394140478
1580417220.95638,8.51453421835663,-0.152590218966907,0.152590218966907
1580417220.96037,8.69764248111687,-0.274662394140478,0.213626306553806
1580417220.96437,8.69764248111687,-0.274662394140478,0.152590218966907
1580417220.96836,8.81971465629044,0.091554131380235,0.091554131380235
1580417220.97235,9.18593118181116,0.457770656900948,-0.0305180437933359
1580417220.97635,9.30800335698473,0.946059357595232,-0.274662394140478
1580417220.98034,9.36903944457163,1.25123979552905,-0.579842832074519
1580417220.98434,9.55214770733187,1.55642023346309,-0.823987182421661
1580417220.98833,9.85732814526591,1.98367284657047,-0.946059357595232
1580417220.99234,9.91836423285258,2.22781719691761,-1.0070954451819
1580417220.99633,9.73525597009234,2.47196154726475,-0.70191500724809
1580417221.00033,9.30800335698473,2.83817807278547,-0.457770656900948
1580417221.00432,8.14831769283592,3.26543068589308,-0.152590218966907
1580417221.00832,6.98863202868688,3.38750286106665,0.0305180437933359
1580417221.01231,5.95101853971164,3.02128633554594,0.0305180437933359
1580417221.0163,5.27962157625689,2.59403372243833,-0.091554131380235
1580417221.0203,4.60822461280236,2.04470893415737,-0.152590218966907
1580417221.02429,3.93682764934761,1.49538414587619,-0.152590218966907
1580417221.02829,2.89921416037237,0.885023270008332,-0.213626306553806
1580417221.03228,1.49538414587619,0.457770656900948,-0.213626306553806
1580417221.03627,0.396734569314049,0.091554131380235,-0.213626306553806
1580417221.04027,-0.213626306553806,-0.274662394140478,-0.457770656900948
1580417221.04426,0.091554131380235,-0.396734569314049,-0.762951094834762
1580417221.04826,1.37331197070262,-0.823987182421661,-1.19020370794237
1580417221.05225,3.14335851071951,-1.0681315327688,-1.73952849622333
1580417221.05624,4.54718852521546,-0.70191500724809,-2.16678110933094
1580417221.06024,5.52376592660403,-0.335698481727377,-2.65506981002522
1580417221.06423,6.07309071488521,0.0305180437933359,-2.89921416037237
1580417221.06822,6.25619897764545,0.457770656900948,-3.08232242313261
1580417221.07223,6.25619897764545,0.70191500724809,-3.14335851071951
1580417221.07623,6.43930724040592,0.762951094834762,-3.26543068589308
1580417221.08022,6.68345159075307,0.70191500724809,-3.08232242313261
1580417221.08422,7.11070420386045,0.51880674448762,-3.08232242313261
1580417221.08821,7.35484855420759,0.335698481727377,-2.83817807278547
1580417221.09221,7.66002899214163,0.091554131380235,-2.96025024795904
1580417221.0962,7.7821011673152,-0.213626306553806,-2.83817807278547
1580417221.10019,8.02624551766235,-0.335698481727377,-2.96025024795904
1580417221.10419,8.51453421835663,-0.396734569314049,-3.08232242313261
1580417221.10818,9.73525597009234,-0.213626306553806,-2.96025024795904
1580417221.11217,11.1390859845883,0.152590218966907,-2.83817807278547
1580417221.11617,12.359807736324,0.640878919661191,-2.7771419851988
1580417221.12016,13.1532768749523,1.0070954451819,-2.65506981002522
1580417221.12416,13.3974212252995,1.31227588311594,-3.02128633554594
1580417221.12815,13.5805294880597,1.43434805828952,-3.38750286106665
1580417221.13214,13.1532768749523,1.61745632104976,-3.81475547417404
1580417221.13614,12.4208438239109,1.67849240863666,-4.36408026245522
1580417221.14013,11.4442664225223,1.8616006713969,-4.8523689631495
1580417221.14413,10.1014724956131,1.8616006713969,-5.27962157625689
1580417221.14812,8.88075074387734,1.73952849622333,-5.58480201419093
1580417221.1521,7.96520943007545,1.43434805828952,-5.76791027695117
1580417221.15609,7.7821011673152,1.0070954451819,-5.82894636453807
1580417221.16009,7.96520943007545,0.579842832074519,-5.6458381017776
1580417221.16408,7.7821011673152,0.152590218966907,-5.34065766384379
1580417221.16807,7.23277637903402,0.152590218966907,-5.09651331349664
1580417221.17207,6.31723506523235,0.152590218966907,-4.54718852521546
1580417221.17606,5.15754940108332,0.152590218966907,-4.18097199969475
1580417221.18006,3.99786373693451,0.213626306553806,-3.81475547417404
1580417221.18405,3.14335851071951,0.213626306553806,-3.38750286106665
1580417221.18805,3.14335851071951,0.335698481727377,-3.02128633554594
1580417221.19204,3.81475547417404,0.70191500724809,-2.83817807278547
1580417221.19603,4.66926070038903,1.61745632104976,-2.7161058976119
1580417221.20003,5.58480201419093,2.7771419851988,-2.59403372243833
1580417221.20402,6.01205462729831,3.93682764934761,-2.41092545967808
1580417221.20801,6.5003433279926,5.27962157625689,-2.16678110933094
1580417221.21201,6.92759594110021,6.19516289005878,-1.8616006713969
1580417221.216,7.90417334248878,6.25619897764545,-1.25123979552905
1580417221.22,9.30800335698473,5.6458381017776,-0.51880674448762
1580417221.22399,9.97940032043948,4.60822461280236,0.274662394140478
1580417221.22798,9.55214770733187,3.87579156176093,1.31227588311594
1580417221.23199,7.72106507972831,3.75371938658736,2.34988937209118
1580417221.23599,5.6458381017776,4.05889982452118,3.32646677347975
1580417221.23998,3.69268329900046,4.11993591210808,3.87579156176093
1580417221.24398,2.7161058976119,3.63164721141379,4.30304417486832
1580417221.24797,3.02128633554594,2.7771419851988,4.66926070038903
1580417221.25196,3.57061112382689,1.73952849622333,4.8523689631495
1580417221.25596,3.87579156176093,1.19020370794237,4.97444113832307
1580417221.25995,3.87579156176093,0.823987182421661,4.7913328755626
1580417221.26395,3.63164721141379,0.640878919661191,4.42511635004189
1580417221.26794,3.81475547417404,0.457770656900948,3.57061112382689
1580417221.27193,4.30304417486832,0.396734569314049,2.59403372243833
1580417221.27593,5.15754940108332,0.396734569314049,1.67849240863666
1580417221.27992,5.82894636453807,0.51880674448762,0.823987182421661
1580417221.28392,6.56137941557949,0.70191500724809,0.0305180437933359
1580417221.28791,7.29381246662092,0.70191500724809,-0.396734569314049
1580417221.2919,8.45349813076973,0.70191500724809,-0.51880674448762
1580417221.2959,10.1014724956131,0.51880674448762,-0.51880674448762
1580417221.29989,11.6884107728695,0.0305180437933359,-0.274662394140478
1580417221.30389,11.810482948043,-0.457770656900948,0.091554131380235
1580417221.30788,10.4066529335469,-0.70191500724809,0.823987182421661
1580417221.31189,8.20935378042259,-0.885023270008332,1.43434805828952
1580417221.31588,5.7068741893645,-1.55642023346309,1.98367284657047
1580417221.31988,3.69268329900046,-2.34988937209118,2.65506981002522
1580417221.32387,1.73952849622333,-3.02128633554594,3.26543068589308
1580417221.32786,0.274662394140478,-3.38750286106665,3.99786373693451
1580417221.33186,-0.946059357595232,-3.81475547417404,4.48615243762879
1580417221.33585,-1.49538414587619,-4.54718852521546,4.91340505073617
1580417221.33985,-1.80056458381023,-5.09651331349664,5.34065766384379
1580417221.34384,-1.67849240863666,-4.7913328755626,5.88998245212474
1580417221.34783,-0.946059357595232,-4.05889982452118,6.31723506523235
1580417221.35183,0.152590218966907,-3.75371938658736,6.92759594110021
1580417221.35582,1.25123979552905,-3.57061112382689,7.35484855420759
1580417221.35982,1.61745632104976,-3.63164721141379,7.59899290455473
1580417221.36381,1.31227588311594,-3.69268329900046,7.90417334248878
1580417221.36781,0.396734569314049,-3.69268329900046,7.90417334248878
1580417221.3718,-0.457770656900948,-3.87579156176093,7.7821011673152
1580417221.37579,-1.0681315327688,-3.93682764934761,7.47692072938116
1580417221.37979,-1.0681315327688,-3.50957503624022,6.92759594110021
1580417221.38378,-0.152590218966907,-3.14335851071951,6.25619897764545
1580417221.38777,1.49538414587619,-2.96025024795904,5.6458381017776
1580417221.39175,3.57061112382689,-2.65506981002522,5.09651331349664
1580417221.39575,5.46272983901736,-2.34988937209118,4.48615243762879
1580417221.39974,7.04966811627378,-2.22781719691761,4.36408026245522
1580417221.40374,7.96520943007545,-2.22781719691761,4.18097199969475
1580417221.40773,8.39246204318306,-2.34988937209118,4.05889982452118
1580417221.41172,8.69764248111687,-3.02128633554594,4.24200808728165
1580417221.41572,8.75867856870377,-3.87579156176093,4.48615243762879
1580417221.41971,8.75867856870377,-4.54718852521546,4.8523689631495
1580417221.42371,8.39246204318306,-5.03547722590974,5.27962157625689
1580417221.4277,8.45349813076973,-5.09651331349664,5.58480201419093
1580417221.43169,8.51453421835663,-4.7913328755626,5.88998245212474
1580417221.43569,8.81971465629044,-4.30304417486832,6.13412680247188
1580417221.43968,9.24696726939806,-3.99786373693451,6.25619897764545
1580417221.44368,9.36903944457163,-3.69268329900046,6.37827115281902
1580417221.44767,9.00282291905091,-3.44853894865332,6.43930724040592
1580417221.45166,8.39246204318306,-3.20439459830618,6.31723506523235
1580417221.45566,7.72106507972831,-2.65506981002522,6.25619897764545
1580417221.45965,6.68345159075307,-2.10574502174404,6.01205462729831
1580417221.46365,5.95101853971164,-1.9226367589838,5.7068741893645
1580417221.46764,5.21858548867021,-1.73952849622333,5.34065766384379
1580417221.47165,4.91340505073617,-1.43434805828952,4.91340505073617
1580417221.47564,4.66926070038903,-1.25123979552905,4.54718852521546
1580417221.47964,4.54718852521546,-1.12916762035547,3.99786373693451
1580417221.48363,4.97444113832307,-1.31227588311594,3.57061112382689
1580417221.48762,5.6458381017776,-1.19020370794237,3.20439459830618
1580417221.49162,6.56137941557949,-0.823987182421661,2.89921416037237
1580417221.49561,6.86655985351331,-0.0305180437933359,2.83817807278547
1580417221.49961,6.68345159075307,0.70191500724809,2.7771419851988
1580417221.5036,5.82894636453807,1.19020370794237,2.7161058976119
1580417221.50759,4.8523689631495,1.19020370794237,2.65506981002522
1580417221.51159,3.81475547417404,1.19020370794237,2.47196154726475
1580417221.51558,2.83817807278547,1.31227588311594,2.28885328450451
1580417221.51958,1.9226367589838,1.43434805828952,1.98367284657047
1580417221.52357,1.12916762035547,1.37331197070262,1.73952849622333
1580417221.52757,0.640878919661191,0.946059357595232,1.49538414587619
1580417221.53156,0.0305180437933359,0.823987182421661,1.31227588311594
1580417221.53555,-0.335698481727377,0.70191500724809,1.0681315327688
1580417221.53955,-0.457770656900948,0.579842832074519,1.0681315327688
1580417221.54354,-0.396734569314049,0.70191500724809,0.946059357595232
1580417221.54753,-0.152590218966907,0.946059357595232,0.640878919661191
1580417221.55151,0.091554131380235,0.823987182421661,0.335698481727377
1580417221.55551,0.213626306553806,0.579842832074519,-0.0305180437933359
1580417221.5595,0.152590218966907,0.457770656900948,-0.457770656900948
1580417221.56349,0.335698481727377,0.396734569314049,-1.0681315327688
1580417221.56749,0.396734569314049,-0.0305180437933359,-1.67849240863666
1580417221.57148,0.640878919661191,-0.579842832074519,-2.16678110933094
1580417221.57548,0.640878919661191,-1.12916762035547,-2.59403372243833
1580417221.57947,0.640878919661191,-1.61745632104976,-2.89921416037237
1580417221.58346,0.51880674448762,-1.9226367589838,-3.14335851071951
1580417221.58746,0.274662394140478,-1.9226367589838,-3.50957503624022
1580417221.59145,0.152590218966907,-1.8616006713969,-3.81475547417404
1580417221.59545,-0.0305180437933359,-2.10574502174404,-4.30304417486832
1580417221.59944,-0.0305180437933359,-2.10574502174404,-4.73029678797593
1580417221.60344,-0.152590218966907,-1.80056458381023,-5.09651331349664
1580417221.60743,-0.274662394140478,-1.37331197070262,-5.27962157625689
1580417221.61142,-0.152590218966907,-0.823987182421661,-5.40169375143046
1580417221.61542,0.152590218966907,-0.51880674448762,-5.40169375143046
1580417221.61941,0.762951094834762,-0.51880674448762,-5.27962157625689
1580417221.6234,1.31227588311594,-0.213626306553806,-5.03547722590974
1580417221.6274,1.8616006713969,-0.152590218966907,-4.91340505073617
1580417221.63141,2.34988937209118,-0.396734569314049,-4.66926070038903
1580417221.6354,2.7161058976119,-0.823987182421661,-4.42511635004189
1580417221.6394,3.02128633554594,-1.12916762035547,-4.05889982452118
1580417221.64339,3.08232242313261,-1.12916762035547,-3.57061112382689
1580417221.64738,3.14335851071951,-0.70191500724809,-3.20439459830618
1580417221.65138,3.02128633554594,-0.335698481727377,-2.7771419851988
1580417221.65537,2.96025024795904,-0.0305180437933359,-2.22781719691761
1580417221.65937,2.83817807278547,-0.0305180437933359,-1.67849240863666
1580417221.66336,2.28885328450451,-0.152590218966907,-0.823987182421661
1580417221.66735,1.67849240863666,-0.152590218966907,-0.213626306553806
1580417221.67135,1.12916762035547,-0.457770656900948,0.335698481727377
1580417221.67534,1.0681315327688,-0.70191500724809,0.70191500724809
1580417221.67934,1.37331197070262,-0.579842832074519,0.640878919661191
1580417221.68333,2.10574502174404,-0.274662394140478,0.457770656900948
1580417221.68732,3.20439459830618,0.0305180437933359,0.274662394140478
1580417221.69132,4.36408026245522,0.152590218966907,-0.0305180437933359
1580417221.69531,5.27962157625689,0.396734569314049,-0.335698481727377
1580417221.69931,5.34065766384379,0.70191500724809,-0.640878919661191
1580417221.7033,5.27962157625689,0.70191500724809,-0.885023270008332
1580417221.70729,5.27962157625689,0.579842832074519,-1.19020370794237
1580417221.71127,5.15754940108332,0.274662394140478,-1.49538414587619
1580417221.71527,5.15754940108332,-0.091554131380235,-1.67849240863666
1580417221.71926,4.73029678797593,-0.152590218966907,-1.55642023346309
1580417221.72325,3.93682764934761,-0.152590218966907,-1.55642023346309
1580417221.72725,2.16678110933094,-0.274662394140478,-1.25123979552905
1580417221.73124,0.0305180437933359,-0.396734569314049,-0.946059357595232
1580417221.73524,-1.73952849622333,-0.885023270008332,-0.762951094834762
1580417221.73923,-2.96025024795904,-1.12916762035547,-0.51880674448762
1580417221.74322,-3.26543068589308,-1.19020370794237,-0.335698481727377
1580417221.74722,-3.14335851071951,-1.25123979552905,-0.152590218966907
1580417221.75121,-2.53299763485165,-1.12916762035547,0.091554131380235
1580417221.75521,-2.16678110933094,-0.946059357595232,0.396734569314049
1580417221.7592,-1.9226367589838,-0.70191500724809,0.946059357595232
1580417221.7632,-1.43434805828952,-0.579842832074519,1.49538414587619
1580417221.76719,-0.762951094834762,-0.274662394140478,1.8616006713969
1580417221.77118,0.213626306553806,-0.091554131380235,2.22781719691761
1580417221.77518,1.31227588311594,0.091554131380235,2.47196154726475
1580417221.77917,2.34988937209118,0.274662394140478,2.59403372243833
1580417221.78316,3.26543068589308,0.335698481727377,2.65506981002522
1580417221.78716,4.18097199969475,0.274662394140478,2.65506981002522
1580417221.79117,5.09651331349664,0.396734569314049,2.7161058976119
1580417221.79516,5.82894636453807,0.335698481727377,2.7161058976119
1580417221.79916,6.19516289005878,0.274662394140478,2.7771419851988
1580417221.80315,6.19516289005878,0.0305180437933359,2.89921416037237
1580417221.80714,5.95101853971164,-0.152590218966907,2.7771419851988
1580417221.81114,5.58480201419093,-0.457770656900948,2.83817807278547
1580417221.81513,5.76791027695117,-0.640878919661191,2.7161058976119
1580417221.81913,6.13412680247188,-0.640878919661191,2.65506981002522
1580417221.82312,5.82894636453807,-0.457770656900948,2.34988937209118
1580417221.82711,5.52376592660403,-0.457770656900948,1.8616006713969
1580417221.83111,4.91340505073617,-0.640878919661191,1.49538414587619
1580417221.8351,4.42511635004189,-0.70191500724809,1.0681315327688
1580417221.8391,4.05889982452118,-0.51880674448762,0.762951094834762
1580417221.84309,3.93682764934761,-0.396734569314049,0.457770656900948
1580417221.84708,4.30304417486832,-0.274662394140478,0.274662394140478
1580417221.85108,4.54718852521546,-0.152590218966907,0.0305180437933359
1580417221.85507,4.66926070038903,0.152590218966907,-0.0305180437933359
1580417221.85907,5.15754940108332,0.213626306553806,-0.091554131380235
1580417221.86306,5.82894636453807,0.091554131380235,-0.274662394140478
1580417221.86705,6.56137941557949,-0.0305180437933359,-0.335698481727377
1580417221.87103,6.37827115281902,-0.213626306553806,-0.396734569314049
1580417221.87503,5.7068741893645,-0.091554131380235,-0.152590218966907
1580417221.87902,4.73029678797593,-0.152590218966907,-0.0305180437933359
1580417221.88301,3.44853894865332,0.091554131380235,0.152590218966907
1580417221.88701,2.59403372243833,0.396734569314049,0.274662394140478
1580417221.891,2.41092545967808,0.946059357595232,0.213626306553806
1580417221.895,2.53299763485165,1.31227588311594,0.0305180437933359
1580417221.89899,2.7771419851988,1.55642023346309,-0.396734569314049
1580417221.90298,2.7161058976119,1.55642023346309,-0.70191500724809
1580417221.90698,2.28885328450451,1.67849240863666,-1.0070954451819
1580417221.91097,1.67849240863666,1.55642023346309,-1.37331197070262
1580417221.91497,1.43434805828952,1.55642023346309,-1.8616006713969
1580417221.91896,1.55642023346309,1.73952849622333,-2.28885328450451
1580417221.92295,1.80056458381023,1.73952849622333,-2.7161058976119
1580417221.92695,2.16678110933094,1.67849240863666,-3.02128633554594
1580417221.93094,2.22781719691761,1.61745632104976,-3.32646677347975
1580417221.93494,1.67849240863666,1.55642023346309,-3.38750286106665
1580417221.93893,0.946059357595232,1.67849240863666,-3.20439459830618
1580417221.94292,-0.0305180437933359,1.31227588311594,-2.96025024795904
1580417221.94692,-1.0681315327688,0.823987182421661,-2.28885328450451
1580417221.95093,-2.04470893415737,0.51880674448762,-1.55642023346309
1580417221.95492,-2.41092545967808,-0.091554131380235,-0.640878919661191
1580417221.95891,-2.41092545967808,-0.396734569314049,0.0305180437933359
1580417221.96291,-2.7161058976119,-0.457770656900948,0.640878919661191
1580417221.9669,-3.50957503624022,-0.274662394140478,1.19020370794237
1580417221.9709,-4.7913328755626,-0.396734569314049,1.49538414587619
1580417221.97489,-6.07309071488521,-0.579842832074519,1.80056458381023
1580417221.97888,-6.74448767833974,-0.823987182421661,1.9226367589838
1580417221.98288,-6.86655985351331,-1.25123979552905,1.98367284657047
1580417221.98687,-6.07309071488521,-1.37331197070262,1.98367284657047
1580417221.99087,-4.66926070038903,-1.19020370794237,1.8616006713969
1580417221.99486,-2.96025024795904,-1.0681315327688,1.73952849622333
1580417221.99885,-1.31227588311594,-0.823987182421661,1.31227588311594
1580417222.00285,-0.0305180437933359,-0.457770656900948,0.640878919661191
1580417222.00684,0.335698481727377,0.091554131380235,-0.091554131380235
1580417222.01084,0.457770656900948,0.51880674448762,-0.946059357595232
1580417222.01483,0.457770656900948,0.823987182421661,-2.16678110933094
1580417222.01882,0.457770656900948,0.640878919661191,-2.96025024795904
1580417222.02282,0.823987182421661,0.091554131380235,-3.75371938658736
1580417222.02681,1.25123979552905,-0.152590218966907,-4.30304417486832
1580417222.03079,1.31227588311594,-0.0305180437933359,-4.60822461280236
1580417222.03479,1.43434805828952,0.152590218966907,-4.91340505073617
1580417222.03878,1.61745632104976,0.457770656900948,-5.03547722590974
1580417222.04277,1.8616006713969,0.396734569314049,-5.09651331349664
1580417222.04677,2.28885328450451,0.0305180437933359,-5.09651331349664
1580417222.05076,2.47196154726475,-0.152590218966907,-5.03547722590974
1580417222.05476,2.28885328450451,-0.396734569314049,-4.91340505073617
1580417222.05875,1.8616006713969,-0.457770656900948,-4.7913328755626
1580417222.06274,1.12916762035547,-0.335698481727377,-4.48615243762879
1580417222.06674,0.51880674448762,-0.213626306553806,-4.05889982452118
1580417222.07073,0.274662394140478,-0.274662394140478,-3.50957503624022
1580417222.07473,0.213626306553806,-0.396734569314049,-2.96025024795904
1580417222.07872,0.51880674448762,-0.396734569314049,-2.59403372243833
1580417222.08271,0.946059357595232,-0.0305180437933359,-2.04470893415737
1580417222.08671,1.12916762035547,0.213626306553806,-1.67849240863666
1580417222.0907,1.31227588311594,0.396734569314049,-1.25123979552905
1580417222.0947,1.43434805828952,0.213626306553806,-0.762951094834762
1580417222.09869,1.49538414587619,0.396734569314049,-0.396734569314049
1580417222.10268,1.19020370794237,0.396734569314049,0.0305180437933359
1580417222.10668,0.457770656900948,0.274662394140478,0.762951094834762
1580417222.11069,-0.51880674448762,0.274662394140478,1.0070954451819
1580417222.11468,-1.0681315327688,0.396734569314049,1.25123979552905
1580417222.11867,-1.61745632104976,0.457770656900948,1.37331197070262
1580417222.12267,-2.22781719691761,0.51880674448762,1.37331197070262
1580417222.12666,-2.89921416037237,0.213626306553806,1.25123979552905
1580417222.13066,-3.32646677347975,-0.213626306553806,1.0070954451819
1580417222.13465,-3.44853894865332,-0.762951094834762,0.70191500724809
1580417222.13864,-3.32646677347975,-1.0070954451819,0.396734569314049
1580417222.14264,-2.7161058976119,-0.640878919661191,-0.091554131380235
1580417222.14663,-1.98367284657047,-0.274662394140478,-0.579842832074519
1580417222.15063,-1.12916762035547,-0.0305180437933359,-1.12916762035547
1580417222.15462,-0.0305180437933359,-0.274662394140478,-1.61745632104976
1580417222.15861,1.37331197070262,-0.396734569314049,-2.04470893415737
1580417222.16261,3.57061112382689,-0.457770656900948,-2.47196154726475
1580417222.1666,6.07309071488521,-0.457770656900948,-2.83817807278547
1580417222.1706,7.7821011673152,-0.335698481727377,-2.83817807278547
1580417222.17459,8.27038986800949,-0.152590218966907,-2.83817807278547
1580417222.17858,7.72106507972831,0.274662394140478,-2.7771419851988
1580417222.18258,7.35484855420759,0.396734569314049,-2.41092545967808
1580417222.18657,7.59899290455473,0.335698481727377,-2.16678110933094
1580417222.19055,8.27038986800949,0.396734569314049,-2.04470893415737
1580417222.19455,9.12489509422448,0.579842832074519,-1.8616006713969
1580417222.19854,9.67421988250544,0.70191500724809,-1.61745632104976
1580417222.20253,9.91836423285258,1.0070954451819,-1.61745632104976
1580417222.20653,9.97940032043948,1.25123979552905,-1.67849240863666
1580417222.21052,10.2235446707866,1.37331197070262,-1.98367284657047
1580417222.21451,10.4066529335469,1.25123979552905,-2.28885328450451
1580417222.21851,10.1014724956131,1.0070954451819,-2.89921416037237
1580417222.2225,9.73525597009234,0.640878919661191,-3.32646677347975
1580417222.2265,9.30800335698473,0.457770656900948,-3.69268329900046
1580417222.23049,7.96520943007545,0.457770656900948,-3.93682764934761
1580417222.23448,6.01205462729831,0.457770656900948,-4.11993591210808
1580417222.23848,4.30304417486832,0.51880674448762,-4.73029678797593
1580417222.24247,2.89921416037237,0.762951094834762,-5.15754940108332
1580417222.24647,1.80056458381023,0.946059357595232,-5.46272983901736
1580417222.25046,0.51880674448762,1.19020370794237,-5.58480201419093
1580417222.25445,-0.885023270008332,1.25123979552905,-5.7068741893645
1580417222.25845,-2.04470893415737,1.31227588311594,-5.6458381017776
1580417222.26244,-3.57061112382689,1.49538414587619,-5.40169375143046
1580417222.26644,-5.03547722590974,2.04470893415737,-5.21858548867021
1580417222.27045,-5.76791027695117,2.47196154726475,-4.8523689631495
1580417222.27444,-6.19516289005878,2.7771419851988,-4.30304417486832
1580417222.27843,-6.37827115281902,3.02128633554594,-3.93682764934761
1580417222.28243,-6.5003433279926,2.83817807278547,-3.50957503624022
1580417222.28642,-6.68345159075307,2.65506981002522,-3.20439459830618
1580417222.29042,-6.92759594110021,2.16678110933094,-3.08232242313261
1580417222.29441,-6.74448767833974,1.55642023346309,-3.08232242313261
1580417222.2984,-6.01205462729831,1.19020370794237,-3.08232242313261
1580417222.3024,-4.7913328755626,0.885023270008332,-2.7771419851988
1580417222.30639,-3.63164721141379,0.762951094834762,-2.59403372243833
1580417222.31039,-2.53299763485165,0.823987182421661,-2.53299763485165
1580417222.31438,-1.19020370794237,1.0070954451819,-2.47196154726475
1580417222.31837,0.457770656900948,1.31227588311594,-2.53299763485165
1580417222.32237,2.7771419851988,1.61745632104976,-2.83817807278547
1580417222.32636,5.40169375143046,2.28885328450451,-3.14335851071951
1580417222.33036,7.29381246662092,2.53299763485165,-3.63164721141379
1580417222.33435,9.00282291905091,2.04470893415737,-4.05889982452118
1580417222.33834,10.5287251087204,1.61745632104976,-4.24200808728165
1580417222.34234,11.6273746852826,1.37331197070262,-4.05889982452118
1580417222.34633,12.1156633859769,1.37331197070262,-3.57061112382689
1580417222.35031,12.4208438239109,1.49538414587619,-2.83817807278547
1580417222.35431,12.4818799114976,1.25123979552905,-1.67849240863666
1580417222.3583,12.2377355611504,1.0681315327688,-0.640878919661191
1580417222.36229,11.3832303349354,0.70191500724809,0.335698481727377
1580417222.36629,10.0404364080262,0.335698481727377,1.12916762035547
1580417222.37028,8.45349813076973,-0.0305180437933359,1.80056458381023
1580417222.37427,7.66002899214163,-0.152590218966907,2.41092545967808
1580417222.37827,7.41588464179449,-0.335698481727377,3.02128633554594
1580417222.38226,7.29381246662092,-0.579842832074519,3.63164721141379
1580417222.38626,6.92759594110021,-1.0070954451819,4.42511635004189
1580417222.39025,5.76791027695117,-1.19020370794237,5.15754940108332
1580417222.39424,3.99786373693451,-1.37331197070262,5.76791027695117
1580417222.39824,2.16678110933094,-1.55642023346309,6.37827115281902
1580417222.40223,0.396734569314049,-1.67849240863666,6.86655985351331
1580417222.40623,-0.885023270008332,-1.61745632104976,7.17174029144735
1580417222.41022,-1.61745632104976,-1.55642023346309,7.04966811627378
1580417222.41421,-1.61745632104976,-1.55642023346309,6.68345159075307
1580417222.41821,-1.0070954451819,-1.43434805828952,6.31723506523235
1580417222.4222,-0.335698481727377,-1.37331197070262,5.76791027695117
1580417222.4262,0.457770656900948,-1.0070954451819,5.09651331349664
1580417222.43021,1.49538414587619,-0.946059357595232,4.24200808728165
1580417222.4342,2.53299763485165,-1.12916762035547,3.32646677347975
1580417222.43819,3.26543068589308,-1.37331197070262,2.65506981002522
1580417222.44219,3.26543068589308,-1.73952849622333,1.80056458381023
1580417222.44618,2.7161058976119,-2.04470893415737,1.19020370794237
1580417222.45018,1.73952849622333,-2.16678110933094,0.70191500724809
1580417222.45417,0.823987182421661,-2.47196154726475,0.274662394140478
1580417222.45816,-0.213626306553806,-2.65506981002522,-0.0305180437933359
1580417222.46216,-0.762951094834762,-2.7771419851988,-0.152590218966907
1580417222.46615,-0.885023270008332,-2.7771419851988,-0.213626306553806
1580417222.47015,-0.640878919661191,-2.47196154726475,0.091554131380235
1580417222.47414,0.274662394140478,-2.41092545967808,0.457770656900948
1580417222.47813,1.49538414587619,-2.04470893415737,0.762951094834762
1580417222.48213,2.41092545967808,-1.49538414587619,1.12916762035547
1580417222.48612,3.38750286106665,-1.37331197070262,1.43434805828952
1580417222.49012,3.93682764934761,-1.31227588311594,1.67849240863666
1580417222.49411,4.7913328755626,-0.762951094834762,1.9226367589838
1580417222.4981,5.88998245212474,0.274662394140478,2.10574502174404
1580417222.5021,6.5003433279926,0.640878919661191,2.41092545967808
1580417222.50609,5.95101853971164,0.335698481727377,2.65506981002522
1580417222.51007,4.66926070038903,-0.335698481727377,2.83817807278547
1580417222.51406,3.32646677347975,-0.946059357595232,3.08232242313261
1580417222.51806,2.34988937209118,-1.12916762035547,3.02128633554594
1580417222.52205,1.98367284657047,-0.885023270008332,2.83817807278547
1580417222.52605,1.9226367589838,-0.396734569314049,2.53299763485165
1580417222.53004,2.16678110933094,-0.0305180437933359,1.98367284657047
1580417222.53403,2.47196154726475,-0.0305180437933359,1.55642023346309
1580417222.53803,2.7771419851988,-0.152590218966907,1.19020370794237
1580417222.54202,2.96025024795904,-0.335698481727377,0.640878919661191
1580417222.54602,3.32646677347975,-0.640878919661191,0.213626306553806
1580417222.55001,3.93682764934761,-0.640878919661191,-0.213626306553806
1580417222.554,4.66926070038903,-0.51880674448762,-0.70191500724809
1580417222.558,5.40169375143046,-0.640878919661191,-1.25123979552905
1580417222.56199,5.95101853971164,-0.946059357595232,-1.19020370794237
1580417222.56599,6.01205462729831,-1.43434805828952,-1.31227588311594
1580417222.56998,5.46272983901736,-1.67849240863666,-1.19020370794237
1580417222.57397,4.66926070038903,-1.73952849622333,-0.885023270008332
1580417222.57797,3.75371938658736,-1.43434805828952,-0.51880674448762
1580417222.58196,2.65506981002522,-0.823987182421661,0.0305180437933359
1580417222.58596,1.9226367589838,-0.70191500724809,0.885023270008332
1580417222.58996,2.16678110933094,-0.762951094834762,1.61745632104976
1580417222.59396,2.89921416037237,-1.0681315327688,2.16678110933094
1580417222.59795,4.05889982452118,-0.885023270008332,2.65506981002522
1580417222.60195,5.21858548867021,-0.762951094834762,2.89921416037237
1580417222.60594,5.88998245212474,-0.579842832074519,3.14335851071951
1580417222.60994,5.58480201419093,-0.762951094834762,3.38750286106665
1580417222.61393,5.03547722590974,-1.0681315327688,3.81475547417404
1580417222.61792,4.60822461280236,-1.0681315327688,4.05889982452118
1580417222.62192,4.30304417486832,-1.25123979552905,4.24200808728165
1580417222.62591,4.05889982452118,-1.12916762035547,4.18097199969475
1580417222.6299,3.81475547417404,-0.70191500724809,4.05889982452118
1580417222.6339,3.20439459830618,-0.396734569314049,3.81475547417404
1580417222.63789,2.89921416037237,-0.396734569314049,3.20439459830618
1580417222.64189,3.02128633554594,-0.274662394140478,2.59403372243833
1580417222.64588,2.65506981002522,0.335698481727377,2.10574502174404
1580417222.64987,1.61745632104976,0.51880674448762,1.49538414587619
1580417222.65387,-0.091554131380235,0.70191500724809,0.70191500724809
1580417222.65786,-2.04470893415737,1.0070954451819,-0.152590218966907
1580417222.66186,-3.44853894865332,1.0070954451819,-0.946059357595232
1580417222.66585,-4.30304417486832,0.823987182421661,-1.80056458381023
1580417222.66983,-4.97444113832307,0.640878919661191,-2.65506981002522
1580417222.67382,-5.46272983901736,0.579842832074519,-3.38750286106665
1580417222.67782,-5.6458381017776,1.0070954451819,-3.75371938658736
1580417222.68181,-5.27962157625689,1.31227588311594,-4.18097199969475
1580417222.68581,-4.48615243762879,1.55642023346309,-4.42511635004189
1580417222.6898,-3.38750286106665,1.67849240863666,-4.30304417486832
1580417222.69379,-2.22781719691761,1.9226367589838,-4.05889982452118
1580417222.69779,-1.43434805828952,1.80056458381023,-3.63164721141379
1580417222.70178,-0.946059357595232,1.67849240863666,-3.26543068589308
1580417222.70578,-0.579842832074519,1.19020370794237,-2.53299763485165
1580417222.70977,-0.396734569314049,0.457770656900948,-1.98367284657047
1580417222.71376,0.0305180437933359,0.0305180437933359,-1.37331197070262
1580417222.71776,-0.0305180437933359,-0.579842832074519,-0.457770656900948
1580417222.72175,-0.70191500724809,-0.946059357595232,0.396734569314049
1580417222.72575,-1.49538414587619,-1.12916762035547,1.12916762035547
1580417222.72974,-2.04470893415737,-1.55642023346309,1.73952849622333
1580417222.73373,-2.34988937209118,-1.67849240863666,2.41092545967808
1580417222.73773,-2.04470893415737,-1.61745632104976,2.59403372243833
1580417222.74172,-1.19020370794237,-1.37331197070262,2.59403372243833
1580417222.74572,-0.396734569314049,-1.19020370794237,2.53299763485165
1580417222.74972,0.274662394140478,-0.762951094834762,2.41092545967808
1580417222.75372,0.823987182421661,-0.70191500724809,2.04470893415737
1580417222.75771,1.73952849622333,-0.640878919661191,1.61745632104976
1580417222.76171,2.59403372243833,-0.396734569314049,1.0681315327688
1580417222.7657,3.14335851071951,0.091554131380235,0.70191500724809
1580417222.7697,3.44853894865332,0.274662394140478,-0.0305180437933359
1580417222.77369,3.50957503624022,0.396734569314049,-0.823987182421661
1580417222.77768,3.93682764934761,0.823987182421661,-1.73952849622333
1580417222.78168,4.42511635004189,1.0070954451819,-2.65506981002522
1580417222.78567,4.91340505073617,1.0070954451819,-3.38750286106665
1580417222.78966,5.27962157625689,0.823987182421661,-3.93682764934761
1580417222.79366,5.7068741893645,0.70191500724809,-4.36408026245522
1580417222.79765,6.01205462729831,0.213626306553806,-4.54718852521546
1580417222.80165,6.37827115281902,0.091554131380235,-4.60822461280236
1580417222.80564,6.86655985351331,0.213626306553806,-4.24200808728165
1580417222.80963,7.29381246662092,0.152590218966907,-3.99786373693451
1580417222.81363,7.90417334248878,0.0305180437933359,-3.69268329900046
1580417222.81762,8.45349813076973,0.091554131380235,-3.32646677347975
1580417222.82162,8.6366063935302,0.396734569314049,-2.7161058976119
1580417222.82561,8.6366063935302,0.579842832074519,-1.98367284657047
1580417222.82959,8.5755703059433,0.51880674448762,-1.0070954451819
1580417222.83358,8.39246204318306,0.70191500724809,-0.213626306553806
1580417222.83758,7.84313725490188,0.762951094834762,0.640878919661191
1580417222.84157,7.47692072938116,0.640878919661191,1.19020370794237
1580417222.84556,6.98863202868688,0.457770656900948,1.49538414587619
1580417222.84956,6.19516289005878,0.396734569314049,1.67849240863666
1580417222.85355,4.97444113832307,0.335698481727377,1.98367284657047
1580417222.85755,3.26543068589308,0.213626306553806,2.22781719691761
1580417222.86154,1.43434805828952,-0.0305180437933359,2.47196154726475
1580417222.86554,0.091554131380235,-0.274662394140478,2.47196154726475
1580417222.86953,-1.25123979552905,-0.152590218966907,2.41092545967808
1580417222.87352,-1.8616006713969,-0.213626306553806,2.47196154726475
1580417222.87752,-2.22781719691761,-0.152590218966907,2.41092545967808
1580417222.88151,-2.53299763485165,-0.213626306553806,2.34988937209118
1580417222.8855,-2.53299763485165,-0.0305180437933359,1.9226367589838
1580417222.8895,-1.9226367589838,0.091554131380235,1.67849240863666
1580417222.89349,-1.49538414587619,0.396734569314049,1.19020370794237
1580417222.89749,-1.12916762035547,0.274662394140478,0.946059357595232
1580417222.90148,-1.19020370794237,-0.152590218966907,0.640878919661191
1580417222.90547,-1.25123979552905,-0.213626306553806,0.396734569314049
1580417222.90948,-1.19020370794237,-0.457770656900948,0.213626306553806
1580417222.91348,-0.885023270008332,-0.457770656900948,-0.213626306553806
1580417222.91747,-0.213626306553806,-0.213626306553806,-0.70191500724809
1580417222.92147,0.762951094834762,-0.213626306553806,-1.25123979552905
1580417222.92546,2.16678110933094,-0.152590218966907,-1.80056458381023
1580417222.92945,3.93682764934761,0.335698481727377,-2.04470893415737
1580417222.93345,5.95101853971164,0.823987182421661,-2.59403372243833
1580417222.93744,8.6366063935302,1.12916762035547,-3.08232242313261
1580417222.94144,11.2611581597619,1.49538414587619,-3.57061112382689
1580417222.94543,13.5805294880597,1.80056458381023,-3.99786373693451
1580417222.94942,15.0453955901426,2.04470893415737,-4.24200808728165
1580417222.95342,15.228503852903,1.98367284657047,-4.54718852521546
1580417222.95741,14.1908903639276,1.61745632104976,-4.66926070038903
1580417222.96141,12.6039520866711,1.12916762035547,-4.8523689631495
1580417222.9654,10.2235446707866,0.51880674448762,-4.73029678797593
1580417222.96939,7.29381246662092,-0.640878919661191,-4.42511635004189
1580417222.97339,4.18097199969475,-1.80056458381023,-4.24200808728165
1580417222.97738,1.19020370794237,-2.41092545967808,-3.87579156176093
1580417222.98138,-1.55642023346309,-3.02128633554594,-3.38750286106665
1580417222.98537,-3.69268329900046,-2.89921416037237,-2.7771419851988
1580417222.98935,-5.40169375143046,-2.7161058976119,-2.10574502174404
1580417222.99334,-6.68345159075307,-2.59403372243833,-1.49538414587619
1580417222.99734,-7.29381246662092,-1.8616006713969,-1.0681315327688
1580417223.00133,-7.35484855420759,-1.67849240863666,-0.823987182421661
1580417223.00532,-7.35484855420759,-1.67849240863666,-0.946059357595232
1580417223.00932,-7.17174029144735,-1.73952849622333,-1.0681315327688
1580417223.01331,-6.31723506523235,-1.37331197070262,-1.25123979552905
1580417223.01731,-4.8523689631495,-0.946059357595232,-1.55642023346309
1580417223.0213,-3.50957503624022,-0.335698481727377,-1.8616006713969
1580417223.0253,-2.65506981002522,0.457770656900948,-2.16678110933094
1580417223.02929,-1.9226367589838,1.0681315327688,-2.59403372243833
1580417223.03328,-0.885023270008332,1.55642023346309,-3.20439459830618
1580417223.03728,0.396734569314049,1.61745632104976,-3.75371938658736
1580417223.04127,2.10574502174404,1.49538414587619,-4.24200808728165
1580417223.04526,3.93682764934761,1.37331197070262,-4.7913328755626
1580417223.04926,5.46272983901736,1.43434805828952,-5.21858548867021
1580417223.05325,6.80552376592664,1.67849240863666,-5.27962157625689
1580417223.05725,7.53795681696806,1.8616006713969,-4.8523689631495
1580417223.06124,7.96520943007545,2.28885328450451,-4.54718852521546
1580417223.06523,8.39246204318306,2.59403372243833,-3.81475547417404
1580417223.06924,9.00282291905091,2.53299763485165,-2.96025024795904
1580417223.07324,9.12489509422448,2.65506981002522,-1.9226367589838
1580417223.07723,8.81971465629044,2.7771419851988,-1.0070954451819
1580417223.08123,8.02624551766235,3.26543068589308,-0.396734569314049
1580417223.08522,7.04966811627378,3.57061112382689,0.274662394140478
1580417223.08921,6.62241550316617,3.69268329900046,0.70191500724809
1580417223.09321,6.5003433279926,3.81475547417404,0.885023270008332
1580417223.0972,6.56137941557949,3.26543068589308,0.823987182421661
1580417223.1012,6.5003433279926,2.65506981002522,0.640878919661191
1580417223.10519,6.19516289005878,2.22781719691761,0.640878919661191
1580417223.10918,6.19516289005878,1.8616006713969,0.70191500724809
1580417223.11318,5.6458381017776,1.55642023346309,1.12916762035547
1580417223.11717,4.60822461280236,1.55642023346309,1.55642023346309
1580417223.12117,2.83817807278547,1.12916762035547,2.28885328450451
1580417223.12516,0.579842832074519,0.70191500724809,3.02128633554594
1580417223.12915,-1.37331197070262,0.274662394140478,3.50957503624022
1580417223.13315,-3.14335851071951,-0.152590218966907,3.87579156176093
1580417223.13714,-4.60822461280236,-0.51880674448762,3.81475547417404
1580417223.14114,-6.07309071488521,-1.0070954451819,3.63164721141379
1580417223.14513,-7.66002899214163,-1.37331197070262,3.44853894865332
1580417223.14911,-8.94178683146401,-1.55642023346309,3.20439459830618
1580417223.1531,-9.61318379491877,-1.80056458381023,3.20439459830618
1580417223.1571,-9.73525597009234,-1.98367284657047,2.96025024795904
1580417223.16109,-9.18593118181116,-2.16678110933094,2.59403372243833
1580417223.16508,-8.39246204318306,-2.10574502174404,2.22781719691761
1580417223.16908,-7.29381246662092,-1.80056458381023,1.73952849622333
1580417223.17307,-5.7068741893645,-1.31227588311594,1.0681315327688
1580417223.17707,-3.38750286106665,-0.640878919661191,0.335698481727377
1580417223.18106,-0.762951094834762,-0.152590218966907,-0.091554131380235
1580417223.18505,1.9226367589838,0.0305180437933359,-0.640878919661191
1580417223.18905,3.99786373693451,0.335698481727377,-1.12916762035547
1580417223.19304,5.58480201419093,0.335698481727377,-1.55642023346309
1580417223.19704,6.92759594110021,0.396734569314049,-1.67849240863666
1580417223.20103,8.20935378042259,0.091554131380235,-2.10574502174404
1580417223.20502,9.55214770733187,-0.335698481727377,-2.41092545967808
1580417223.20902,10.7118333714809,-0.579842832074519,-2.7771419851988
1580417223.21301,11.0780498970016,-0.640878919661191,-2.89921416037237
1580417223.21701,11.0780498970016,-0.579842832074519,-2.83817807278547
1580417223.221,10.955977721828,0.335698481727377,-2.7771419851988
1580417223.22499,10.3456168459602,1.25123979552905,-2.59403372243833
1580417223.229,9.4911116197452,2.04470893415737,-2.53299763485165
1580417223.233,8.6366063935302,2.34988937209118,-2.41092545967808
1580417223.23699,7.90417334248878,2.04470893415737,-2.34988937209118
1580417223.24098,6.98863202868688,1.73952849622333,-2.16678110933094
1580417223.24498,5.95101853971164,1.49538414587619,-2.10574502174404
1580417223.24897,4.7913328755626,0.823987182421661,-2.10574502174404
1580417223.25297,3.75371938658736,0.51880674448762,-1.9226367589838
1580417223.25696,2.65506981002522,0.0305180437933359,-1.73952849622333
1580417223.26095,1.73952849622333,-0.762951094834762,-1.19020370794237
1580417223.26495,0.51880674448762,-1.43434805828952,-0.70191500724809
1580417223.26894,-1.43434805828952,-1.73952849622333,-0.0305180437933359
1580417223.27294,-3.69268329900046,-1.80056458381023,0.885023270008332
1580417223.27693,-6.25619897764545,-2.04470893415737,1.55642023346309
1580417223.28093,-8.88075074387734,-2.34988937209118,2.16678110933094
1580417223.28492,-10.955977721828,-2.89921416037237,3.02128633554594
1580417223.28891,-12.7260242618447,-3.57061112382689,3.57061112382689
1580417223.29291,-13.6415655756466,-4.11993591210808,3.93682764934761
1580417223.2969,-14.1298542763409,-4.48615243762879,4.05889982452118
1580417223.30089,-14.8622873273823,-4.66926070038903,3.81475547417404
1580417223.30489,-15.1064316777295,-4.48615243762879,3.63164721141379
1580417223.30887,-15.0453955901426,-4.11993591210808,3.50957503624022
1580417223.31286,-14.3129625391011,-3.63164721141379,2.96025024795904
1580417223.31686,-12.2377355611504,-3.08232242313261,2.53299763485165
1580417223.32085,-8.75867856870377,-2.47196154726475,2.04470893415737
1580417223.32484,-4.42511635004189,-1.61745632104976,1.61745632104976
1580417223.32884,0.274662394140478,-0.885023270008332,1.0070954451819
1580417223.33283,5.09651331349664,-0.152590218966907,0.579842832074519
1580417223.33683,9.30800335698473,0.396734569314049,0.213626306553806
1580417223.34082,12.5429159990845,0.885023270008332,0.091554131380235
1580417223.34481,14.7402151522087,1.19020370794237,0.213626306553806
1580417223.34881,15.7167925535973,0.946059357595232,0.70191500724809
1580417223.3528,15.5947203784237,0.51880674448762,1.25123979552905
1580417223.3568,14.5571068894483,0.274662394140478,2.04470893415737
1580417223.36079,13.3974212252995,-0.152590218966907,2.7771419851988
1580417223.36478,12.1156633859769,-0.640878919661191,3.50957503624022
1580417223.36878,11.0780498970016,-0.70191500724809,3.99786373693451
1580417223.37277,9.97940032043948,-0.762951094834762,4.42511635004189
1580417223.37677,8.94178683146401,-0.823987182421661,4.66926070038903
1580417223.38076,8.14831769283592,-0.762951094834762,4.73029678797593
1580417223.38475,7.41588464179449,-0.762951094834762,4.54718852521546
1580417223.38876,6.92759594110021,-0.762951094834762,4.48615243762879
1580417223.39276,6.07309071488521,-0.70191500724809,4.48615243762879
1580417223.39675,5.15754940108332,-0.762951094834762,4.66926070038903
1580417223.40074,4.05889982452118,-1.0070954451819,4.66926070038903
1580417223.40474,2.83817807278547,-1.0681315327688,4.54718852521546
1580417223.40873,1.49538414587619,-1.19020370794237,4.48615243762879
1580417223.41273,0.457770656900948,-1.25123979552905,4.36408026245522
1580417223.41672,-0.213626306553806,-1.25123979552905,4.18097199969475
1580417223.42071,-1.67849240863666,-1.12916762035547,3.93682764934761
1580417223.42471,-3.44853894865332,-1.73952849622333,3.75371938658736
1580417223.4287,-5.40169375143046,-2.47196154726475,3.69268329900046
1580417223.4327,-6.92759594110021,-3.14335851071951,3.63164721141379
1580417223.43669,-7.72106507972831,-3.32646677347975,3.69268329900046
1580417223.44069,-8.02624551766235,-3.26543068589308,3.50957503624022
1580417223.44468,-8.51453421835663,-3.20439459830618,3.38750286106665
1580417223.44867,-8.94178683146401,-3.14335851071951,3.20439459830618
1580417223.45267,-9.36903944457163,-2.83817807278547,3.14335851071951
1580417223.45666,-9.4300755321583,-2.41092545967808,2.83817807278547
1580417223.46065,-8.88075074387734,-1.8616006713969,2.53299763485165
1580417223.46465,-7.35484855420759,-1.12916762035547,2.28885328450451
1580417223.46863,-4.60822461280236,-0.274662394140478,1.9226367589838
1580417223.47262,-1.55642023346309,0.51880674448762,1.61745632104976
1580417223.47662,1.67849240863666,1.12916762035547,1.19020370794237
1580417223.48061,4.97444113832307,1.80056458381023,0.762951094834762
1580417223.4846,8.02624551766235,2.10574502174404,0.213626306553806
1580417223.4886,10.8949416342411,2.34988937209118,-0.213626306553806
1580417223.49259,13.3974212252995,2.53299763485165,-0.70191500724809
1580417223.49658,15.1064316777295,2.34988937209118,-1.12916762035547
1580417223.50058,15.8999008163576,1.98367284657047,-1.43434805828952
1580417223.50457,16.1440451667047,1.80056458381023,-1.80056458381023
1580417223.50857,16.2050812542916,1.31227588311594,-1.9226367589838
1580417223.51256,16.3271534294652,0.640878919661191,-1.9226367589838
1580417223.51655,15.5947203784237,0.213626306553806,-1.98367284657047
1580417223.52055,14.1908903639276,-0.152590218966907,-1.73952849622333
1580417223.52454,12.6039520866711,-0.579842832074519,-1.73952849622333
1580417223.52854,10.8339055466545,-0.885023270008332,-1.73952849622333
1580417223.53253,8.88075074387734,-1.0681315327688,-1.61745632104976
1580417223.53653,6.43930724040592,-1.19020370794237,-1.43434805828952
1580417223.54052,3.14335851071951,-1.0681315327688,-1.25123979552905
1580417223.54451,0.152590218966907,-1.25123979552905,-1.12916762035547
1580417223.54852,-1.98367284657047,-1.9226367589838,-1.19020370794237
1580417223.55252,-4.60822461280236,-1.98367284657047,-1.12916762035547
1580417223.55651,-6.5003433279926,-1.9226367589838,-1.19020370794237
1580417223.5605,-7.59899290455473,-1.98367284657047,-1.25123979552905
1580417223.5645,-8.02624551766235,-1.67849240863666,-1.37331197070262
1580417223.56849,-7.66002899214163,-1.61745632104976,-1.67849240863666
1580417223.57249,-6.92759594110021,-1.43434805828952,-2.22781719691761
1580417223.57648,-6.13412680247188,-1.19020370794237,-2.47196154726475
1580417223.58047,-4.91340505073617,-0.823987182421661,-2.83817807278547
1580417223.58447,-3.63164721141379,-0.335698481727377,-2.96025024795904
1580417223.58846,-2.34988937209118,0.335698481727377,-2.96025024795904
1580417223.59246,-1.43434805828952,0.946059357595232,-2.7771419851988
1580417223.59645,-0.762951094834762,1.25123979552905,-2.47196154726475
1580417223.60044,0.152590218966907,1.25123979552905,-2.10574502174404
1580417223.60444,1.43434805828952,1.49538414587619,-1.55642023346309
1580417223.60843,3.08232242313261,1.73952849622333,-1.12916762035547
1580417223.61243,4.48615243762879,1.73952849622333,-0.762951094834762
1580417223.61642,5.58480201419093,1.55642023346309,-0.274662394140478
1580417223.62041,6.31723506523235,1.31227588311594,0.091554131380235
1580417223.62441,6.62241550316617,1.25123979552905,0.213626306553806
1580417223.62842,6.74448767833974,1.0681315327688,0.274662394140478
1580417223.63241,7.04966811627378,1.0070954451819,0.0305180437933359
1580417223.63641,8.08728160524902,1.0681315327688,-0.335698481727377
1580417223.6404,9.18593118181116,1.25123979552905,-0.640878919661191
1580417223.64439,10.2845807583733,1.31227588311594,-0.885023270008332
1580417223.64839,10.3456168459602,1.19020370794237,-1.12916762035547
1580417223.65238,9.91836423285258,1.31227588311594,-1.19020370794237
1580417223.65638,9.4300755321583,1.31227588311594,-1.19020370794237
1580417223.66037,9.30800335698473,1.37331197070262,-1.31227588311594
1580417223.66436,9.61318379491877,1.49538414587619,-1.49538414587619
1580417223.66836,10.4066529335469,1.55642023346309,-1.67849240863666
1580417223.67235,10.8339055466545,1.49538414587619,-1.73952849622333
1580417223.67634,10.3456168459602,1.43434805828952,-1.73952849622333
1580417223.68034,8.81971465629044,1.25123979552905,-1.55642023346309
1580417223.68433,6.62241550316617,0.70191500724809,-1.43434805828952
1580417223.68833,4.18097199969475,0.213626306553806,-1.25123979552905
1580417223.69232,1.8616006713969,-0.0305180437933359,-1.0681315327688
1580417223.69631,-0.396734569314049,-0.274662394140478,-0.762951094834762
1580417223.70031,-2.34988937209118,-0.335698481727377,-0.640878919661191
1580417223.7043,-4.05889982452118,-0.396734569314049,-0.51880674448762
1580417223.70828,-5.21858548867021,-0.335698481727377,-0.213626306553806
