Timestamp_seconds,Accel_X_g,Accel_Y_g,Accel_Z_g
1580417216.86989,0.871351186388953,-0.0612802319371326,-0.478278782330053
1580417216.90157,0.86988632028687,-0.067139696345464,-0.478767071030747
1580417216.93325,0.862561989776456,-0.0666514076447697,-0.49390402075227
1580417216.96494,0.877698939497979,-0.070557717250324,-0.487556267643244
1580417216.99662,0.870374608987564,-0.0397955291065841,-0.49732204165713
1580417217.0283,0.874280918593119,-0.0329594872968642,-0.482673380636301
1580417217.05998,0.896742198825056,-0.044678416113527,-0.510505836575875
1580417217.09167,0.869398031586176,-0.060303654535744,-0.49732204165713
1580417217.12335,0.857679102769513,-0.0720225833524069,-0.485603112840467
1580417217.15503,0.877698939497979,-0.0734874494544897,-0.46655985351339
1580417217.18671,0.867933165484093,-0.0563973449301898,-0.475349050125887
1580417217.21839,0.878187228198673,-0.0563973449301898,-0.49048599984741
1580417217.25007,0.86988632028687,-0.0642099641412983,-0.467536430914778
1580417217.28176,0.870374608987564,-0.0520027466239412,-0.441657129777981
1580417217.31344,0.89039444571603,-0.0549324788281069,-0.484138246738384
1580417217.34512,0.868421454184787,-0.0710460059510183,-0.504646372167544
1580417217.3768,0.850354772259099,-0.060303654535744,-0.43579766536965
1580417217.40829,0.869398031586176,-0.0295414663920042,-0.433356221866179
1580417217.43998,0.870862897688259,-0.0329594872968642,-0.454840924696727
1580417217.47166,0.939223315785458,-0.0437018387121384,-0.564705882352941
1580417217.50334,0.871351186388953,-0.0490730144197755,-0.542732890821698
1580417217.53502,0.823987182421607,-0.099855039291981,-0.485114824139773
1580417217.5667,0.904554818036164,-0.0319829098954756,-0.425055313954376
1580417217.59838,0.858655680170902,-0.0319829098954756,-0.478278782330053
1580417217.63006,0.85621423666743,-0.0593270771343555,-0.495368886854353
1580417217.66175,0.89381246662089,-0.024170290684367,-0.435309376668956
1580417217.69343,0.857190814068819,-0.0358892195010299,-0.465094987411307
1580417217.72511,0.904554818036164,-0.041260395208667,-0.517341878385595
1580417217.75679,0.862561989776456,-0.0524910353246355,-0.516853589684901
1580417217.78847,0.864515144579233,-0.0563973449301898,-0.481208514534218
1580417217.82015,0.894789044022279,-0.0495613031204698,-0.478278782330053
1580417217.85184,0.840100709544519,-0.0627450980392155,-0.506111238269627
1580417217.88352,0.854749370565347,-0.0725108720531011,-0.472419317921721
1580417217.9152,0.888929579613947,-0.0334477759975584,-0.448004882887007
1580417217.94688,0.87330434119173,-0.0417486839093613,-0.506111238269627
1580417217.97856,0.86646829938201,-0.0549324788281069,-0.490974288548104
1580417218.01024,0.864026855878539,-0.0432135500114441,-0.447516594186313
1580417218.04192,0.879652094300756,-0.0510261692225527,-0.484626535439078
1580417218.07361,0.861097123674373,-0.0432135500114441,-0.520759899290455
1580417218.10529,0.866956588082704,-0.031006332494087,-0.504646372167544
1580417218.13697,0.868421454184787,-0.0515144579232469,-0.470954451819638
1580417218.16865,0.859143968871596,-0.0612802319371326,-0.476325627527276
1580417218.20033,0.874280918593119,-0.0627450980392155,-0.492927443350881
1580417218.23201,0.875745784695201,-0.0690928511482412,-0.479743648432136
1580417218.2637,0.879163805600061,-0.0832532234683754,-0.49732204165713
1580417218.29538,0.883070115205616,-0.0627450980392155,-0.51099412527657
1580417218.32706,0.858655680170902,-0.0803234912642097,-0.476325627527276
1580417218.35874,0.867444876783399,-0.0656748302433812,-0.466071564812696
1580417218.39042,0.863538567177844,-0.0383306630045013,-0.476325627527276
1580417218.4221,0.847913328755627,-0.0598153658350498,-0.459235523002976
1580417218.45378,0.877210650797284,-0.0588387884336612,-0.475349050125887
1580417218.48547,0.898207064927139,-0.0529793240253298,-0.496345464255741
1580417218.51715,0.861097123674373,-0.105714503700312,-0.512947280079347
1580417218.54883,0.868421454184787,-0.0520027466239412,-0.465583276112001
1580417218.58051,0.877210650797284,-0.0656748302433812,-0.471931029221027
1580417218.61219,0.888929579613947,-0.0607919432364383,-0.529060807202258
1580417218.64387,0.86988632028687,-0.0822766460669868,-0.509529259174487
1580417218.67535,0.842053864347296,-0.0974135957885096,-0.458747234302281
1580417218.70703,0.878187228198673,-0.0813000686655982,-0.444586861982147
1580417218.73872,0.860608834973679,-0.0280766002899213,-0.496345464255741
1580417218.7704,0.86305027847715,-0.0246585793850613,-0.511482413977264
1580417218.80208,0.88355840390631,-0.00219729915312428,-0.441168841077287
1580417218.83376,0.881605249103533,-0.0251468680857556,-0.520759899290455
1580417218.86544,0.86646829938201,-0.0588387884336612,-0.550545510032807
1580417218.89712,0.85963225757229,-0.0842298008697639,-0.506599526970321
1580417218.92881,0.868909742885482,-0.0373540856031127,-0.475349050125887
1580417218.96049,0.877210650797284,-0.0476081483176927,-0.506111238269627
1580417218.99217,0.891859311818113,-0.0871595330739297,-0.532967116807813
1580417219.02385,0.867933165484093,-0.080811779964904,-0.51783016708629
1580417219.05553,0.868909742885482,-0.073975738155184,-0.454352635996033
1580417219.08721,0.875745784695201,-0.0749523155565726,-0.447028305485619
1580417219.11889,0.891859311818113,-0.0583504997329669,-0.512458991378653
1580417219.15058,0.879652094300756,-0.0813000686655982,-0.50415808346685
1580417219.18226,0.87330434119173,-0.106691081101701,-0.457282368200199
1580417219.21394,0.857679102769513,-0.0900892652780954,-0.412848096437019
1580417219.24562,0.850354772259099,-0.0759288929579611,-0.40161745632105
1580417219.2773,0.891371023117419,-0.0920424200808725,-0.437750820172427
1580417219.30898,0.887953002212559,-0.110109102006561,-0.468513008316167
1580417219.34067,0.882093537804227,-0.0749523155565726,-0.467536430914778
1580417219.37235,0.878675516899367,-0.0686045624475469,-0.454840924696727
1580417219.40403,0.901625085831999,-0.0476081483176927,-0.506111238269627
1580417219.43571,0.874280918593119,-0.0427252613107498,-0.516853589684901
1580417219.46739,0.864026855878539,-0.080811779964904,-0.468024719615473
1580417219.49907,0.872816052491036,-0.0764171816586554,-0.445075150682841
1580417219.53076,0.875745784695201,-0.0788586251621268,-0.475349050125887
1580417219.56244,0.874769207293813,-0.0935072861829553,-0.471931029221027
1580417219.59412,0.877698939497979,-0.0852063782711525,-0.443610284580759
1580417219.6258,0.90406652933547,-0.044678416113527,-0.498298619058518
1580417219.65748,0.882093537804227,-0.063721675440604,-0.510505836575875
1580417219.68916,0.862073701075762,-0.0578622110322726,-0.477790493629358
1580417219.72084,0.86646829938201,-0.0505378805218584,-0.42212558175021
1580417219.75253,0.88355840390631,-0.0729991607537954,-0.455329213397421
1580417219.78421,0.865980010681316,-0.0729991607537954,-0.450446326390479
1580417219.81589,0.85963225757229,-0.0930189974822611,-0.407965209430076
1580417219.84757,0.877698939497979,-0.129152361333638,-0.410894941634242
1580417219.87925,0.868909742885482,-0.0900892652780954,-0.485603112840467
1580417219.91093,0.937758449683376,-0.0358892195010299,-0.657969024185549
1580417219.94241,0.92799267566949,-0.0573739223315783,-0.566659037155718
1580417219.97409,0.855237659266042,-0.137941557946135,-0.455329213397421
1580417220.00577,0.848889906157016,-0.0617685206378269,-0.49048599984741
1580417220.03745,0.845471885252156,-0.0935072861829553,-0.430426489662013
1580417220.06913,0.848401617456322,-0.154055085069047,-0.488532845044633
1580417220.10082,0.823987182421607,-0.0798352025635154,-0.36743724727245
1580417220.1325,0.89723048752575,-0.0729991607537954,-0.472419317921721
1580417220.16418,0.95533684290837,0.0124513618677042,-0.562752727550164
1580417220.19586,0.855237659266042,-0.0617685206378269,-0.560799572747387
1580417220.22754,0.857190814068819,-0.0173342488746471,-0.611581597619592
1580417220.25922,0.82203402761883,0.0212405584802013,-0.535896849011978
1580417220.2909,0.785412375066759,0.0300297550926985,-0.44263370717937
1580417220.32258,0.842053864347296,-0.0187991149767299,-0.469489585717556
1580417220.35426,0.885023270008393,-0.138918135347524,-0.511970702677958
1580417220.38594,0.907972838941024,-0.173586633096818,-0.509529259174487
1580417220.41762,0.83570611123827,-0.208743419546806,-0.498786907759213
1580417220.4493,0.857679102769513,-0.143801022354467,-0.498786907759213
1580417220.48098,0.89381246662089,-0.0661631189440754,-0.552498664835584
1580417220.51266,0.84596017395285,-0.0813000686655982,-0.55201037613489
1580417220.54434,0.791760128175785,-0.0549324788281069,-0.472419317921721
1580417220.57603,0.859143968871596,-0.0393072404058898,-0.528572518501564
1580417220.6077,0.874280918593119,-0.00708018616006711,-0.518806744487678
1580417220.63939,0.85963225757229,-0.0490730144197755,-0.491950865949493
1580417220.67107,0.824963759822996,-0.11792172121767,-0.479743648432136
1580417220.70275,0.881605249103533,-0.111573968108644,-0.513923857480735
1580417220.73443,0.876234073395896,-0.101319905394064,-0.494392309452964
1580417220.76611,0.867933165484093,-0.166262302586404,-0.491462577248798
1580417220.79779,0.843518730449379,-0.174074921797512,-0.510505836575875
1580417220.82947,0.832776379034105,-0.112550545510032,-0.531013962005035
1580417220.86115,0.853772793163959,-0.106691081101701,-0.515388723582818
1580417220.89283,0.86646829938201,-0.0988784618905925,-0.513435568780041
1580417220.92451,0.844495307850767,-0.0827649347676811,-0.510017547875181
1580417220.95619,0.825940337224385,-0.0646982528419926,-0.478767071030747
1580417220.98787,0.858167391470207,-0.0290531776913099,-0.502204928664073
1580417221.01955,0.877698939497979,-0.0627450980392155,-0.530037384603647
1580417221.05123,0.852307927061876,-0.12475776302739,-0.505134660868238
1580417221.08291,0.860120546272984,-0.143312733653772,-0.508552681773098
1580417221.11459,0.856702525368124,-0.102784771496147,-0.501716639963378
1580417221.14628,0.844983596551462,-0.11450370031281,-0.466071564812696
1580417221.17796,0.835217822537576,-0.144777599755855,-0.489509422446021
1580417221.20953,0.875257495994507,-0.133546959639887,-0.530037384603647
1580417221.24121,0.872816052491036,-0.165285725185015,-0.530525673304341
1580417221.27289,0.846936751354239,-0.128664072632944,-0.52466620889601
1580417221.30457,0.845471885252156,-0.120851453421835,-0.504646372167544
1580417221.33626,0.855237659266042,-0.143801022354467,-0.50074006256199
1580417221.36794,0.857679102769513,-0.12475776302739,-0.53150225070573
1580417221.39962,0.838147554741742,-0.120851453421835,-0.486579690241856
1580417221.4313,0.867933165484093,-0.103761348897535,-0.489021133745327
1580417221.46298,0.859143968871596,-0.0681162737468526,-0.463630121309224
1580417221.49466,0.870862897688259,-0.104737926298924,-0.475837338826581
1580417221.52634,0.873792629892424,-0.10424963759823,-0.485603112840467
1580417221.55802,0.86305027847715,-0.080811779964904,-0.509529259174487
1580417221.5897,0.864026855878539,-0.173586633096818,-0.523201342793927
1580417221.62138,0.831311512932022,-0.127199206530861,-0.473884184023804
1580417221.65306,0.85621423666743,-0.134035248340581,-0.48706797894255
1580417221.68474,0.884534981307699,-0.101808194094758,-0.488532845044633
1580417221.71642,0.828381780727856,-0.156496528572518,-0.494392309452964
1580417221.7481,0.844007019150073,-0.163820859082932,-0.495857175555047
1580417221.77978,0.878675516899367,-0.116945143816281,-0.536385137712672
1580417221.81146,0.885023270008393,-0.115968566414892,-0.536385137712672
1580417221.84314,0.837659266041047,-0.0935072861829553,-0.448004882887007
1580417221.87483,0.859143968871596,-0.099855039291981,-0.478278782330053
1580417221.90651,0.866956588082704,-0.124269474326695,-0.516853589684901
1580417221.93819,0.837659266041047,-0.148683909361409,-0.512458991378653
1580417221.96987,0.902601663233387,-0.171145189593346,-0.495857175555047
1580417222.00155,0.919203479056993,-0.103273060196841,-0.500251773861295
1580417222.03323,0.785900663767453,-0.0900892652780954,-0.450446326390479
1580417222.06491,0.81177996490425,-0.115480277714198,-0.49732204165713
1580417222.09659,0.879652094300756,-0.0969253070878153,-0.571541924162661
1580417222.12827,0.89723048752575,-0.178957808804455,-0.556404974441138
1580417222.15995,0.83912413214313,-0.119874876020447,-0.45288776989395
1580417222.19163,0.865491721980622,-0.0900892652780954,-0.485603112840467
1580417222.22331,0.855725947966736,-0.0710460059510183,-0.468513008316167
1580417222.25499,0.83912413214313,-0.167727168688486,-0.502204928664073
1580417222.28667,0.868909742885482,-0.196536202029449,-0.51783016708629
1580417222.31835,0.853772793163959,-0.163820859082932,-0.50415808346685
1580417222.35003,0.836682688639659,-0.147707331960021,-0.478278782330053
1580417222.38171,0.89723048752575,-0.166750591287098,-0.489021133745327
1580417222.4134,0.888929579613947,-0.0988784618905925,-0.515877012283513
1580417222.44508,0.830823224231327,-0.150637064164187,-0.488044556343938
1580417222.47662,0.836682688639659,-0.127199206530861,-0.479743648432136
1580417222.5083,0.918226901655604,-0.0891126878767068,-0.50757610437171
1580417222.53998,0.854261081864653,-0.122804608224612,-0.44263370717937
1580417222.57166,0.834729533836882,-0.160402838178072,-0.465094987411307
1580417222.60334,0.841077286945907,-0.160891126878766,-0.468024719615473
1580417222.63502,0.935317006179904,-0.0866712443732354,-0.510017547875181
1580417222.6667,0.845471885252156,-0.0837415121690697,-0.510505836575875
1580417222.69838,0.792736705577173,-0.159426260776684,-0.522713054093233
1580417222.73006,0.879163805600061,-0.176516365300984,-0.499275196459907
1580417222.76174,0.90748455024033,-0.073975738155184,-0.456794079499504
1580417222.79342,0.811291676203556,-0.164797436484321,-0.467536430914778
1580417222.8251,0.882093537804227,-0.132082093537804,-0.474860761425193
1580417222.85678,0.923598077363241,-0.132570382238498,-0.506111238269627
1580417222.88846,0.851819638361182,-0.194583047226672,-0.465094987411307
1580417222.92015,0.895277332722973,-0.0788586251621268,-0.457282368200199
1580417222.95182,0.788830395971619,-0.0690928511482412,-0.494880598153658
1580417222.98351,0.876234073395896,-0.178469520103761,-0.522713054093233
1580417223.01518,0.868421454184787,-0.139406424048218,-0.485603112840467
1580417223.04686,0.850354772259099,-0.160891126878766,-0.48706797894255
1580417223.07854,0.838635843442436,-0.148195620660715,-0.484626535439078
1580417223.11022,0.864515144579233,-0.122804608224612,-0.488044556343938
1580417223.1419,0.912367437247273,-0.200930800335698,-0.48364995803769
1580417223.17359,0.87330434119173,-0.128664072632944,-0.455817502098116
1580417223.20527,0.860608834973679,-0.0793469138628211,-0.446540016784924
1580417223.23695,0.840100709544519,-0.113527122911421,-0.458747234302281
1580417223.26863,0.851819638361182,-0.193118181124589,-0.492927443350881
1580417223.30031,0.931898985275044,-0.222903791866941,-0.533455405508507
1580417223.33199,0.830823224231327,-0.0939955748836496,-0.477790493629358
1580417223.36367,0.830823224231327,-0.109132524605172,-0.426031891355764
1580417223.39535,0.903089951934081,-0.100343327992675,-0.526131074998093
1580417223.42703,0.830334935530633,-0.138429846646829,-0.516853589684901
1580417223.45871,0.896253910124361,-0.211673151750972,-0.481208514534218
1580417223.49039,0.848889906157016,-0.0515144579232469,-0.454352635996033
1580417223.52207,0.860608834973679,-0.114015411612115,-0.476325627527276
1580417223.55375,0.900160219729916,-0.144777599755855,-0.493415732051576
1580417223.58543,0.817639429312582,-0.164797436484321,-0.522713054093233
1580417223.61711,0.868421454184787,-0.177981231403066,-0.474372472724498
1580417223.64879,0.91432059205005,-0.0881361104753182,-0.46655985351339
1580417223.68047,0.823498893720913,-0.171633478294041,-0.493415732051576
1580417223.71215,0.887464713511864,-0.172610055695429,-0.446540016784924
1580417223.74368,0.847425040054933,-0.131105516136415,-0.498298619058518
1580417223.77536,0.830334935530633,-0.145754177157244,-0.463630121309224
1580417223.80704,0.921644922560464,-0.230716411078049,-0.531990539406424
1580417223.83872,0.87330434119173,-0.100343327992675,-0.47681391622797
1580417223.8704,0.832776379034105,-0.115968566414892,-0.450934615091173
1580417223.90208,0.82545204852369,-0.0993667505912867,-0.482185091935607
1580417223.93377,0.917250324254216,-0.162844281681544,-0.51099412527657
1580417223.96545,0.85621423666743,-0.171633478294041,-0.463630121309224
1580417223.99713,0.844007019150073,-0.139894712748912,-0.484626535439078
1580417224.02881,0.970473792629893,-0.0212405584802013,-0.491462577248798
1580417224.06049,0.757091630426491,-0.0935072861829553,-0.460212100404364
1580417224.09217,0.806897077897307,-0.216556038757915,-0.469489585717556
1580417224.12385,1.02711528191043,-0.194094758525978,-0.580819409475852
1580417224.15553,0.844007019150073,-0.349370565346762,-0.342534523537042
1580417224.18721,0.658457312886245,-0.0715342946517126,-0.411383230334936
1580417224.21889,0.994888227664607,0.135011825741969,-0.666758220798046
1580417224.25057,0.889417868314641,0.00708018616006711,-0.573983367666132
1580417224.28225,0.712657358663311,-0.197024490730143,-0.318120088502328
1580417224.31393,0.757579919127185,-0.244876783398183,-0.551033798733501
1580417224.34561,0.941176470588236,-0.173098344396124,-0.534431982909895
1580417224.37729,1.13502708476387,0.266849774929426,-0.454840924696727
1580417224.40897,0.968032349126421,0.231204699778743,-0.639902342259861
1580417224.44065,0.693125810635539,-0.101808194094758,-0.695567254139009
1580417224.47234,0.668711375600825,-0.109620813305867,-0.55201037613489
1580417224.50402,0.851331349660487,-0.156008239871824,-0.532478828107118
1580417224.5357,0.838147554741742,-0.0759288929579611,-0.517341878385595
1580417224.56738,0.836682688639659,-0.0266117341878385,-0.47339589532311
1580417224.59906,0.878187228198673,-0.0827649347676811,-0.47681391622797
1580417224.63074,0.88697642481117,-0.198001068131532,-0.497810330357824
1580417224.66242,0.848889906157016,-0.181887541008621,-0.482673380636301
1580417224.6941,0.866956588082704,-0.134523537041275,-0.510505836575875
1580417224.72578,0.851331349660487,-0.164309147783626,-0.520271610589761
1580417224.75746,0.874280918593119,-0.207766842145418,-0.55884641794461
1580417224.78914,0.859143968871596,-0.176028076600289,-0.544686045624475
1580417224.82082,0.845471885252156,-0.129152361333638,-0.484138246738384
1580417224.8525,0.837659266041047,-0.137453269245441,-0.484138246738384
1580417224.88418,0.86305027847715,-0.146730754558632,-0.521736476691844
1580417224.91586,0.874769207293813,-0.131105516136415,-0.525642786297398
1580417224.94754,0.864026855878539,-0.122316319523918,-0.501716639963378
1580417224.97922,0.870862897688259,-0.109620813305867,-0.496345464255741
1580417225.01074,0.860608834973679,-0.080811779964904,-0.49390402075227
1580417225.04242,0.851331349660487,-0.0910658426794839,-0.504646372167544
1580417225.0741,0.864515144579233,-0.104737926298924,-0.502204928664073
1580417225.10578,0.864515144579233,-0.114991989013504,-0.515388723582818
1580417225.13746,0.854749370565347,-0.109132524605172,-0.502204928664073
1580417225.16914,0.858655680170902,-0.0910658426794839,-0.512458991378653
1580417225.20082,0.860120546272984,-0.067139696345464,-0.501228351262684
1580417225.2325,0.859143968871596,-0.0822766460669868,-0.50757610437171
1580417225.26418,0.846936751354239,-0.11450370031281,-0.512947280079347
1580417225.29586,0.857679102769513,-0.108644235904478,-0.496345464255741
1580417225.32754,0.858167391470207,-0.104737926298924,-0.49390402075227
1580417225.35922,0.853284504463264,-0.0886243991760125,-0.501228351262684
1580417225.3909,0.848889906157016,-0.0979018844892039,-0.506111238269627
1580417225.42258,0.860608834973679,-0.0979018844892039,-0.506111238269627
1580417225.45426,0.868421454184787,-0.114991989013504,-0.516853589684901
1580417225.48594,0.861097123674373,-0.130617227435721,-0.513435568780041
1580417225.51762,0.854749370565347,-0.150637064164187,-0.484138246738384
1580417225.5493,0.862561989776456,-0.136476691844052,-0.479255359731441
1580417225.58098,0.854749370565347,-0.131593804837109,-0.488044556343938
1580417225.61266,0.857679102769513,-0.127687495231555,-0.487556267643244
1580417225.64434,0.873792629892424,-0.134523537041275,-0.488044556343938
1580417225.67602,0.865980010681316,-0.155519951171129,-0.491950865949493
1580417225.7077,0.864026855878539,-0.159426260776684,-0.496833752956436
1580417225.73938,0.857679102769513,-0.156984817273212,-0.477302204928664
1580417225.77106,0.855237659266042,-0.150637064164187,-0.486579690241856
1580417225.80274,0.863538567177844,-0.139406424048218,-0.486579690241856
1580417225.83442,0.864515144579233,-0.134523537041275,-0.50074006256199
1580417225.8661,0.854749370565347,-0.134035248340581,-0.490974288548104
1580417225.89778,0.856702525368124,-0.152101930266269,-0.487556267643244
1580417225.92946,0.866956588082704,-0.127199206530861,-0.502693217364767
