Timestamp_seconds,Accel_X_g,Accel_Y_g,Accel_Z_g
1580417216.84655,0.730724040588999,-0.148683909361409,0.688242923628597
1580417216.85054,0.735118638895248,-0.149172198062104,0.683848325322348
1580417216.85454,0.732188906691082,-0.152590218966964,0.685801480125125
1580417216.85853,0.730724040588999,-0.153078507667658,0.687266346227208
1580417216.86253,0.729747463187611,-0.154543373769741,0.686778057526514
1580417216.86652,0.731212329289693,-0.156496528572518,0.688731212329291
1580417216.87051,0.727794308384833,-0.157961394674601,0.688242923628597
1580417216.87451,0.730235751888305,-0.156984817273212,0.688242923628597
1580417216.8785,0.729747463187611,-0.157961394674601,0.686289768825819
1580417216.8825,0.732188906691082,-0.158449683375295,0.685313191424431
1580417216.88649,0.733165484092471,-0.156984817273212,0.678477149614711
1580417216.89048,0.731700617990388,-0.157473105973907,0.686289768825819
1580417216.89448,0.733653772793165,-0.160402838178072,0.681895170519571
1580417216.89847,0.732677195391776,-0.158449683375295,0.677988860914017
1580417216.90246,0.730724040588999,-0.162355992980849,0.681406881818877
1580417216.90646,0.734142061493859,-0.159426260776684,0.680430304417488
1580417216.91045,0.736583504997331,-0.163332570382238,0.683360036621654
1580417216.91445,0.737560082398719,-0.163820859082932,0.682871747920959
1580417216.91846,0.735606927595942,-0.166750591287098,0.682871747920959
1580417216.92245,0.738048371099413,-0.164797436484321,0.684336614023042
1580417216.92645,0.734142061493859,-0.166262302586404,0.683848325322348
1580417216.93044,0.738536659800108,-0.164309147783626,0.681895170519571
1580417216.93443,0.732677195391776,-0.167238879987792,0.677988860914017
1580417216.93843,0.732188906691082,-0.169192034790569,0.675059128709851
1580417216.94242,0.731212329289693,-0.166262302586404,0.671641107804991
1580417216.94641,0.732188906691082,-0.164797436484321,0.668711375600825
1580417216.95041,0.735606927595942,-0.164797436484321,0.672129396505685
1580417216.9544,0.733653772793165,-0.164309147783626,0.672129396505685
1580417216.9584,0.736583504997331,-0.164309147783626,0.672617685206379
1580417216.96239,0.738048371099413,-0.162844281681544,0.668711375600825
1580417216.96638,0.740001525902191,-0.164797436484321,0.675059128709851
1580417216.97038,0.737071793698025,-0.164797436484321,0.673594262607768
1580417216.97437,0.738048371099413,-0.161867704280155,0.672129396505685
1580417216.97837,0.739513237201496,-0.165774013885709,0.676035706111239
1580417216.98236,0.739513237201496,-0.166262302586404,0.677012283512628
1580417216.98635,0.738536659800108,-0.166750591287098,0.678477149614711
1580417216.99035,0.739024948500802,-0.165774013885709,0.680430304417488
1580417216.99434,0.736583504997331,-0.169680323491264,0.676523994811934
1580417216.99832,0.733653772793165,-0.169192034790569,0.672129396505685
1580417217.00232,0.737071793698025,-0.165285725185015,0.674570840009157
1580417217.00631,0.735606927595942,-0.168215457389181,0.678965438315405
1580417217.0103,0.733165484092471,-0.170168612191958,0.669199664301519
1580417217.0143,0.736583504997331,-0.166262302586404,0.670176241702908
1580417217.01829,0.735606927595942,-0.167238879987792,0.666758220798048
1580417217.02228,0.738048371099413,-0.167727168688486,0.668711375600825
1580417217.02628,0.739024948500802,-0.166750591287098,0.667246509498742
1580417217.03027,0.738536659800108,-0.169680323491264,0.671152819104297
1580417217.03427,0.743419546807051,-0.168215457389181,0.668223086900131
1580417217.03826,0.740489814602885,-0.169192034790569,0.669687953002214
1580417217.04225,0.739513237201496,-0.168703746089875,0.673105973907074
1580417217.04625,0.736583504997331,-0.169680323491264,0.677500572213322
1580417217.05024,0.737560082398719,-0.169192034790569,0.678477149614711
1580417217.05424,0.738536659800108,-0.175539787899595,0.681406881818877
1580417217.05823,0.737560082398719,-0.171145189593346,0.677988860914017
1580417217.06222,0.738048371099413,-0.177492942702372,0.679453727016099
1580417217.06622,0.739024948500802,-0.178469520103761,0.682871747920959
1580417217.07021,0.732188906691082,-0.178469520103761,0.685313191424431
1580417217.07421,0.733165484092471,-0.183352407110704,0.683360036621654
1580417217.07822,0.730724040588999,-0.179934386205844,0.687266346227208
1580417217.08221,0.730724040588999,-0.178469520103761,0.687266346227208
1580417217.0862,0.731212329289693,-0.181399252307926,0.685801480125125
1580417217.0902,0.726329442282751,-0.180422674906538,0.681406881818877
1580417217.09419,0.729259174486916,-0.182375829709315,0.684336614023042
1580417217.09819,0.728282597085528,-0.180422674906538,0.675059128709851
1580417217.10218,0.731700617990388,-0.177492942702372,0.677500572213322
1580417217.10617,0.735606927595942,-0.180422674906538,0.679453727016099
1580417217.11017,0.734630350194553,-0.176516365300984,0.676035706111239
1580417217.11416,0.733165484092471,-0.177492942702372,0.674082551308462
1580417217.11816,0.738536659800108,-0.175051499198901,0.671641107804991
1580417217.12215,0.737560082398719,-0.174074921797512,0.675059128709851
1580417217.12614,0.739513237201496,-0.170168612191958,0.668711375600825
1580417217.13014,0.740978103303579,-0.170656900892652,0.669687953002214
1580417217.13413,0.739513237201496,-0.172121766994735,0.668711375600825
1580417217.13813,0.740001525902191,-0.170656900892652,0.667246509498742
1580417217.14212,0.740978103303579,-0.169192034790569,0.667734798199437
1580417217.14611,0.743907835507745,-0.169192034790569,0.670176241702908
1580417217.15011,0.744884412909133,-0.165774013885709,0.671641107804991
1580417217.1541,0.742931258106356,-0.164797436484321,0.664805065995271
1580417217.15808,0.740489814602885,-0.159914549477378,0.669199664301519
1580417217.16208,0.737071793698025,-0.163332570382238,0.666269932097354
1580417217.16607,0.737071793698025,-0.163820859082932,0.667246509498742
1580417217.17006,0.738536659800108,-0.163332570382238,0.669199664301519
1580417217.17406,0.736583504997331,-0.160402838178072,0.669199664301519
1580417217.17805,0.740001525902191,-0.157961394674601,0.667246509498742
1580417217.18204,0.738048371099413,-0.158449683375295,0.667246509498742
1580417217.18604,0.737071793698025,-0.159914549477378,0.668711375600825
1580417217.19003,0.737560082398719,-0.157961394674601,0.664316777294577
1580417217.19403,0.738048371099413,-0.154055085069047,0.663828488593882
1580417217.19802,0.740489814602885,-0.156984817273212,0.669199664301519
1580417217.20201,0.740978103303579,-0.155031662470435,0.670176241702908
1580417217.20601,0.740978103303579,-0.154543373769741,0.672129396505685
1580417217.21,0.743419546807051,-0.154543373769741,0.671152819104297
1580417217.214,0.741466392004273,-0.154543373769741,0.679453727016099
1580417217.21799,0.744396124208439,-0.154543373769741,0.677500572213322
1580417217.22198,0.741954680704968,-0.152590218966964,0.676523994811934
1580417217.22598,0.739513237201496,-0.152590218966964,0.679942015716794
1580417217.22997,0.735606927595942,-0.152590218966964,0.681406881818877
1580417217.23397,0.733653772793165,-0.155519951171129,0.684336614023042
1580417217.23798,0.733165484092471,-0.150148775463492,0.680918593118182
1580417217.24197,0.731212329289693,-0.149660486762798,0.677012283512628
1580417217.24596,0.732188906691082,-0.152101930266269,0.678477149614711
1580417217.24996,0.729747463187611,-0.153078507667658,0.675547417410545
1580417217.25395,0.735118638895248,-0.151613641565575,0.671641107804991
1580417217.25795,0.735606927595942,-0.154055085069047,0.667246509498742
1580417217.26194,0.736583504997331,-0.156984817273212,0.667734798199437
1580417217.26593,0.738536659800108,-0.156008239871824,0.664805065995271
1580417217.26993,0.740978103303579,-0.157473105973907,0.659433890287634
1580417217.27392,0.742442969405662,-0.160891126878766,0.660898756389717
1580417217.27792,0.741954680704968,-0.161867704280155,0.661875333791105
1580417217.28191,0.744396124208439,-0.162844281681544,0.659922178988328
1580417217.2859,0.743419546807051,-0.164797436484321,0.658945601586939
1580417217.2899,0.742442969405662,-0.166262302586404,0.660898756389717
1580417217.29389,0.742442969405662,-0.166750591287098,0.659922178988328
1580417217.29789,0.744884412909133,-0.169192034790569,0.660410467689022
1580417217.30188,0.745372701609828,-0.169680323491264,0.663828488593882
1580417217.30587,0.742931258106356,-0.168215457389181,0.673105973907074
1580417217.30987,0.739513237201496,-0.172610055695429,0.671152819104297
1580417217.31386,0.740001525902191,-0.172610055695429,0.671152819104297
1580417217.31784,0.739513237201496,-0.172121766994735,0.673105973907074
1580417217.32183,0.736095216296636,-0.168703746089875,0.674082551308462
1580417217.32583,0.736583504997331,-0.170656900892652,0.675547417410545
1580417217.32982,0.731212329289693,-0.171633478294041,0.676035706111239
1580417217.33382,0.728282597085528,-0.168215457389181,0.679453727016099
1580417217.33781,0.727306019684139,-0.169192034790569,0.677988860914017
1580417217.3418,0.726817730983445,-0.168703746089875,0.677988860914017
1580417217.3458,0.729259174486916,-0.169680323491264,0.675547417410545
1580417217.34979,0.729259174486916,-0.167727168688486,0.676035706111239
1580417217.35379,0.730235751888305,-0.166750591287098,0.674570840009157
1580417217.35778,0.734142061493859,-0.168703746089875,0.669687953002214
1580417217.36177,0.739024948500802,-0.168215457389181,0.669199664301519
1580417217.36577,0.740489814602885,-0.167727168688486,0.663340199893188
1580417217.36976,0.744884412909133,-0.171145189593346,0.656504158083468
1580417217.37376,0.747814145113299,-0.173586633096818,0.657480735484857
1580417217.37775,0.749279011215382,-0.172121766994735,0.658457312886245
1580417217.38174,0.752697032120242,-0.171145189593346,0.653086137178608
1580417217.38574,0.750743877317465,-0.172121766994735,0.648203250171665
1580417217.38973,0.750255588616771,-0.168215457389181,0.644785229266805
1580417217.39373,0.752208743419548,-0.171145189593346,0.640390630960557
1580417217.39773,0.752697032120242,-0.170656900892652,0.635996032654308
1580417217.40173,0.752697032120242,-0.169192034790569,0.632578011749448
1580417217.40572,0.755138475623713,-0.168215457389181,0.634531166552225
1580417217.40972,0.753673609521631,-0.167727168688486,0.63160143434806
1580417217.41371,0.752697032120242,-0.169680323491264,0.633066300450142
1580417217.4177,0.752697032120242,-0.171145189593346,0.639902342259862
1580417217.4217,0.753185320820936,-0.172610055695429,0.644296940566111
1580417217.42569,0.747325856412605,-0.168703746089875,0.64869153887236
1580417217.42969,0.744396124208439,-0.171633478294041,0.650156404974442
1580417217.43368,0.738536659800108,-0.170656900892652,0.647226672770277
1580417217.43767,0.735118638895248,-0.168703746089875,0.647714961470971
1580417217.44167,0.735118638895248,-0.164797436484321,0.639902342259862
1580417217.44566,0.731700617990388,-0.166750591287098,0.63501945525292
1580417217.44966,0.734630350194553,-0.165285725185015,0.633066300450142
1580417217.45365,0.736583504997331,-0.165285725185015,0.634042877851531
1580417217.45764,0.740489814602885,-0.170168612191958,0.638925764858474
1580417217.46164,0.745860990310522,-0.171145189593346,0.637460898756391
1580417217.46563,0.749767299916076,-0.178957808804455,0.647714961470971
1580417217.46963,0.757579919127185,-0.177981231403066,0.655039291981385
1580417217.47362,0.76392767223621,-0.185305561913481,0.673105973907074
1580417217.4776,0.769298847943848,-0.197512779430838,0.694102388036928
1580417217.48159,0.773205157549402,-0.208255130846112,0.715098802166782
1580417217.48559,0.772228580148013,-0.218020904859998,0.739024948500802
1580417217.48958,0.761486228732739,-0.221438925764858,0.758068207827879
1580417217.49358,0.738048371099413,-0.219485770962081,0.762951094834822
1580417217.49757,0.711680781261922,-0.212649729152361,0.769787136644542
1580417217.50156,0.690684367132068,-0.207278553444723,0.766369115739682
1580417217.50556,0.680918593118182,-0.199465934233615,0.757091630426491
1580417217.50955,0.678965438315405,-0.192629892423895,0.734630350194553
1580417217.51355,0.685313191424431,-0.186282139314869,0.706797894254979
1580417217.51754,0.695078965438316,-0.189211871519035,0.683360036621654
1580417217.52153,0.701915007248036,-0.186770428015564,0.668223086900131
1580417217.52553,0.710704203860534,-0.193118181124589,0.658945601586939
1580417217.52952,0.720958266575114,-0.188723582818341,0.658945601586939
1580417217.53352,0.734142061493859,-0.188723582818341,0.658457312886245
1580417217.53751,0.746349279011216,-0.180422674906538,0.658457312886245
1580417217.5415,0.756115053025102,-0.181887541008621,0.658457312886245
1580417217.5455,0.767833981841765,-0.178469520103761,0.659433890287634
1580417217.54949,0.771252002746625,-0.180422674906538,0.670664530403602
1580417217.55348,0.766857404440376,-0.186770428015564,0.677012283512628
1580417217.55749,0.764415960936905,-0.186770428015564,0.693614099336234
1580417217.56149,0.754161898222325,-0.189700160219729,0.699961852445259
1580417217.56548,0.741954680704968,-0.190188448920424,0.710704203860534
1580417217.56948,0.728282597085528,-0.193606469825284,0.714610513466088
1580417217.57347,0.714610513466088,-0.191653315022506,0.710704203860534
1580417217.57746,0.706797894254979,-0.192629892423895,0.700938429846648
1580417217.58146,0.701915007248036,-0.190188448920424,0.685313191424431
1580417217.58545,0.701915007248036,-0.193118181124589,0.666758220798048
1580417217.58945,0.707286182955674,-0.190676737621118,0.658945601586939
1580417217.59344,0.711680781261922,-0.188723582818341,0.655039291981385
1580417217.59743,0.721934843976502,-0.185305561913481,0.654551003280691
1580417217.60143,0.730724040588999,-0.180422674906538,0.651621271076525
1580417217.60542,0.732188906691082,-0.173098344396124,0.650644693675137
1580417217.60942,0.736095216296636,-0.160891126878766,0.655039291981385
1580417217.61341,0.741954680704968,-0.150637064164187,0.653086137178608
1580417217.6174,0.744396124208439,-0.140871290150301,0.651621271076525
1580417217.6214,0.749279011215382,-0.135500114442664,0.646738384069582
1580417217.62539,0.750255588616771,-0.135988403143358,0.646738384069582
1580417217.62939,0.749767299916076,-0.135988403143358,0.6452735179675
1580417217.63338,0.752208743419548,-0.139894712748912,0.643808651865417
1580417217.63736,0.752697032120242,-0.142336156252384,0.645761806668194
1580417217.64135,0.754161898222325,-0.149172198062104,0.642832074464028
1580417217.64535,0.757091630426491,-0.149172198062104,0.636484321355002
1580417217.64934,0.755626764324408,-0.157473105973907,0.637460898756391
1580417217.65333,0.757091630426491,-0.160891126878766,0.638925764858474
1580417217.65733,0.755138475623713,-0.164309147783626,0.640878919661251
1580417217.66132,0.756115053025102,-0.165774013885709,0.642343785763334
1580417217.66532,0.748302433813993,-0.166262302586404,0.653574425879302
1580417217.66931,0.745372701609828,-0.162355992980849,0.653574425879302
1580417217.67331,0.743419546807051,-0.161379415579461,0.653086137178608
1580417217.6773,0.738536659800108,-0.159426260776684,0.657969024185551
1580417217.68129,0.737560082398719,-0.160402838178072,0.659922178988328
1580417217.68529,0.734630350194553,-0.159914549477378,0.65552758068208
1580417217.68928,0.736095216296636,-0.159914549477378,0.647226672770277
1580417217.69327,0.733165484092471,-0.164309147783626,0.639902342259862
1580417217.69727,0.739513237201496,-0.169192034790569,0.640390630960557
1580417217.70126,0.742442969405662,-0.176028076600289,0.63843747615778
1580417217.70526,0.746837567711911,-0.177004654001678,0.645761806668194
1580417217.70925,0.751232166018159,-0.179446097505149,0.647226672770277
1580417217.71324,0.755626764324408,-0.186770428015564,0.653086137178608
1580417217.71725,0.753673609521631,-0.186770428015564,0.665781643396659
1580417217.72125,0.754161898222325,-0.187747005416952,0.675059128709851
1580417217.72524,0.752208743419548,-0.189700160219729,0.681406881818877
1580417217.72924,0.749767299916076,-0.189700160219729,0.690684367132068
1580417217.73323,0.745372701609828,-0.189700160219729,0.691660944533457
1580417217.73722,0.745860990310522,-0.195071335927366,0.697032120241094
1580417217.74122,0.739024948500802,-0.195071335927366,0.693614099336234
1580417217.74521,0.735606927595942,-0.197512779430838,0.693614099336234
1580417217.74921,0.728770885786222,-0.200442511635003,0.694102388036928
1580417217.7532,0.726817730983445,-0.197512779430838,0.689219501029985
1580417217.75719,0.724376287479974,-0.200930800335698,0.677988860914017
1580417217.76119,0.730724040588999,-0.202883955138475,0.670176241702908
1580417217.76518,0.731212329289693,-0.200442511635003,0.661875333791105
1580417217.76918,0.731212329289693,-0.199465934233615,0.666269932097354
1580417217.77317,0.731700617990388,-0.196047913328755,0.666269932097354
1580417217.77716,0.737560082398719,-0.197512779430838,0.663340199893188
1580417217.78116,0.743907835507745,-0.193606469825284,0.664316777294577
1580417217.78515,0.748790722514688,-0.185793850614175,0.664805065995271
1580417217.78915,0.749279011215382,-0.189700160219729,0.665781643396659
1580417217.79314,0.747325856412605,-0.189211871519035,0.676523994811934
1580417217.79712,0.745372701609828,-0.188235294117646,0.678965438315405
1580417217.80111,0.741954680704968,-0.190188448920424,0.683360036621654
1580417217.80511,0.737560082398719,-0.193606469825284,0.689219501029985
1580417217.8091,0.735118638895248,-0.197024490730143,0.692637521934845
1580417217.81309,0.736095216296636,-0.202883955138475,0.698008697642482
1580417217.81709,0.730235751888305,-0.204348821240558,0.702403295948731
1580417217.82108,0.725841153582056,-0.205325398641946,0.704356450751508
1580417217.82508,0.720469977874419,-0.205325398641946,0.712169069962616
1580417217.82907,0.717540245670254,-0.202395666437781,0.705333028152896
1580417217.83307,0.717051956969559,-0.202395666437781,0.703868162050814
1580417217.83706,0.712657358663311,-0.196047913328755,0.695567254139011
1580417217.84105,0.713145647364005,-0.189211871519035,0.692637521934845
1580417217.84505,0.709239337758451,-0.181887541008621,0.687754634927902
1580417217.84904,0.712169069962616,-0.176028076600289,0.682383459220265
1580417217.85303,0.716563668268865,-0.172121766994735,0.677988860914017
1580417217.85703,0.720958266575114,-0.168215457389181,0.671641107804991
1580417217.86102,0.723887998779279,-0.160402838178072,0.668711375600825
1580417217.86502,0.726817730983445,-0.163332570382238,0.666269932097354
1580417217.86901,0.735606927595942,-0.161379415579461,0.662851911192494
1580417217.873,0.739513237201496,-0.156984817273212,0.657969024185551
1580417217.87701,0.747325856412605,-0.157473105973907,0.652597848477914
1580417217.88101,0.752697032120242,-0.158449683375295,0.658457312886245
1580417217.885,0.755626764324408,-0.157961394674601,0.658457312886245
1580417217.889,0.755626764324408,-0.160891126878766,0.660898756389717
1580417217.89299,0.754161898222325,-0.160891126878766,0.659433890287634
1580417217.89698,0.752697032120242,-0.160891126878766,0.663340199893188
1580417217.90098,0.747814145113299,-0.165285725185015,0.662851911192494
1580417217.90497,0.746349279011216,-0.163820859082932,0.660410467689022
1580417217.90897,0.743907835507745,-0.166750591287098,0.663828488593882
1580417217.91296,0.737560082398719,-0.168703746089875,0.661875333791105
1580417217.91695,0.732677195391776,-0.170168612191958,0.660898756389717
1580417217.92095,0.734630350194553,-0.166750591287098,0.659433890287634
1580417217.92494,0.730235751888305,-0.170168612191958,0.660898756389717
1580417217.92894,0.731700617990388,-0.171145189593346,0.658457312886245
1580417217.93293,0.733165484092471,-0.171145189593346,0.663828488593882
1580417217.93692,0.734630350194553,-0.169680323491264,0.657969024185551
1580417217.94092,0.738536659800108,-0.171145189593346,0.664805065995271
1580417217.94491,0.737071793698025,-0.171145189593346,0.669199664301519
1580417217.94891,0.737071793698025,-0.170168612191958,0.675547417410545
1580417217.9529,0.739024948500802,-0.171145189593346,0.676523994811934
1580417217.95688,0.743419546807051,-0.171145189593346,0.676523994811934
1580417217.96087,0.742931258106356,-0.169680323491264,0.677012283512628
1580417217.96487,0.741466392004273,-0.170168612191958,0.680918593118182
1580417217.96886,0.742931258106356,-0.173586633096818,0.676035706111239
1580417217.97285,0.741954680704968,-0.174563210498206,0.676035706111239
1580417217.97685,0.740489814602885,-0.176028076600289,0.673594262607768
1580417217.98084,0.736095216296636,-0.179934386205844,0.664805065995271
1580417217.98484,0.740489814602885,-0.179446097505149,0.663828488593882
1580417217.98883,0.738536659800108,-0.182375829709315,0.658945601586939
1580417217.99282,0.737071793698025,-0.182375829709315,0.654551003280691
1580417217.99682,0.738048371099413,-0.181399252307926,0.653574425879302
1580417218.00081,0.743419546807051,-0.179446097505149,0.654062714579997
1580417218.00481,0.746349279011216,-0.180910963607232,0.656504158083468
1580417218.0088,0.748302433813993,-0.181887541008621,0.661387045090411
1580417218.01279,0.752208743419548,-0.177981231403066,0.665293354695965
1580417218.01679,0.749279011215382,-0.177004654001678,0.664805065995271
1580417218.02078,0.748790722514688,-0.176028076600289,0.668711375600825
1580417218.02478,0.746349279011216,-0.173098344396124,0.673105973907074
1580417218.02877,0.741954680704968,-0.171633478294041,0.673594262607768
1580417218.03276,0.740978103303579,-0.170656900892652,0.680430304417488
1580417218.03677,0.740978103303579,-0.168703746089875,0.682871747920959
1580417218.04077,0.734630350194553,-0.173098344396124,0.681406881818877
1580417218.04476,0.734142061493859,-0.173098344396124,0.680918593118182
1580417218.04875,0.731700617990388,-0.177981231403066,0.679942015716794
1580417218.05275,0.727306019684139,-0.179446097505149,0.682871747920959
1580417218.05674,0.727794308384833,-0.180422674906538,0.677012283512628
1580417218.06074,0.729259174486916,-0.181399252307926,0.671152819104297
1580417218.06473,0.729259174486916,-0.179934386205844,0.665293354695965
1580417218.06872,0.733165484092471,-0.176516365300984,0.662851911192494
1580417218.07272,0.741954680704968,-0.174074921797512,0.658945601586939
1580417218.07671,0.742442969405662,-0.176028076600289,0.656992446784162
1580417218.08071,0.745860990310522,-0.178469520103761,0.658457312886245
1580417218.0847,0.744884412909133,-0.177004654001678,0.663828488593882
1580417218.08869,0.741954680704968,-0.180422674906538,0.666758220798048
1580417218.09269,0.740978103303579,-0.180910963607232,0.668223086900131
1580417218.09668,0.739024948500802,-0.182864118410009,0.667246509498742
1580417218.10068,0.739513237201496,-0.188235294117646,0.670664530403602
1580417218.10467,0.738048371099413,-0.189211871519035,0.669687953002214
1580417218.10866,0.734630350194553,-0.194094758525978,0.671641107804991
1580417218.11266,0.731700617990388,-0.195559624628061,0.668223086900131
1580417218.11664,0.730235751888305,-0.198001068131532,0.670664530403602
1580417218.12063,0.729747463187611,-0.200930800335698,0.669687953002214
1580417218.12463,0.730235751888305,-0.205813687342641,0.668711375600825
1580417218.12862,0.729259174486916,-0.200442511635003,0.677500572213322
1580417218.13261,0.727794308384833,-0.203372243839169,0.677988860914017
1580417218.13661,0.730235751888305,-0.200930800335698,0.676035706111239
1580417218.1406,0.731700617990388,-0.200442511635003,0.673594262607768
1580417218.1446,0.732188906691082,-0.199954222934309,0.672129396505685
1580417218.14859,0.733653772793165,-0.201907377737086,0.675547417410545
1580417218.15258,0.735606927595942,-0.201907377737086,0.677500572213322
1580417218.15658,0.734630350194553,-0.199954222934309,0.676035706111239
1580417218.16057,0.737560082398719,-0.197024490730143,0.677500572213322
1580417218.16457,0.737560082398719,-0.198977645532921,0.677500572213322
1580417218.16856,0.735118638895248,-0.195071335927366,0.673105973907074
1580417218.17255,0.730724040588999,-0.194094758525978,0.675059128709851
1580417218.17655,0.736583504997331,-0.188723582818341,0.667246509498742
1580417218.18054,0.736583504997331,-0.180422674906538,0.659922178988328
1580417218.18454,0.738536659800108,-0.177492942702372,0.661387045090411
1580417218.18853,0.742442969405662,-0.171145189593346,0.656992446784162
1580417218.19252,0.743907835507745,-0.169192034790569,0.64869153887236
1580417218.19653,0.746349279011216,-0.170656900892652,0.649668116273748
1580417218.20053,0.751232166018159,-0.166750591287098,0.658945601586939
1580417218.20452,0.750743877317465,-0.163820859082932,0.659922178988328
1580417218.20851,0.752697032120242,-0.166750591287098,0.655039291981385
1580417218.21251,0.752208743419548,-0.168215457389181,0.662363622491799
1580417218.2165,0.752697032120242,-0.165774013885709,0.667734798199437
1580417218.2205,0.743907835507745,-0.163820859082932,0.672129396505685
1580417218.22449,0.737560082398719,-0.166262302586404,0.670664530403602
1580417218.22848,0.732677195391776,-0.166262302586404,0.676035706111239
1580417218.23248,0.724376287479974,-0.162844281681544,0.672129396505685
1580417218.23647,0.721934843976502,-0.162355992980849,0.679942015716794
1580417218.24047,0.721934843976502,-0.160891126878766,0.677500572213322
1580417218.24446,0.721934843976502,-0.160402838178072,0.673105973907074
1580417218.24846,0.726817730983445,-0.160891126878766,0.672617685206379
1580417218.25245,0.727306019684139,-0.160402838178072,0.675547417410545
1580417218.25644,0.730235751888305,-0.159426260776684,0.676523994811934
1580417218.26044,0.739024948500802,-0.156984817273212,0.677012283512628
1580417218.26443,0.740001525902191,-0.153566796368352,0.677500572213322
1580417218.26842,0.743907835507745,-0.151125352864881,0.683848325322348
1580417218.27242,0.748790722514688,-0.151613641565575,0.684336614023042
1580417218.2764,0.751720454718853,-0.156008239871824,0.690196078431374
1580417218.28039,0.752208743419548,-0.156496528572518,0.693614099336234
1580417218.28438,0.751720454718853,-0.160891126878766,0.698985275043871
1580417218.28838,0.749279011215382,-0.156984817273212,0.702891584649425
1580417218.29237,0.740001525902191,-0.162355992980849,0.700450141145954
1580417218.29637,0.735118638895248,-0.160891126878766,0.700450141145954
1580417218.30036,0.727794308384833,-0.160891126878766,0.700938429846648
1580417218.30435,0.724376287479974,-0.160891126878766,0.696543831540399
1580417218.30835,0.720469977874419,-0.158937972075989,0.689707789730679
1580417218.31234,0.721446555275808,-0.159914549477378,0.687754634927902
1580417218.31634,0.722911421377891,-0.160402838178072,0.684336614023042
1580417218.32033,0.725352864881362,-0.158449683375295,0.680918593118182
1580417218.32432,0.725841153582056,-0.156984817273212,0.679942015716794
1580417218.32832,0.728770885786222,-0.155031662470435,0.685801480125125
1580417218.33231,0.725841153582056,-0.153566796368352,0.686289768825819
1580417218.33631,0.728282597085528,-0.151613641565575,0.681895170519571
1580417218.3403,0.729259174486916,-0.150148775463492,0.680918593118182
1580417218.3443,0.729259174486916,-0.145754177157244,0.675059128709851
1580417218.34829,0.734142061493859,-0.145265888456549,0.673105973907074
1580417218.35228,0.736583504997331,-0.148683909361409,0.671641107804991
1580417218.35629,0.738536659800108,-0.153078507667658,0.665293354695965
1580417218.36029,0.741954680704968,-0.155519951171129,0.671641107804991
1580417218.36428,0.743907835507745,-0.161379415579461,0.665781643396659
1580417218.36827,0.740489814602885,-0.162355992980849,0.676035706111239
1580417218.37227,0.743419546807051,-0.167238879987792,0.675547417410545
1580417218.37626,0.740489814602885,-0.172121766994735,0.674570840009157
1580417218.38026,0.739513237201496,-0.171145189593346,0.672617685206379
1580417218.38425,0.740489814602885,-0.171145189593346,0.677500572213322
1580417218.38824,0.737560082398719,-0.173098344396124,0.676523994811934
1580417218.39224,0.739024948500802,-0.174074921797512,0.670664530403602
1580417218.39623,0.738536659800108,-0.177004654001678,0.668223086900131
1580417218.40023,0.738536659800108,-0.179446097505149,0.667246509498742
1580417218.40422,0.735606927595942,-0.175051499198901,0.663340199893188
1580417218.40821,0.732188906691082,-0.177492942702372,0.664805065995271
1580417218.41221,0.733165484092471,-0.177981231403066,0.658457312886245
1580417218.4162,0.737071793698025,-0.177004654001678,0.660410467689022
1580417218.4202,0.734142061493859,-0.175539787899595,0.651132982375831
1580417218.42419,0.737071793698025,-0.176028076600289,0.646738384069582
1580417218.42818,0.739513237201496,-0.169192034790569,0.644296940566111
1580417218.43218,0.740001525902191,-0.166262302586404,0.640878919661251
1580417218.43616,0.743419546807051,-0.160891126878766,0.635507743953614
1580417218.44015,0.744884412909133,-0.161867704280155,0.634531166552225
1580417218.44414,0.746349279011216,-0.158937972075989,0.634531166552225
1580417218.44814,0.753185320820936,-0.158449683375295,0.630624856946671
1580417218.45213,0.754161898222325,-0.159914549477378,0.641367208361945
1580417218.45613,0.754650186923019,-0.158937972075989,0.641367208361945
1580417218.46012,0.754650186923019,-0.158937972075989,0.646250095368888
1580417218.46411,0.751720454718853,-0.162355992980849,0.655039291981385
1580417218.46811,0.750743877317465,-0.163332570382238,0.661387045090411
1580417218.4721,0.750743877317465,-0.169192034790569,0.670176241702908
1580417218.4761,0.750255588616771,-0.167727168688486,0.672617685206379
1580417218.48009,0.746837567711911,-0.166750591287098,0.676035706111239
1580417218.48408,0.740978103303579,-0.165285725185015,0.681895170519571
1580417218.48808,0.731700617990388,-0.166262302586404,0.684824902723737
1580417218.49207,0.725841153582056,-0.163332570382238,0.686778057526514
1580417218.49607,0.727306019684139,-0.158937972075989,0.687266346227208
1580417218.50006,0.724376287479974,-0.156984817273212,0.685801480125125
1580417218.50406,0.726817730983445,-0.155519951171129,0.680918593118182
1580417218.50805,0.730724040588999,-0.151125352864881,0.670176241702908
1580417218.51204,0.734630350194553,-0.156984817273212,0.672129396505685
1580417218.51605,0.742442969405662,-0.151613641565575,0.672617685206379
1580417218.52005,0.748302433813993,-0.156984817273212,0.669199664301519
1580417218.52404,0.750255588616771,-0.156008239871824,0.668711375600825
1580417218.52803,0.750743877317465,-0.156496528572518,0.668711375600825
1580417218.53203,0.753673609521631,-0.156984817273212,0.674082551308462
1580417218.53602,0.751232166018159,-0.159426260776684,0.675547417410545
1580417218.54002,0.746837567711911,-0.161379415579461,0.676523994811934
1580417218.54401,0.745372701609828,-0.164309147783626,0.676035706111239
1580417218.548,0.741466392004273,-0.164797436484321,0.676523994811934
1580417218.552,0.740001525902191,-0.168215457389181,0.679453727016099
1580417218.55599,0.735118638895248,-0.171145189593346,0.675547417410545
1580417218.55999,0.732188906691082,-0.172121766994735,0.677988860914017
1580417218.56398,0.728282597085528,-0.177004654001678,0.678965438315405
1580417218.56797,0.724376287479974,-0.174074921797512,0.680918593118182
1580417218.57197,0.726329442282751,-0.172121766994735,0.682871747920959
1580417218.57596,0.727794308384833,-0.169680323491264,0.680918593118182
1580417218.57996,0.729259174486916,-0.171145189593346,0.681406881818877
1580417218.58395,0.728282597085528,-0.166262302586404,0.678965438315405
1580417218.58794,0.728770885786222,-0.164797436484321,0.679453727016099
1580417218.59194,0.735118638895248,-0.165774013885709,0.674570840009157
1580417218.59595,0.735118638895248,-0.164797436484321,0.683848325322348
1580417218.59994,0.735118638895248,-0.165285725185015,0.681406881818877
1580417218.60394,0.738048371099413,-0.168215457389181,0.690196078431374
1580417218.60793,0.735118638895248,-0.171145189593346,0.694590676737622
1580417218.61192,0.731700617990388,-0.174074921797512,0.699473563744565
1580417218.61592,0.732188906691082,-0.177004654001678,0.699961852445259
1580417218.61991,0.730235751888305,-0.176028076600289,0.702403295948731
1580417218.6239,0.734142061493859,-0.172610055695429,0.703379873350119
1580417218.6279,0.729259174486916,-0.175539787899595,0.699961852445259
1580417218.63189,0.726329442282751,-0.180422674906538,0.702403295948731
1580417218.63589,0.724864576180668,-0.176516365300984,0.699473563744565
1580417218.63988,0.719005111772336,-0.174563210498206,0.702403295948731
1580417218.64387,0.713633936064699,-0.169680323491264,0.699473563744565
1580417218.64787,0.714610513466088,-0.164309147783626,0.702891584649425
1580417218.65186,0.719493400473031,-0.164309147783626,0.700938429846648
1580417218.65586,0.722911421377891,-0.163820859082932,0.699473563744565
1580417218.65985,0.731212329289693,-0.161867704280155,0.704844739452202
1580417218.66384,0.733653772793165,-0.164309147783626,0.705821316853591
1580417218.66784,0.729747463187611,-0.159914549477378,0.706309605554285
1580417218.67183,0.724376287479974,-0.154543373769741,0.701915007248036
1580417218.67581,0.718516823071642,-0.143801022354467,0.699961852445259
1580417218.67981,0.717051956969559,-0.140383001449607,0.687754634927902
1580417218.6838,0.718028534370948,-0.133546959639887,0.677500572213322
1580417218.68779,0.722911421377891,-0.132570382238498,0.672129396505685
1580417218.69179,0.734142061493859,-0.136476691844052,0.662851911192494
1580417218.69578,0.738536659800108,-0.138918135347524,0.656992446784162
1580417218.69977,0.745860990310522,-0.141847867551689,0.657969024185551
1580417218.70377,0.747814145113299,-0.145754177157244,0.666758220798048
1580417218.70776,0.750255588616771,-0.144777599755855,0.675547417410545
1580417218.71176,0.751720454718853,-0.144777599755855,0.679942015716794
1580417218.71575,0.750743877317465,-0.141359578850995,0.677012283512628
1580417218.71974,0.752208743419548,-0.141359578850995,0.677012283512628
1580417218.72374,0.747814145113299,-0.140871290150301,0.672129396505685
1580417218.72773,0.739513237201496,-0.141847867551689,0.669199664301519
1580417218.73173,0.733653772793165,-0.143312733653772,0.666269932097354
1580417218.73572,0.728770885786222,-0.147219043259327,0.669199664301519
1580417218.73971,0.722423132677196,-0.148195620660715,0.667734798199437
1580417218.74371,0.718028534370948,-0.153078507667658,0.666269932097354
1580417218.7477,0.719493400473031,-0.152101930266269,0.665781643396659
1580417218.7517,0.719005111772336,-0.154055085069047,0.656992446784162
1580417218.75571,0.725352864881362,-0.158937972075989,0.646250095368888
1580417218.7597,0.732188906691082,-0.156008239871824,0.633066300450142
1580417218.76369,0.739513237201496,-0.160891126878766,0.6281834134432
1580417218.76769,0.745372701609828,-0.159426260776684,0.62476539253834
1580417218.77168,0.751232166018159,-0.162355992980849,0.625253681239034
1580417218.77568,0.752697032120242,-0.160891126878766,0.629159990844588
1580417218.77967,0.755138475623713,-0.162355992980849,0.640390630960557
1580417218.78366,0.760509651331351,-0.163820859082932,0.642832074464028
1580417218.78766,0.761486228732739,-0.165285725185015,0.645761806668194
1580417218.79165,0.764415960936905,-0.171145189593346,0.64869153887236
1580417218.79565,0.764415960936905,-0.174074921797512,0.64869153887236
1580417218.79964,0.764904249637599,-0.180422674906538,0.64869153887236
1580417218.80363,0.762951094834822,-0.184817273212786,0.648203250171665
1580417218.80763,0.761974517433433,-0.189700160219729,0.644785229266805
1580417218.81162,0.754650186923019,-0.196047913328755,0.656015869382774
1580417218.81562,0.751720454718853,-0.199465934233615,0.652597848477914
1580417218.81961,0.745372701609828,-0.203372243839169,0.662363622491799
1580417218.8236,0.741466392004273,-0.206301976043335,0.664805065995271
1580417218.8276,0.736583504997331,-0.211673151750972,0.671152819104297
1580417218.83159,0.732677195391776,-0.213626306553749,0.678965438315405
1580417218.83557,0.731700617990388,-0.216067750057221,0.684336614023042
1580417218.83957,0.733653772793165,-0.220950637064163,0.689707789730679
1580417218.84356,0.730235751888305,-0.219485770962081,0.686289768825819
1580417218.84755,0.728282597085528,-0.219485770962081,0.689219501029985
1580417218.85155,0.724376287479974,-0.222415503166246,0.697520408941788
1580417218.85554,0.719493400473031,-0.226321812771801,0.703868162050814
1580417218.85953,0.725841153582056,-0.225345235370412,0.709239337758451
1580417218.86353,0.731212329289693,-0.223880369268329,0.707286182955674
1580417218.86752,0.729747463187611,-0.223880369268329,0.701426718547342
1580417218.87152,0.727794308384833,-0.225833524071106,0.695567254139011
1580417218.87551,0.720469977874419,-0.221927214465552,0.692637521934845
1580417218.8795,0.714610513466088,-0.215091172655832,0.690196078431374
1580417218.8835,0.714610513466088,-0.212161440451666,0.680918593118182
1580417218.88749,0.722423132677196,-0.206301976043335,0.675547417410545
1580417218.89149,0.733653772793165,-0.205325398641946,0.668223086900131
1580417218.89548,0.740489814602885,-0.201419089036392,0.664316777294577
1580417218.89947,0.748302433813993,-0.198977645532921,0.662363622491799
1580417218.90347,0.751232166018159,-0.200930800335698,0.663828488593882
1580417218.90746,0.749279011215382,-0.201419089036392,0.666758220798048
1580417218.91146,0.748302433813993,-0.198977645532921,0.673594262607768
1580417218.91547,0.745860990310522,-0.197024490730143,0.679453727016099
1580417218.91946,0.744396124208439,-0.196047913328755,0.686778057526514
1580417218.92345,0.741466392004273,-0.195559624628061,0.683360036621654
1580417218.92745,0.740489814602885,-0.194583047226672,0.680430304417488
1580417218.93144,0.739513237201496,-0.194583047226672,0.676035706111239
1580417218.93544,0.730235751888305,-0.194583047226672,0.675547417410545
1580417218.93943,0.725841153582056,-0.192141603723201,0.675547417410545
1580417218.94342,0.719005111772336,-0.191165026321812,0.677012283512628
1580417218.94742,0.717540245670254,-0.184817273212786,0.676035706111239
1580417218.95141,0.716075379568171,-0.178469520103761,0.674570840009157
1580417218.95541,0.719981689173725,-0.173098344396124,0.669199664301519
1580417218.9594,0.728282597085528,-0.170656900892652,0.672129396505685
1580417218.96339,0.732188906691082,-0.162844281681544,0.670664530403602
1580417218.96739,0.734142061493859,-0.162844281681544,0.673594262607768
1580417218.97138,0.738048371099413,-0.157473105973907,0.681406881818877
1580417218.97538,0.732677195391776,-0.150148775463492,0.690196078431374
1580417218.97937,0.733653772793165,-0.148683909361409,0.705821316853591
1580417218.98336,0.730235751888305,-0.145265888456549,0.717051956969559
1580417218.98736,0.727306019684139,-0.140383001449607,0.719981689173725
1580417218.99135,0.724864576180668,-0.140871290150301,0.714610513466088
1580417218.99533,0.722423132677196,-0.140383001449607,0.703868162050814
1580417218.99932,0.720469977874419,-0.142824444953078,0.703868162050814
1580417219.00332,0.720469977874419,-0.145265888456549,0.693125810635539
1580417219.00731,0.721934843976502,-0.145265888456549,0.694590676737622
1580417219.01131,0.720958266575114,-0.143801022354467,0.688731212329291
1580417219.0153,0.728770885786222,-0.150637064164187,0.691660944533457
1580417219.01929,0.734630350194553,-0.151613641565575,0.687754634927902
1580417219.02329,0.738536659800108,-0.149660486762798,0.684824902723737
1580417219.02728,0.740001525902191,-0.153078507667658,0.686289768825819
1580417219.03128,0.742442969405662,-0.155519951171129,0.687266346227208
1580417219.03527,0.743907835507745,-0.156496528572518,0.696055542839705
1580417219.03926,0.743907835507745,-0.156496528572518,0.688242923628597
1580417219.04326,0.745372701609828,-0.156984817273212,0.689219501029985
1580417219.04725,0.743419546807051,-0.162355992980849,0.688242923628597
1580417219.05125,0.745372701609828,-0.159914549477378,0.684336614023042
1580417219.05524,0.741466392004273,-0.161379415579461,0.688731212329291
1580417219.05923,0.739024948500802,-0.163820859082932,0.681406881818877
1580417219.06323,0.736095216296636,-0.160402838178072,0.680430304417488
1580417219.06722,0.737071793698025,-0.164309147783626,0.678965438315405
1580417219.07122,0.737071793698025,-0.160891126878766,0.674082551308462
1580417219.07522,0.733653772793165,-0.158937972075989,0.676035706111239
1580417219.07922,0.731212329289693,-0.157473105973907,0.674570840009157
1580417219.08321,0.733653772793165,-0.156496528572518,0.667246509498742
1580417219.08721,0.733165484092471,-0.157473105973907,0.665781643396659
1580417219.0912,0.731700617990388,-0.156008239871824,0.666758220798048
1580417219.09519,0.732677195391776,-0.149660486762798,0.665293354695965
1580417219.09919,0.736583504997331,-0.150148775463492,0.666269932097354
1580417219.10318,0.737560082398719,-0.149172198062104,0.670176241702908
1580417219.10718,0.743419546807051,-0.150637064164187,0.676523994811934
1580417219.11117,0.742442969405662,-0.151613641565575,0.679453727016099
1580417219.11516,0.747814145113299,-0.153566796368352,0.676035706111239
1580417219.11916,0.752208743419548,-0.155519951171129,0.679453727016099
1580417219.12315,0.749767299916076,-0.156008239871824,0.683848325322348
1580417219.12715,0.745860990310522,-0.158449683375295,0.686778057526514
1580417219.13114,0.746349279011216,-0.159426260776684,0.692149233234151
1580417219.13513,0.745372701609828,-0.160402838178072,0.696055542839705
1580417219.13913,0.740489814602885,-0.156984817273212,0.703379873350119
1580417219.14312,0.740978103303579,-0.156008239871824,0.696543831540399
1580417219.14712,0.736095216296636,-0.149172198062104,0.696055542839705
1580417219.15111,0.732677195391776,-0.145265888456549,0.691660944533457
1580417219.15509,0.732188906691082,-0.137453269245441,0.692637521934845
1580417219.15908,0.730724040588999,-0.134035248340581,0.687754634927902
1580417219.16308,0.734630350194553,-0.125734340428778,0.681406881818877
1580417219.16707,0.738048371099413,-0.126222629129472,0.678965438315405
1580417219.17107,0.740001525902191,-0.12133974212253,0.670176241702908
1580417219.17506,0.741954680704968,-0.118410009918364,0.672129396505685
1580417219.17905,0.740978103303579,-0.118898298619058,0.672129396505685
1580417219.18305,0.742442969405662,-0.11792172121767,0.678965438315405
1580417219.18704,0.737560082398719,-0.119386587319752,0.679942015716794
1580417219.19104,0.738536659800108,-0.11450370031281,0.685801480125125
1580417219.19503,0.735118638895248,-0.113527122911421,0.682871747920959
1580417219.19902,0.735606927595942,-0.114991989013504,0.678965438315405
1580417219.20302,0.738536659800108,-0.114991989013504,0.669687953002214
1580417219.20701,0.740978103303579,-0.114991989013504,0.664805065995271
1580417219.21101,0.741954680704968,-0.117433432516975,0.660410467689022
1580417219.215,0.744884412909133,-0.118898298619058,0.656015869382774
1580417219.21899,0.747814145113299,-0.118898298619058,0.653086137178608
1580417219.22299,0.756603341725796,-0.115968566414892,0.645761806668194
1580417219.22698,0.759533073929962,-0.116945143816281,0.64185549706264
1580417219.23098,0.764415960936905,-0.114991989013504,0.636484321355002
1580417219.23498,0.770275425345236,-0.114991989013504,0.634042877851531
1580417219.23898,0.769787136644542,-0.114991989013504,0.630624856946671
1580417219.24297,0.77076371404593,-0.112062256809338,0.625253681239034
1580417219.24697,0.76734569314107,-0.11108567940795,0.620370794232091
1580417219.25096,0.764415960936905,-0.114015411612115,0.625741969939728
1580417219.25495,0.760997940032045,-0.109132524605172,0.624277103837645
1580417219.25895,0.760997940032045,-0.11108567940795,0.626230258640422
1580417219.26294,0.757579919127185,-0.115480277714198,0.631113145647365
1580417219.26694,0.754650186923019,-0.117433432516975,0.63501945525292
1580417219.27093,0.751232166018159,-0.115968566414892,0.640878919661251
1580417219.27492,0.751232166018159,-0.119386587319752,0.641367208361945
1580417219.27892,0.746349279011216,-0.115968566414892,0.641367208361945
1580417219.28291,0.742442969405662,-0.116945143816281,0.65210955977722
1580417219.28691,0.744396124208439,-0.113527122911421,0.647714961470971
1580417219.2909,0.739513237201496,-0.112550545510032,0.65210955977722
1580417219.29489,0.742442969405662,-0.108644235904478,0.660410467689022
1580417219.29889,0.740001525902191,-0.106691081101701,0.658945601586939
1580417219.30288,0.741466392004273,-0.0993667505912867,0.662363622491799
1580417219.30688,0.742931258106356,-0.100343327992675,0.660410467689022
1580417219.31087,0.744884412909133,-0.0949721522850382,0.659433890287634
1580417219.31485,0.751720454718853,-0.0925307087815668,0.659433890287634
1580417219.31884,0.755138475623713,-0.0939955748836496,0.653086137178608
1580417219.32284,0.758556496528573,-0.0920424200808725,0.654062714579997
1580417219.32683,0.761974517433433,-0.0930189974822611,0.656504158083468
1580417219.33082,0.763439383535516,-0.096437018387121,0.657480735484857
1580417219.33482,0.766369115739682,-0.096437018387121,0.650644693675137
1580417219.33881,0.770275425345236,-0.100343327992675,0.653086137178608
1580417219.34281,0.769298847943848,-0.103761348897535,0.653086137178608
1580417219.3468,0.772228580148013,-0.105714503700312,0.656504158083468
1580417219.3508,0.767833981841765,-0.112550545510032,0.651132982375831
1580417219.35479,0.765392538338293,-0.113527122911421,0.649179827573054
1580417219.35878,0.763439383535516,-0.119386587319752,0.650644693675137
1580417219.36278,0.761486228732739,-0.122804608224612,0.653086137178608
1580417219.36677,0.757091630426491,-0.127199206530861,0.653574425879302
1580417219.37076,0.754650186923019,-0.132082093537804,0.658945601586939
1580417219.37476,0.752697032120242,-0.140871290150301,0.658457312886245
1580417219.37875,0.750743877317465,-0.139894712748912,0.662851911192494
1580417219.38275,0.749279011215382,-0.144289311055161,0.666269932097354
1580417219.38674,0.745860990310522,-0.146242465857938,0.670176241702908
1580417219.39073,0.744884412909133,-0.150148775463492,0.674082551308462
1580417219.39474,0.740001525902191,-0.148683909361409,0.685313191424431
1580417219.39874,0.738536659800108,-0.148683909361409,0.690684367132068
1580417219.40273,0.737071793698025,-0.149660486762798,0.690684367132068
1580417219.40673,0.730724040588999,-0.149660486762798,0.695567254139011
1580417219.41072,0.729747463187611,-0.147707331960021,0.697032120241094
1580417219.41471,0.730724040588999,-0.153078507667658,0.696543831540399
1580417219.41871,0.733165484092471,-0.154055085069047,0.691660944533457
1580417219.4227,0.734142061493859,-0.157473105973907,0.688242923628597
1580417219.4267,0.740001525902191,-0.160402838178072,0.681406881818877
1580417219.43069,0.744396124208439,-0.160402838178072,0.674082551308462
1580417219.43468,0.749767299916076,-0.160891126878766,0.675059128709851
1580417219.43868,0.751232166018159,-0.164797436484321,0.671641107804991
1580417219.44267,0.757579919127185,-0.165774013885709,0.668711375600825
1580417219.44667,0.762462806134128,-0.165285725185015,0.667734798199437
1580417219.45066,0.766369115739682,-0.166750591287098,0.665293354695965
1580417219.45465,0.762951094834822,-0.166750591287098,0.665781643396659
1580417219.45865,0.764904249637599,-0.167238879987792,0.667246509498742
1580417219.46264,0.760021362630656,-0.164797436484321,0.667246509498742
1580417219.46664,0.752697032120242,-0.166750591287098,0.670176241702908
1580417219.47063,0.749767299916076,-0.162355992980849,0.668711375600825
1580417219.47461,0.746349279011216,-0.159914549477378,0.672617685206379
1580417219.4786,0.741954680704968,-0.157961394674601,0.671152819104297
1580417219.4826,0.739024948500802,-0.158937972075989,0.672617685206379
1580417219.48659,0.733653772793165,-0.156984817273212,0.666269932097354
1580417219.49058,0.733165484092471,-0.155519951171129,0.671152819104297
1580417219.49458,0.732677195391776,-0.156984817273212,0.665293354695965
1580417219.49857,0.733165484092471,-0.159914549477378,0.667246509498742
1580417219.50257,0.733165484092471,-0.161867704280155,0.672129396505685
1580417219.50656,0.732188906691082,-0.163332570382238,0.672617685206379
1580417219.51056,0.737071793698025,-0.163820859082932,0.670664530403602
1580417219.51455,0.735606927595942,-0.160402838178072,0.670176241702908
1580417219.51854,0.740489814602885,-0.156496528572518,0.665293354695965
1580417219.52254,0.742442969405662,-0.154543373769741,0.662851911192494
1580417219.52653,0.743419546807051,-0.148195620660715,0.660898756389717
1580417219.53052,0.748302433813993,-0.145754177157244,0.658457312886245
1580417219.53452,0.753673609521631,-0.141847867551689,0.656015869382774
1580417219.53851,0.752697032120242,-0.136476691844052,0.657969024185551
1580417219.54251,0.756115053025102,-0.135988403143358,0.654062714579997
1580417219.5465,0.752697032120242,-0.134523537041275,0.656992446784162
1580417219.55049,0.754161898222325,-0.134523537041275,0.659433890287634
1580417219.5545,0.754161898222325,-0.130128938735027,0.662363622491799
1580417219.5585,0.752208743419548,-0.128664072632944,0.662363622491799
1580417219.56249,0.752697032120242,-0.128664072632944,0.667734798199437
1580417219.56649,0.746349279011216,-0.127199206530861,0.662851911192494
1580417219.57048,0.749767299916076,-0.121828030823224,0.659433890287634
1580417219.57447,0.748302433813993,-0.120851453421835,0.659433890287634
1580417219.57847,0.748790722514688,-0.120851453421835,0.656504158083468
1580417219.58246,0.751232166018159,-0.112062256809338,0.658457312886245
1580417219.58646,0.753185320820936,-0.11450370031281,0.65552758068208
1580417219.59045,0.754650186923019,-0.109132524605172,0.65552758068208
1580417219.59444,0.757091630426491,-0.108644235904478,0.656992446784162
1580417219.59844,0.758556496528573,-0.107179369802395,0.660410467689022
1580417219.60243,0.757579919127185,-0.107179369802395,0.662851911192494
1580417219.60643,0.756115053025102,-0.10766765850309,0.667246509498742
1580417219.61042,0.757091630426491,-0.10766765850309,0.668223086900131
1580417219.61441,0.753185320820936,-0.114015411612115,0.677988860914017
1580417219.61841,0.755626764324408,-0.115480277714198,0.674082551308462
1580417219.6224,0.751720454718853,-0.120851453421835,0.677988860914017
1580417219.6264,0.744884412909133,-0.128664072632944,0.679942015716794
1580417219.63039,0.745860990310522,-0.132570382238498,0.682383459220265
1580417219.63437,0.741466392004273,-0.138918135347524,0.683848325322348
1580417219.63836,0.738048371099413,-0.140871290150301,0.692637521934845
1580417219.64236,0.733653772793165,-0.144777599755855,0.696055542839705
1580417219.64635,0.732677195391776,-0.151125352864881,0.698008697642482
1580417219.65034,0.730724040588999,-0.155519951171129,0.699473563744565
1580417219.65434,0.728770885786222,-0.160402838178072,0.698496986343176
1580417219.65833,0.730724040588999,-0.160402838178072,0.697520408941788
1580417219.66233,0.729747463187611,-0.163820859082932,0.693125810635539
1580417219.66632,0.727794308384833,-0.163820859082932,0.690684367132068
1580417219.67031,0.731700617990388,-0.162844281681544,0.686778057526514
1580417219.67431,0.734630350194553,-0.165285725185015,0.678477149614711
1580417219.6783,0.739513237201496,-0.166750591287098,0.669199664301519
1580417219.6823,0.743419546807051,-0.165774013885709,0.668711375600825
1580417219.68629,0.749767299916076,-0.164797436484321,0.665781643396659
1580417219.69028,0.753185320820936,-0.168703746089875,0.657969024185551
1580417219.69428,0.758068207827879,-0.166262302586404,0.663340199893188
1580417219.69827,0.759533073929962,-0.167238879987792,0.659922178988328
1580417219.70227,0.760997940032045,-0.166262302586404,0.666758220798048
1580417219.70626,0.760509651331351,-0.163332570382238,0.667734798199437
1580417219.71025,0.761486228732739,-0.169192034790569,0.667734798199437
1580417219.71426,0.758556496528573,-0.164797436484321,0.658945601586939
1580417219.71826,0.763439383535516,-0.163820859082932,0.653086137178608
1580417219.72225,0.760021362630656,-0.163332570382238,0.652597848477914
1580417219.72625,0.758068207827879,-0.162355992980849,0.647226672770277
1580417219.73024,0.751232166018159,-0.163332570382238,0.642343785763334
1580417219.73423,0.756115053025102,-0.159914549477378,0.649179827573054
1580417219.73823,0.754650186923019,-0.164309147783626,0.649179827573054
1580417219.74222,0.749767299916076,-0.162844281681544,0.652597848477914
1580417219.74621,0.746837567711911,-0.160402838178072,0.649668116273748
1580417219.75021,0.748302433813993,-0.156496528572518,0.657969024185551
1580417219.7542,0.743907835507745,-0.159426260776684,0.657480735484857
1580417219.7582,0.743419546807051,-0.155031662470435,0.658945601586939
1580417219.76219,0.740489814602885,-0.151125352864881,0.652597848477914
1580417219.76619,0.742442969405662,-0.145265888456549,0.655039291981385
1580417219.77018,0.740001525902191,-0.141847867551689,0.65210955977722
1580417219.77417,0.741466392004273,-0.134523537041275,0.649179827573054
1580417219.77817,0.742931258106356,-0.132082093537804,0.642832074464028
1580417219.78216,0.745860990310522,-0.126710917830167,0.638925764858474
1580417219.78615,0.750743877317465,-0.123781185626001,0.634042877851531
1580417219.79015,0.752208743419548,-0.119386587319752,0.632578011749448
1580417219.79413,0.754161898222325,-0.115480277714198,0.628671702143894
1580417219.79812,0.758068207827879,-0.119386587319752,0.625741969939728
1580417219.80212,0.760509651331351,-0.118410009918364,0.623788815136951
1580417219.80611,0.760997940032045,-0.118410009918364,0.624277103837645
1580417219.8101,0.762462806134128,-0.120363164721141,0.624277103837645
1580417219.8141,0.763439383535516,-0.119386587319752,0.622812237735562
1580417219.81809,0.759533073929962,-0.120363164721141,0.6281834134432
1580417219.82209,0.761974517433433,-0.118410009918364,0.62134737163348
1580417219.82608,0.76392767223621,-0.116945143816281,0.620859082932785
1580417219.83007,0.765392538338293,-0.112550545510032,0.622812237735562
1580417219.83407,0.76392767223621,-0.113038834210727,0.625253681239034
1580417219.83806,0.76734569314107,-0.11108567940795,0.627206836041811
1580417219.84206,0.768322270542459,-0.106691081101701,0.627206836041811
1580417219.84605,0.766857404440376,-0.103761348897535,0.632578011749448
1580417219.85004,0.76734569314107,-0.110109102006561,0.63501945525292
1580417219.85404,0.770275425345236,-0.106691081101701,0.63843747615778
1580417219.85803,0.770275425345236,-0.105714503700312,0.634042877851531
1580417219.86203,0.770275425345236,-0.106202792401007,0.639414053559168
1580417219.86602,0.762462806134128,-0.105226214999618,0.640878919661251
1580417219.87001,0.761974517433433,-0.105714503700312,0.644296940566111
1580417219.87402,0.758068207827879,-0.106691081101701,0.642832074464028
1580417219.87802,0.755138475623713,-0.107179369802395,0.651132982375831
1580417219.88201,0.749767299916076,-0.110109102006561,0.656504158083468
1580417219.886,0.746349279011216,-0.117433432516975,0.661387045090411
1580417219.89,0.745860990310522,-0.117433432516975,0.661387045090411
1580417219.89399,0.740978103303579,-0.123292896925307,0.671641107804991
1580417219.89799,0.736583504997331,-0.131105516136415,0.681895170519571
1580417219.90198,0.739024948500802,-0.137941557946135,0.693125810635539
1580417219.90597,0.741954680704968,-0.140383001449607,0.700938429846648
1580417219.90997,0.740489814602885,-0.147219043259327,0.707286182955674
1580417219.91396,0.741466392004273,-0.153078507667658,0.718516823071642
1580417219.91796,0.744396124208439,-0.158937972075989,0.726817730983445
1580417219.92195,0.746837567711911,-0.164309147783626,0.737560082398719
1580417219.92595,0.744884412909133,-0.166750591287098,0.744396124208439
1580417219.92994,0.741466392004273,-0.168703746089875,0.754161898222325
1580417219.93393,0.736583504997331,-0.166262302586404,0.762951094834822
1580417219.93793,0.729259174486916,-0.161867704280155,0.760997940032045
1580417219.94192,0.726329442282751,-0.160891126878766,0.768322270542459
1580417219.94591,0.723399710078585,-0.157473105973907,0.768810559243153
1580417219.94991,0.719493400473031,-0.152590218966964,0.76392767223621
1580417219.95389,0.719005111772336,-0.152590218966964,0.760997940032045
1580417219.95788,0.715587090867476,-0.150637064164187,0.760021362630656
1580417219.96188,0.718028534370948,-0.149172198062104,0.755626764324408
1580417219.96587,0.723887998779279,-0.148683909361409,0.749279011215382
1580417219.96986,0.732677195391776,-0.152590218966964,0.751232166018159
1580417219.97386,0.744396124208439,-0.156984817273212,0.741954680704968
1580417219.97785,0.751720454718853,-0.163820859082932,0.740489814602885
1580417219.98184,0.762462806134128,-0.166262302586404,0.735118638895248
1580417219.98584,0.76734569314107,-0.168215457389181,0.730724040588999
1580417219.98983,0.76734569314107,-0.175051499198901,0.733165484092471
1580417219.99383,0.766369115739682,-0.173586633096818,0.732677195391776
1580417219.99782,0.762951094834822,-0.171145189593346,0.735118638895248
1580417220.00181,0.756603341725796,-0.168215457389181,0.728770885786222
1580417220.00581,0.751232166018159,-0.165285725185015,0.728282597085528
1580417220.0098,0.741954680704968,-0.164309147783626,0.719005111772336
1580417220.0138,0.734630350194553,-0.159426260776684,0.711680781261922
1580417220.01779,0.728770885786222,-0.153078507667658,0.702891584649425
1580417220.02179,0.718028534370948,-0.143801022354467,0.691172655832762
1580417220.02578,0.713633936064699,-0.139406424048218,0.683848325322348
1580417220.02977,0.709239337758451,-0.128664072632944,0.670176241702908
1580417220.03378,0.707286182955674,-0.118898298619058,0.663340199893188
1580417220.03778,0.707774471656368,-0.111573968108644,0.650156404974442
1580417220.04177,0.710215915159839,-0.101808194094758,0.640390630960557
1580417220.04576,0.711680781261922,-0.0959487296864268,0.641367208361945
1580417220.04976,0.722423132677196,-0.0910658426794839,0.639902342259862
1580417220.05375,0.728282597085528,-0.0876478217746239,0.640878919661251
1580417220.05775,0.737560082398719,-0.0837415121690697,0.647226672770277
1580417220.06174,0.745372701609828,-0.0769054703593497,0.657969024185551
1580417220.06573,0.749279011215382,-0.0744640268558783,0.674570840009157
1580417220.06973,0.751720454718853,-0.0710460059510183,0.689219501029985
1580417220.07372,0.753185320820936,-0.0661631189440754,0.692149233234151
1580417220.07772,0.755138475623713,-0.0642099641412983,0.690684367132068
1580417220.08171,0.755138475623713,-0.0588387884336612,0.678965438315405
1580417220.0857,0.755626764324408,-0.0583504997329669,0.661875333791105
1580417220.0897,0.755626764324408,-0.0515144579232469,0.647714961470971
1580417220.09369,0.758556496528573,-0.0461432822156098,0.635996032654308
1580417220.09769,0.762951094834822,-0.0383306630045013,0.634531166552225
1580417220.10168,0.766369115739682,-0.034424353398947,0.624277103837645
1580417220.10567,0.774670023651485,-0.0314946211947813,0.618905928130008
1580417220.10967,0.77759975585565,-0.031006332494087,0.616464484626537
1580417220.11365,0.78101777676051,-0.0300297550926985,0.6110933089189
1580417220.11764,0.785412375066759,-0.0246585793850613,0.613046463721677
1580417220.12163,0.790295262073702,-0.0231937132829785,0.623300526436257
1580417220.12563,0.799572747386893,-0.0217288471808956,0.626230258640422
1580417220.12962,0.809338521400779,-0.0178225375753414,0.615976195925843
1580417220.13362,0.814221408407722,-0.0153810940718699,0.614999618524454
1580417220.13761,0.816174563210499,-0.01196307316701,0.611581597619594
1580417220.1416,0.80836194399939,-0.0124513618677042,0.602792401007097
1580417220.1456,0.805920500495919,-0.0104982070649271,0.601815823605708
1580417220.14959,0.797619592584116,-0.0134279392690928,0.59742122529946
1580417220.15359,0.79468986037995,-0.0251468680857556,0.609628442816817
1580417220.15758,0.790295262073702,-0.037842374303807,0.615487907225148
1580417220.16157,0.786877241168842,-0.0534676127260241,0.616952773327231
1580417220.16557,0.776623178454262,-0.0759288929579611,0.623788815136951
1580417220.16956,0.768322270542459,-0.0944838635843439,0.637460898756391
1580417220.17356,0.752208743419548,-0.112062256809338,0.648203250171665
1580417220.17755,0.735606927595942,-0.130617227435721,0.659433890287634
1580417220.18155,0.720958266575114,-0.150148775463492,0.677012283512628
1580417220.18554,0.705333028152896,-0.173586633096818,0.686778057526514
1580417220.18953,0.697520408941788,-0.197024490730143,0.698008697642482
1580417220.19354,0.696543831540399,-0.225833524071106,0.702403295948731
1580417220.19754,0.695567254139011,-0.251712825207905,0.707774471656368
1580417220.20153,0.697520408941788,-0.275150682841231,0.715098802166782
1580417220.20552,0.702403295948731,-0.297123674372473,0.723399710078585
1580417220.20952,0.707286182955674,-0.317631799801633,0.728282597085528
1580417220.21351,0.712169069962616,-0.332768749523156,0.732188906691082
1580417220.21751,0.719493400473031,-0.341557946135653,0.737560082398719
1580417220.2215,0.725352864881362,-0.352788586251622,0.748790722514688
1580417220.22549,0.732677195391776,-0.363530937666896,0.752208743419548
1580417220.22949,0.738536659800108,-0.365972381170367,0.753673609521631
1580417220.23348,0.739513237201496,-0.362066071564813,0.758068207827879
1580417220.23748,0.743419546807051,-0.360112916762036,0.756115053025102
1580417220.24147,0.739024948500802,-0.351323720149539,0.746349279011216
1580417220.24546,0.732188906691082,-0.343022812237736,0.737560082398719
1580417220.24946,0.727794308384833,-0.334233615625239,0.725352864881362
1580417220.25345,0.717051956969559,-0.321049820706493,0.724376287479974
1580417220.25745,0.707286182955674,-0.308354314488442,0.715098802166782
1580417220.26144,0.698985275043871,-0.297611963073168,0.703868162050814
1580417220.26543,0.699473563744565,-0.283451590753033,0.691660944533457
1580417220.26943,0.701426718547342,-0.270756084534982,0.679453727016099
1580417220.27341,0.702891584649425,-0.263431754024568,0.668223086900131
1580417220.2774,0.710704203860534,-0.256107423514154,0.65210955977722
1580417220.28139,0.716563668268865,-0.252689402609294,0.643320363164722
1580417220.28539,0.728770885786222,-0.248783093003738,0.634531166552225
1580417220.28938,0.741466392004273,-0.249271381704432,0.626230258640422
1580417220.29338,0.750743877317465,-0.251712825207905,0.622323949034868
1580417220.29737,0.747325856412605,-0.251712825207905,0.61451132982376
1580417220.30136,0.750255588616771,-0.247318226901655,0.619882505531397
1580417220.30536,0.742931258106356,-0.247806515602349,0.619882505531397
1580417220.30935,0.728282597085528,-0.240970473792629,0.623300526436257
1580417220.31335,0.718516823071642,-0.228763256275272,0.625253681239034
1580417220.31734,0.703379873350119,-0.213626306553749,0.627695124742505
1580417220.32133,0.687754634927902,-0.196536202029449,0.633066300450142
1580417220.32533,0.672129396505685,-0.175539787899595,0.635507743953614
1580417220.32932,0.665293354695965,-0.154055085069047,0.633554589150837
1580417220.33332,0.665293354695965,-0.134035248340581,0.629159990844588
1580417220.33731,0.669687953002214,-0.115968566414892,0.626230258640422
1580417220.3413,0.677988860914017,-0.104737926298924,0.622812237735562
1580417220.3453,0.693614099336234,-0.0900892652780954,0.613534752422371
1580417220.34929,0.709727626459145,-0.0798352025635154,0.613046463721677
1580417220.3533,0.724376287479974,-0.0764171816586554,0.608163576714734
1580417220.3573,0.740489814602885,-0.0734874494544897,0.616952773327231
1580417220.36129,0.752208743419548,-0.0681162737468526,0.627695124742505
1580417220.36528,0.768810559243153,-0.0627450980392155,0.640878919661251
1580417220.36928,0.77759975585565,-0.0607919432364383,0.65552758068208
1580417220.37327,0.785412375066759,-0.0559090562294955,0.668711375600825
1580417220.37727,0.792736705577173,-0.0510261692225527,0.679942015716794
1580417220.38126,0.800549324788282,-0.0485847257190812,0.689219501029985
1580417220.38525,0.805920500495919,-0.048096437018387,0.696543831540399
1580417220.38925,0.810315098802167,-0.0471198596169984,0.689707789730679
1580417220.39324,0.810803387502862,-0.0461432822156098,0.695567254139011
1580417220.39723,0.802990768291753,-0.0441901274128327,0.702403295948731
1580417220.40123,0.79127183947509,-0.0437018387121384,0.698985275043871
1580417220.40522,0.781506065461205,-0.0451667048142212,0.703868162050814
1580417220.40922,0.768810559243153,-0.0510261692225527,0.704844739452202
1580417220.41321,0.760997940032045,-0.0583504997329669,0.705821316853591
1580417220.4172,0.751720454718853,-0.0715342946517126,0.705821316853591
1580417220.4212,0.741466392004273,-0.0778820477607383,0.702403295948731
1580417220.42519,0.725841153582056,-0.0896009765774011,0.705333028152896
1580417220.42919,0.717540245670254,-0.0979018844892039,0.701426718547342
1580417220.43317,0.715098802166782,-0.105714503700312,0.702403295948731
1580417220.43716,0.708262760357062,-0.109132524605172,0.702891584649425
1580417220.44115,0.704356450751508,-0.109620813305867,0.705333028152896
1580417220.44515,0.695567254139011,-0.10766765850309,0.714122224765394
1580417220.44914,0.697032120241094,-0.108155947203784,0.709239337758451
1580417220.45314,0.695078965438316,-0.10424963759823,0.719005111772336
1580417220.45713,0.698008697642482,-0.103761348897535,0.715587090867476
1580417220.46112,0.698496986343176,-0.101808194094758,0.726329442282751
1580417220.46512,0.692149233234151,-0.0993667505912867,0.735606927595942
1580417220.46911,0.690196078431374,-0.0954604409857325,0.746837567711911
1580417220.47311,0.689219501029985,-0.0944838635843439,0.756603341725796
1580417220.4771,0.688731212329291,-0.0910658426794839,0.761486228732739
1580417220.48109,0.689219501029985,-0.0881361104753182,0.766857404440376
1580417220.48509,0.691172655832762,-0.0856946669718468,0.765880827038988
1580417220.48908,0.694102388036928,-0.0778820477607383,0.762462806134128
1580417220.49308,0.692637521934845,-0.0759288929579611,0.754650186923019
1580417220.49707,0.699473563744565,-0.0700694285496297,0.757579919127185
1580417220.50106,0.701915007248036,-0.0651865415426869,0.751720454718853
1580417220.50506,0.709727626459145,-0.0656748302433812,0.745372701609828
1580417220.50905,0.714610513466088,-0.0676279850461583,0.734630350194553
1580417220.51306,0.726817730983445,-0.0734874494544897,0.725841153582056
1580417220.51706,0.735606927595942,-0.0729991607537954,0.707774471656368
1580417220.52105,0.741466392004273,-0.0813000686655982,0.704356450751508
1580417220.52504,0.744884412909133,-0.0842298008697639,0.697032120241094
1580417220.52904,0.746837567711911,-0.0930189974822611,0.688242923628597
1580417220.53303,0.746349279011216,-0.101808194094758,0.697520408941788
1580417220.53702,0.744884412909133,-0.113038834210727,0.694102388036928
1580417220.54102,0.735606927595942,-0.119386587319752,0.698008697642482
1580417220.54501,0.726329442282751,-0.129152361333638,0.690196078431374
1580417220.54901,0.716075379568171,-0.138429846646829,0.687266346227208
1580417220.553,0.705821316853591,-0.148195620660715,0.683848325322348
1580417220.55699,0.695078965438316,-0.156984817273212,0.687754634927902
1580417220.56099,0.679453727016099,-0.172121766994735,0.686289768825819
1580417220.56498,0.672129396505685,-0.183840695811398,0.685313191424431
1580417220.56898,0.668711375600825,-0.189211871519035,0.693614099336234
1580417220.57297,0.662851911192494,-0.193118181124589,0.693614099336234
1580417220.57696,0.659433890287634,-0.197512779430838,0.693125810635539
1580417220.58096,0.662851911192494,-0.203372243839169,0.689707789730679
1580417220.58495,0.669687953002214,-0.206790264744029,0.694590676737622
1580417220.58895,0.680918593118182,-0.214602883955138,0.688242923628597
1580417220.59293,0.688731212329291,-0.214602883955138,0.684824902723737
1580417220.59692,0.698496986343176,-0.218020904859998,0.676035706111239
1580417220.60091,0.712657358663311,-0.224856946669718,0.672129396505685
1580417220.60491,0.729747463187611,-0.228274967574578,0.669687953002214
1580417220.6089,0.743419546807051,-0.223880369268329,0.666758220798048
1580417220.6129,0.750255588616771,-0.224368657969023,0.670176241702908
1580417220.61689,0.755626764324408,-0.221438925764858,0.672617685206379
1580417220.62088,0.754650186923019,-0.213138017853055,0.678965438315405
1580417220.62488,0.755626764324408,-0.207278553444723,0.685801480125125
1580417220.62887,0.760021362630656,-0.200930800335698,0.694102388036928
1580417220.63287,0.756603341725796,-0.198001068131532,0.693125810635539
1580417220.63686,0.752697032120242,-0.188235294117646,0.683360036621654
1580417220.64085,0.743419546807051,-0.181399252307926,0.678965438315405
1580417220.64485,0.739024948500802,-0.171633478294041,0.675059128709851
1580417220.64884,0.739513237201496,-0.166750591287098,0.672129396505685
1580417220.65283,0.737560082398719,-0.160402838178072,0.670664530403602
1580417220.65683,0.734142061493859,-0.150637064164187,0.669199664301519
1580417220.66082,0.730235751888305,-0.149172198062104,0.673105973907074
1580417220.66482,0.732188906691082,-0.138918135347524,0.678965438315405
1580417220.66881,0.726817730983445,-0.131593804837109,0.674570840009157
1580417220.67282,0.725841153582056,-0.125734340428778,0.678965438315405
1580417220.67682,0.721446555275808,-0.122316319523918,0.674082551308462
1580417220.68081,0.718028534370948,-0.12133974212253,0.671152819104297
1580417220.6848,0.712657358663311,-0.119386587319752,0.670664530403602
1580417220.6888,0.705333028152896,-0.119386587319752,0.668711375600825
1580417220.69279,0.704356450751508,-0.11108567940795,0.676523994811934
1580417220.69678,0.705821316853591,-0.108644235904478,0.683360036621654
1580417220.70078,0.710215915159839,-0.106691081101701,0.687266346227208
1580417220.70477,0.711192492561228,-0.102296482795452,0.695567254139011
1580417220.70877,0.715098802166782,-0.0988784618905925,0.698496986343176
1580417220.71276,0.721934843976502,-0.096437018387121,0.695567254139011
1580417220.71675,0.723887998779279,-0.0915541313801782,0.697520408941788
1580417220.72075,0.729747463187611,-0.0871595330739297,0.697520408941788
1580417220.72474,0.736583504997331,-0.0881361104753182,0.691172655832762
1580417220.72874,0.744884412909133,-0.0861829556725411,0.689219501029985
1580417220.73273,0.749279011215382,-0.0822766460669868,0.686289768825819
1580417220.73672,0.753673609521631,-0.0817883573662925,0.689707789730679
1580417220.74072,0.754161898222325,-0.077393759060044,0.687754634927902
1580417220.74471,0.760509651331351,-0.0813000686655982,0.697520408941788
1580417220.74871,0.762462806134128,-0.0803234912642097,0.703868162050814
1580417220.75268,0.761974517433433,-0.0783703364614325,0.707774471656368
1580417220.75668,0.758068207827879,-0.077393759060044,0.709727626459145
1580417220.76067,0.755626764324408,-0.077393759060044,0.713145647364005
1580417220.76467,0.748302433813993,-0.0832532234683754,0.710704203860534
1580417220.76866,0.741954680704968,-0.0886243991760125,0.708751049057756
1580417220.77266,0.735606927595942,-0.0915541313801782,0.706309605554285
1580417220.77665,0.727794308384833,-0.0939955748836496,0.707286182955674
1580417220.78064,0.720469977874419,-0.0988784618905925,0.705821316853591
1580417220.78464,0.715098802166782,-0.0944838635843439,0.707774471656368
1580417220.78863,0.709239337758451,-0.0979018844892039,0.717051956969559
1580417220.79262,0.706309605554285,-0.0949721522850382,0.717051956969559
1580417220.79662,0.703379873350119,-0.0954604409857325,0.717540245670254
1580417220.80061,0.696543831540399,-0.0969253070878153,0.715587090867476
1580417220.80461,0.692149233234151,-0.0969253070878153,0.717051956969559
1580417220.8086,0.696543831540399,-0.0954604409857325,0.722423132677196
1580417220.81259,0.698496986343176,-0.0949721522850382,0.723887998779279
1580417220.81659,0.697520408941788,-0.096437018387121,0.730724040588999
1580417220.82058,0.694590676737622,-0.0939955748836496,0.729747463187611
1580417220.82458,0.696055542839705,-0.0939955748836496,0.733653772793165
1580417220.82857,0.694102388036928,-0.0949721522850382,0.732677195391776
1580417220.83258,0.696543831540399,-0.0920424200808725,0.732677195391776
1580417220.83657,0.696543831540399,-0.0876478217746239,0.730235751888305
1580417220.84057,0.692149233234151,-0.0817883573662925,0.726817730983445
1580417220.84456,0.688731212329291,-0.0778820477607383,0.723887998779279
1580417220.84856,0.683848325322348,-0.0656748302433812,0.722911421377891
1580417220.85255,0.681406881818877,-0.0627450980392155,0.723887998779279
1580417220.85654,0.676035706111239,-0.0573739223315783,0.730235751888305
1580417220.86054,0.678965438315405,-0.0539559014267184,0.726817730983445
1580417220.86453,0.682871747920959,-0.0505378805218584,0.716563668268865
1580417220.86853,0.686289768825819,-0.0490730144197755,0.713145647364005
1580417220.87252,0.691172655832762,-0.0500495918211641,0.709727626459145
1580417220.87651,0.696543831540399,-0.0534676127260241,0.709239337758451
1580417220.88051,0.701915007248036,-0.0612802319371326,0.705333028152896
1580417220.8845,0.708751049057756,-0.0642099641412983,0.715098802166782
1580417220.8885,0.716563668268865,-0.0754406042572668,0.714610513466088
1580417220.89249,0.721446555275808,-0.0891126878767068,0.716563668268865
1580417220.89648,0.718516823071642,-0.100343327992675,0.725352864881362
1580417220.90048,0.717540245670254,-0.113527122911421,0.725841153582056
1580417220.90447,0.711680781261922,-0.123292896925307,0.731700617990388
1580417220.90847,0.712657358663311,-0.130617227435721,0.727306019684139
1580417220.91244,0.712169069962616,-0.138429846646829,0.727794308384833
1580417220.91644,0.710215915159839,-0.147219043259327,0.730235751888305
1580417220.92043,0.713633936064699,-0.153078507667658,0.720469977874419
1580417220.92443,0.717540245670254,-0.157473105973907,0.711192492561228
1580417220.92842,0.719981689173725,-0.164309147783626,0.707774471656368
1580417220.93242,0.722911421377891,-0.169192034790569,0.694590676737622
1580417220.93641,0.724376287479974,-0.172121766994735,0.694102388036928
1580417220.9404,0.724376287479974,-0.175051499198901,0.692149233234151
1580417220.9444,0.724376287479974,-0.168215457389181,0.689219501029985
1580417220.94839,0.727794308384833,-0.166750591287098,0.681895170519571
1580417220.95238,0.729259174486916,-0.157473105973907,0.674570840009157
1580417220.95638,0.729747463187611,-0.153566796368352,0.670176241702908
1580417220.96037,0.731700617990388,-0.148683909361409,0.662363622491799
1580417220.96437,0.729259174486916,-0.146730754558632,0.664805065995271
1580417220.96836,0.734142061493859,-0.144289311055161,0.661875333791105
1580417220.97235,0.730724040588999,-0.140383001449607,0.664316777294577
1580417220.97635,0.728282597085528,-0.144777599755855,0.667246509498742
1580417220.98034,0.726329442282751,-0.147707331960021,0.663828488593882
1580417220.98434,0.719493400473031,-0.153078507667658,0.670664530403602
1580417220.98833,0.714122224765394,-0.147707331960021,0.676523994811934
1580417220.99234,0.702891584649425,-0.149172198062104,0.680430304417488
1580417220.99633,0.703379873350119,-0.143801022354467,0.676035706111239
1580417221.00033,0.698496986343176,-0.136964980544747,0.682383459220265
1580417221.00432,0.697032120241094,-0.133546959639887,0.684824902723737
1580417221.00832,0.699473563744565,-0.132082093537804,0.691172655832762
1580417221.01231,0.697520408941788,-0.133058670939192,0.702403295948731
1580417221.0163,0.699473563744565,-0.135988403143358,0.705821316853591
1580417221.0203,0.704844739452202,-0.137941557946135,0.709727626459145
1580417221.02429,0.706797894254979,-0.140383001449607,0.713633936064699
1580417221.02829,0.712169069962616,-0.141847867551689,0.714122224765394
1580417221.03228,0.716075379568171,-0.138918135347524,0.720469977874419
1580417221.03627,0.717051956969559,-0.135500114442664,0.717540245670254
1580417221.04027,0.724376287479974,-0.134523537041275,0.724376287479974
1580417221.04426,0.729747463187611,-0.132082093537804,0.726329442282751
1580417221.04826,0.734630350194553,-0.132570382238498,0.720958266575114
1580417221.05225,0.738048371099413,-0.135011825741969,0.714122224765394
1580417221.05624,0.739513237201496,-0.141359578850995,0.719005111772336
1580417221.06024,0.740001525902191,-0.143312733653772,0.719493400473031
1580417221.06423,0.741954680704968,-0.145754177157244,0.716563668268865
1580417221.06822,0.739513237201496,-0.141847867551689,0.716563668268865
1580417221.07223,0.737560082398719,-0.137453269245441,0.718028534370948
1580417221.07623,0.736583504997331,-0.134523537041275,0.717540245670254
1580417221.08022,0.732677195391776,-0.129640650034332,0.712657358663311
1580417221.08422,0.727794308384833,-0.127687495231555,0.709239337758451
1580417221.08821,0.726329442282751,-0.125734340428778,0.707286182955674
1580417221.09221,0.722911421377891,-0.125246051728084,0.703868162050814
1580417221.0962,0.722911421377891,-0.122804608224612,0.709239337758451
1580417221.10019,0.719493400473031,-0.119386587319752,0.710215915159839
1580417221.10419,0.720469977874419,-0.111573968108644,0.716075379568171
1580417221.10818,0.718028534370948,-0.104737926298924,0.714122224765394
1580417221.11217,0.720469977874419,-0.0930189974822611,0.709239337758451
1580417221.11617,0.724864576180668,-0.0920424200808725,0.696055542839705
1580417221.12016,0.729259174486916,-0.0871595330739297,0.690684367132068
1580417221.12416,0.733165484092471,-0.0837415121690697,0.686289768825819
1580417221.12815,0.732188906691082,-0.0837415121690697,0.681406881818877
1580417221.13214,0.736095216296636,-0.0803234912642097,0.683360036621654
1580417221.13614,0.730724040588999,-0.080811779964904,0.682871747920959
1580417221.14013,0.730724040588999,-0.0817883573662925,0.693614099336234
1580417221.14413,0.728282597085528,-0.0793469138628211,0.695567254139011
1580417221.14812,0.721934843976502,-0.0734874494544897,0.705821316853591
1580417221.1521,0.714610513466088,-0.067139696345464,0.702891584649425
1580417221.15609,0.715587090867476,-0.0632333867399097,0.695567254139011
1580417221.16009,0.715587090867476,-0.0598153658350498,0.688731212329291
1580417221.16408,0.712657358663311,-0.0598153658350498,0.684824902723737
1580417221.16807,0.712657358663311,-0.0588387884336612,0.681406881818877
1580417221.17207,0.714122224765394,-0.0578622110322726,0.684336614023042
1580417221.17606,0.714122224765394,-0.060303654535744,0.685313191424431
1580417221.18006,0.718516823071642,-0.0607919432364383,0.689707789730679
1580417221.18405,0.719981689173725,-0.0646982528419926,0.689707789730679
1580417221.18805,0.724376287479974,-0.0656748302433812,0.695078965438316
1580417221.19204,0.720958266575114,-0.0676279850461583,0.694590676737622
1580417221.19603,0.720958266575114,-0.0666514076447697,0.688242923628597
1580417221.20003,0.722911421377891,-0.0646982528419926,0.695078965438316
1580417221.20402,0.724864576180668,-0.0632333867399097,0.700938429846648
1580417221.20801,0.723887998779279,-0.0583504997329669,0.713145647364005
1580417221.21201,0.723399710078585,-0.0544441901274126,0.728282597085528
1580417221.216,0.723399710078585,-0.0466315709163041,0.731700617990388
1580417221.22,0.726817730983445,-0.0437018387121384,0.736095216296636
1580417221.22399,0.728282597085528,-0.0451667048142212,0.729259174486916
1580417221.22798,0.730724040588999,-0.0549324788281069,0.721446555275808
1580417221.23199,0.734142061493859,-0.060303654535744,0.722911421377891
1580417221.23599,0.729747463187611,-0.0656748302433812,0.737071793698025
1580417221.23998,0.722911421377891,-0.0681162737468526,0.748302433813993
1580417221.24398,0.716563668268865,-0.0720225833524069,0.749767299916076
1580417221.24797,0.711680781261922,-0.0778820477607383,0.742931258106356
1580417221.25196,0.711680781261922,-0.0783703364614325,0.741954680704968
1580417221.25596,0.710215915159839,-0.0803234912642097,0.734630350194553
1580417221.25995,0.716563668268865,-0.0847180895704582,0.729259174486916
1580417221.26395,0.720958266575114,-0.0861829556725411,0.739513237201496
1580417221.26794,0.725841153582056,-0.0871595330739297,0.740489814602885
1580417221.27193,0.724376287479974,-0.0866712443732354,0.740489814602885
1580417221.27593,0.724864576180668,-0.0842298008697639,0.741954680704968
1580417221.27992,0.724864576180668,-0.0793469138628211,0.740001525902191
1580417221.28392,0.715098802166782,-0.0686045624475469,0.749279011215382
1580417221.28791,0.708751049057756,-0.0573739223315783,0.754161898222325
1580417221.2919,0.698985275043871,-0.048096437018387,0.753673609521631
1580417221.2959,0.694590676737622,-0.0422369726100555,0.745860990310522
1580417221.29989,0.688242923628597,-0.0368657969024184,0.733165484092471
1580417221.30389,0.683360036621654,-0.0373540856031127,0.719981689173725
1580417221.30788,0.680918593118182,-0.0417486839093613,0.714122224765394
1580417221.31189,0.674570840009157,-0.0485847257190812,0.713145647364005
1580417221.31588,0.670664530403602,-0.0612802319371326,0.722911421377891
1580417221.31988,0.670176241702908,-0.0715342946517126,0.728770885786222
1580417221.32387,0.676035706111239,-0.0793469138628211,0.733165484092471
1580417221.32786,0.679453727016099,-0.0866712443732354,0.734142061493859
1580417221.33186,0.677988860914017,-0.0915541313801782,0.736095216296636
1580417221.33585,0.685801480125125,-0.0974135957885096,0.734142061493859
1580417221.33985,0.689219501029985,-0.0915541313801782,0.737071793698025
1580417221.34384,0.696543831540399,-0.0822766460669868,0.740978103303579
1580417221.34783,0.700450141145954,-0.077393759060044,0.742931258106356
1580417221.35183,0.709239337758451,-0.0729991607537954,0.739513237201496
1580417221.35582,0.710704203860534,-0.0710460059510183,0.735118638895248
1580417221.35982,0.715587090867476,-0.0725108720531011,0.725352864881362
1580417221.36381,0.719981689173725,-0.0817883573662925,0.717051956969559
1580417221.36781,0.723399710078585,-0.0886243991760125,0.711680781261922
1580417221.3718,0.718516823071642,-0.0930189974822611,0.705333028152896
1580417221.37579,0.721446555275808,-0.101319905394064,0.702403295948731
1580417221.37979,0.718516823071642,-0.107179369802395,0.703868162050814
1580417221.38378,0.724376287479974,-0.108644235904478,0.700938429846648
1580417221.38777,0.720958266575114,-0.108155947203784,0.705821316853591
1580417221.39175,0.718028534370948,-0.108155947203784,0.698496986343176
1580417221.39575,0.719005111772336,-0.104737926298924,0.697520408941788
1580417221.39974,0.719981689173725,-0.103761348897535,0.695567254139011
1580417221.40374,0.717051956969559,-0.106691081101701,0.697520408941788
1580417221.40773,0.714122224765394,-0.107179369802395,0.703379873350119
1580417221.41172,0.715587090867476,-0.10766765850309,0.704356450751508
1580417221.41572,0.707774471656368,-0.106691081101701,0.703379873350119
1580417221.41971,0.707286182955674,-0.104737926298924,0.701915007248036
1580417221.42371,0.712169069962616,-0.104737926298924,0.700938429846648
1580417221.4277,0.711192492561228,-0.106202792401007,0.698496986343176
1580417221.43169,0.708751049057756,-0.10424963759823,0.700450141145954
1580417221.43569,0.708751049057756,-0.103273060196841,0.701915007248036
1580417221.43968,0.708751049057756,-0.0983901731898982,0.700938429846648
1580417221.44368,0.707286182955674,-0.0896009765774011,0.701426718547342
1580417221.44767,0.709727626459145,-0.0842298008697639,0.705821316853591
1580417221.45166,0.710215915159839,-0.080811779964904,0.708262760357062
1580417221.45566,0.715587090867476,-0.0778820477607383,0.710215915159839
1580417221.45965,0.719981689173725,-0.0832532234683754,0.707774471656368
1580417221.46365,0.726817730983445,-0.0813000686655982,0.699961852445259
1580417221.46764,0.732188906691082,-0.0856946669718468,0.693125810635539
1580417221.47165,0.735606927595942,-0.0891126878767068,0.680430304417488
1580417221.47564,0.745372701609828,-0.0920424200808725,0.679942015716794
1580417221.47964,0.749279011215382,-0.0896009765774011,0.677012283512628
1580417221.48363,0.756115053025102,-0.0900892652780954,0.676523994811934
1580417221.48762,0.761974517433433,-0.0915541313801782,0.676035706111239
1580417221.49162,0.761974517433433,-0.0925307087815668,0.667246509498742
1580417221.49561,0.763439383535516,-0.0910658426794839,0.669199664301519
1580417221.49961,0.761486228732739,-0.0925307087815668,0.664316777294577
1580417221.5036,0.766857404440376,-0.0974135957885096,0.669687953002214
1580417221.50759,0.764904249637599,-0.0974135957885096,0.661387045090411
1580417221.51159,0.756603341725796,-0.105714503700312,0.664805065995271
1580417221.51558,0.752208743419548,-0.110597390707255,0.665293354695965
1580417221.51958,0.740001525902191,-0.116456855115587,0.670664530403602
1580417221.52357,0.732188906691082,-0.120851453421835,0.669199664301519
1580417221.52757,0.726817730983445,-0.12475776302739,0.668711375600825
1580417221.53156,0.720469977874419,-0.122316319523918,0.666269932097354
1580417221.53555,0.718516823071642,-0.12133974212253,0.674570840009157
1580417221.53955,0.721934843976502,-0.116456855115587,0.684824902723737
1580417221.54354,0.722911421377891,-0.11108567940795,0.692149233234151
1580417221.54753,0.725352864881362,-0.106202792401007,0.704356450751508
1580417221.55151,0.729747463187611,-0.103273060196841,0.708262760357062
1580417221.55551,0.731212329289693,-0.101319905394064,0.723399710078585
1580417221.5595,0.731700617990388,-0.0983901731898982,0.730235751888305
1580417221.56349,0.724376287479974,-0.0988784618905925,0.734142061493859
1580417221.56749,0.721934843976502,-0.0949721522850382,0.735606927595942
1580417221.57148,0.715098802166782,-0.0920424200808725,0.737560082398719
1580417221.57548,0.710704203860534,-0.0910658426794839,0.732677195391776
1580417221.57947,0.706309605554285,-0.0905775539787896,0.731700617990388
1580417221.58346,0.704356450751508,-0.0871595330739297,0.724864576180668
1580417221.58746,0.708751049057756,-0.0905775539787896,0.719005111772336
1580417221.59145,0.711192492561228,-0.0900892652780954,0.716075379568171
1580417221.59545,0.717540245670254,-0.0925307087815668,0.709727626459145
1580417221.59944,0.725352864881362,-0.0930189974822611,0.705333028152896
1580417221.60344,0.728770885786222,-0.0930189974822611,0.703868162050814
1580417221.60743,0.735118638895248,-0.096437018387121,0.706797894254979
1580417221.61142,0.741466392004273,-0.0959487296864268,0.705821316853591
1580417221.61542,0.742931258106356,-0.0979018844892039,0.709239337758451
1580417221.61941,0.744884412909133,-0.0979018844892039,0.700938429846648
1580417221.6234,0.740001525902191,-0.0949721522850382,0.707286182955674
1580417221.6274,0.734142061493859,-0.0891126878767068,0.703379873350119
1580417221.63141,0.725352864881362,-0.0905775539787896,0.703868162050814
1580417221.6354,0.719005111772336,-0.0910658426794839,0.700938429846648
1580417221.6394,0.709239337758451,-0.0866712443732354,0.698985275043871
1580417221.64339,0.699961852445259,-0.0827649347676811,0.697520408941788
1580417221.64738,0.698008697642482,-0.0817883573662925,0.691660944533457
1580417221.65138,0.691172655832762,-0.0793469138628211,0.694590676737622
1580417221.65537,0.688731212329291,-0.0783703364614325,0.698985275043871
1580417221.65937,0.686289768825819,-0.0827649347676811,0.700938429846648
1580417221.66336,0.696055542839705,-0.0827649347676811,0.702891584649425
1580417221.66735,0.704844739452202,-0.0817883573662925,0.710704203860534
1580417221.67135,0.712657358663311,-0.077393759060044,0.709239337758451
1580417221.67534,0.719493400473031,-0.0725108720531011,0.712169069962616
1580417221.67934,0.731212329289693,-0.0725108720531011,0.707774471656368
1580417221.68333,0.741954680704968,-0.0661631189440754,0.709239337758451
1580417221.68732,0.745372701609828,-0.0612802319371326,0.712169069962616
1580417221.69132,0.751232166018159,-0.0642099641412983,0.708751049057756
1580417221.69531,0.751720454718853,-0.0632333867399097,0.710215915159839
1580417221.69931,0.751232166018159,-0.0642099641412983,0.714610513466088
1580417221.7033,0.745860990310522,-0.067139696345464,0.707774471656368
1580417221.70729,0.736583504997331,-0.0681162737468526,0.705821316853591
1580417221.71127,0.726329442282751,-0.0686045624475469,0.703379873350119
1580417221.71527,0.716563668268865,-0.067139696345464,0.699961852445259
1580417221.71926,0.712169069962616,-0.0651865415426869,0.700450141145954
1580417221.72325,0.705821316853591,-0.0617685206378269,0.697032120241094
1580417221.72725,0.705333028152896,-0.067139696345464,0.698008697642482
1580417221.73124,0.705821316853591,-0.067139696345464,0.705333028152896
1580417221.73524,0.710704203860534,-0.0715342946517126,0.708262760357062
1580417221.73923,0.713633936064699,-0.0754406042572668,0.701915007248036
1580417221.74322,0.709239337758451,-0.0759288929579611,0.706309605554285
1580417221.74722,0.708751049057756,-0.0788586251621268,0.703379873350119
1580417221.75121,0.703868162050814,-0.0764171816586554,0.705821316853591
1580417221.75521,0.705333028152896,-0.0700694285496297,0.718516823071642
1580417221.7592,0.700450141145954,-0.0646982528419926,0.718028534370948
1580417221.7632,0.699961852445259,-0.0622568093385212,0.720469977874419
1580417221.76719,0.698985275043871,-0.0627450980392155,0.723399710078585
1580417221.77118,0.700450141145954,-0.0700694285496297,0.719981689173725
1580417221.77518,0.703868162050814,-0.0817883573662925,0.721446555275808
1580417221.77917,0.707774471656368,-0.0842298008697639,0.723887998779279
1580417221.78316,0.711680781261922,-0.0910658426794839,0.725841153582056
1580417221.78716,0.712169069962616,-0.100343327992675,0.732188906691082
1580417221.79117,0.715587090867476,-0.101319905394064,0.734142061493859
1580417221.79516,0.717051956969559,-0.10766765850309,0.731212329289693
1580417221.79916,0.719005111772336,-0.110597390707255,0.735118638895248
1580417221.80315,0.719981689173725,-0.105714503700312,0.729747463187611
1580417221.80714,0.719005111772336,-0.101319905394064,0.724864576180668
1580417221.81114,0.719493400473031,-0.0954604409857325,0.730235751888305
1580417221.81513,0.722423132677196,-0.0925307087815668,0.725352864881362
1580417221.81913,0.729747463187611,-0.0920424200808725,0.718028534370948
1580417221.82312,0.735118638895248,-0.0925307087815668,0.713633936064699
1580417221.82711,0.735606927595942,-0.0900892652780954,0.718028534370948
1580417221.83111,0.729747463187611,-0.0896009765774011,0.712169069962616
1580417221.8351,0.730724040588999,-0.0852063782711525,0.710704203860534
1580417221.8391,0.732188906691082,-0.0842298008697639,0.711192492561228
1580417221.84309,0.732677195391776,-0.0852063782711525,0.712657358663311
1580417221.84708,0.735606927595942,-0.0842298008697639,0.710704203860534
1580417221.85108,0.736095216296636,-0.0837415121690697,0.702403295948731
1580417221.85507,0.733653772793165,-0.0803234912642097,0.702403295948731
1580417221.85907,0.728770885786222,-0.0803234912642097,0.706309605554285
1580417221.86306,0.723399710078585,-0.0813000686655982,0.692149233234151
1580417221.86705,0.719981689173725,-0.0837415121690697,0.683360036621654
1580417221.87103,0.715587090867476,-0.0842298008697639,0.677988860914017
1580417221.87503,0.712657358663311,-0.0876478217746239,0.674082551308462
1580417221.87902,0.711192492561228,-0.0910658426794839,0.676035706111239
1580417221.88301,0.711680781261922,-0.0930189974822611,0.674570840009157
1580417221.88701,0.712169069962616,-0.0935072861829553,0.680430304417488
1580417221.891,0.715587090867476,-0.0969253070878153,0.683360036621654
1580417221.895,0.719981689173725,-0.096437018387121,0.683360036621654
1580417221.89899,0.723887998779279,-0.0959487296864268,0.677988860914017
1580417221.90298,0.727794308384833,-0.0939955748836496,0.686289768825819
1580417221.90698,0.726329442282751,-0.0925307087815668,0.691172655832762
1580417221.91097,0.726329442282751,-0.0866712443732354,0.696543831540399
1580417221.91497,0.731212329289693,-0.0827649347676811,0.694590676737622
1580417221.91896,0.733653772793165,-0.0764171816586554,0.701915007248036
1580417221.92295,0.732188906691082,-0.0686045624475469,0.707774471656368
1580417221.92695,0.729747463187611,-0.0666514076447697,0.705333028152896
1580417221.93094,0.728770885786222,-0.0622568093385212,0.706309605554285
1580417221.93494,0.720469977874419,-0.0593270771343555,0.710215915159839
1580417221.93893,0.713633936064699,-0.0549324788281069,0.717051956969559
1580417221.94292,0.706797894254979,-0.0524910353246355,0.716563668268865
1580417221.94692,0.697032120241094,-0.0441901274128327,0.720469977874419
1580417221.95093,0.693125810635539,-0.0461432822156098,0.725841153582056
1580417221.95492,0.692149233234151,-0.0461432822156098,0.722911421377891
1580417221.95891,0.698008697642482,-0.0451667048142212,0.725841153582056
1580417221.96291,0.696543831540399,-0.0490730144197755,0.718028534370948
1580417221.9669,0.701426718547342,-0.0568856336308841,0.726817730983445
1580417221.9709,0.707774471656368,-0.0642099641412983,0.735118638895248
1580417221.97489,0.716075379568171,-0.0695811398489354,0.735118638895248
1580417221.97888,0.725352864881362,-0.0720225833524069,0.738048371099413
1580417221.98288,0.736583504997331,-0.0749523155565726,0.739024948500802
1580417221.98687,0.747325856412605,-0.0700694285496297,0.734630350194553
1580417221.99087,0.758068207827879,-0.0651865415426869,0.734142061493859
1580417221.99486,0.766857404440376,-0.0695811398489354,0.726817730983445
1580417221.99885,0.781994354161899,-0.0700694285496297,0.718516823071642
1580417222.00285,0.793713282978562,-0.0754406042572668,0.719005111772336
1580417222.00684,0.797619592584116,-0.0813000686655982,0.709239337758451
1580417222.01084,0.801037613488976,-0.0930189974822611,0.707286182955674
1580417222.01483,0.798596169985505,-0.0988784618905925,0.702403295948731
1580417222.01882,0.791760128175785,-0.101319905394064,0.691172655832762
1580417222.02282,0.78101777676051,-0.099855039291981,0.674082551308462
1580417222.02681,0.769787136644542,-0.096437018387121,0.670176241702908
1580417222.03079,0.755138475623713,-0.0891126878767068,0.663828488593882
1580417222.03479,0.743907835507745,-0.0886243991760125,0.656992446784162
1580417222.03878,0.729259174486916,-0.0847180895704582,0.654062714579997
1580417222.04277,0.717051956969559,-0.0832532234683754,0.659433890287634
1580417222.04677,0.706309605554285,-0.0847180895704582,0.655039291981385
1580417222.05076,0.691172655832762,-0.0861829556725411,0.661387045090411
1580417222.05476,0.681406881818877,-0.0876478217746239,0.658457312886245
1580417222.05875,0.676035706111239,-0.0896009765774011,0.665293354695965
1580417222.06274,0.672129396505685,-0.0910658426794839,0.667734798199437
1580417222.06674,0.669687953002214,-0.0861829556725411,0.675547417410545
1580417222.07073,0.668223086900131,-0.0920424200808725,0.676035706111239
1580417222.07473,0.671641107804991,-0.0920424200808725,0.686289768825819
1580417222.07872,0.669687953002214,-0.0959487296864268,0.698985275043871
1580417222.08271,0.669199664301519,-0.0915541313801782,0.712657358663311
1580417222.08671,0.671641107804991,-0.0944838635843439,0.729259174486916
1580417222.0907,0.669199664301519,-0.0881361104753182,0.735118638895248
1580417222.0947,0.669199664301519,-0.0871595330739297,0.735118638895248
1580417222.09869,0.672129396505685,-0.0827649347676811,0.738536659800108
1580417222.10268,0.667734798199437,-0.0759288929579611,0.736095216296636
1580417222.10668,0.676035706111239,-0.0788586251621268,0.731212329289693
1580417222.11069,0.684824902723737,-0.0803234912642097,0.732677195391776
1580417222.11468,0.695567254139011,-0.0822766460669868,0.733165484092471
1580417222.11867,0.708751049057756,-0.0793469138628211,0.734142061493859
1580417222.12267,0.725352864881362,-0.0788586251621268,0.733165484092471
1580417222.12666,0.744396124208439,-0.0759288929579611,0.736583504997331
1580417222.13066,0.757579919127185,-0.0827649347676811,0.736095216296636
1580417222.13465,0.768810559243153,-0.0891126878767068,0.730724040588999
1580417222.13864,0.776623178454262,-0.0969253070878153,0.719005111772336
1580417222.14264,0.77759975585565,-0.10424963759823,0.725352864881362
1580417222.14663,0.773205157549402,-0.105714503700312,0.720469977874419
1580417222.15063,0.768322270542459,-0.109620813305867,0.722911421377891
1580417222.15462,0.765880827038988,-0.10424963759823,0.722911421377891
1580417222.15861,0.758556496528573,-0.10424963759823,0.723399710078585
1580417222.16261,0.748790722514688,-0.102784771496147,0.716075379568171
1580417222.1666,0.741954680704968,-0.099855039291981,0.707286182955674
1580417222.1706,0.739024948500802,-0.101808194094758,0.695567254139011
1580417222.17459,0.728770885786222,-0.0979018844892039,0.695078965438316
1580417222.17858,0.722423132677196,-0.101319905394064,0.701915007248036
1580417222.18258,0.715587090867476,-0.107179369802395,0.698008697642482
1580417222.18657,0.708751049057756,-0.106202792401007,0.697032120241094
1580417222.19055,0.705821316853591,-0.104737926298924,0.690684367132068
1580417222.19455,0.699961852445259,-0.0988784618905925,0.688731212329291
1580417222.19854,0.708262760357062,-0.0959487296864268,0.690196078431374
1580417222.20253,0.713633936064699,-0.0881361104753182,0.686778057526514
1580417222.20653,0.722423132677196,-0.0832532234683754,0.690196078431374
1580417222.21052,0.730724040588999,-0.0778820477607383,0.690196078431374
1580417222.21451,0.738536659800108,-0.0734874494544897,0.692149233234151
1580417222.21851,0.738536659800108,-0.0632333867399097,0.697032120241094
1580417222.2225,0.744396124208439,-0.0573739223315783,0.696543831540399
1580417222.2265,0.745372701609828,-0.0466315709163041,0.692149233234151
1580417222.23049,0.744396124208439,-0.041260395208667,0.691172655832762
1580417222.23448,0.740978103303579,-0.0368657969024184,0.692149233234151
1580417222.23848,0.737560082398719,-0.0339360646982527,0.681406881818877
1580417222.24247,0.734142061493859,-0.0363775082017241,0.677988860914017
1580417222.24647,0.725841153582056,-0.034424353398947,0.676035706111239
1580417222.25046,0.722423132677196,-0.0373540856031127,0.674082551308462
1580417222.25445,0.716563668268865,-0.0373540856031127,0.676523994811934
1580417222.25845,0.712657358663311,-0.034424353398947,0.678477149614711
1580417222.26244,0.714122224765394,-0.0354009308003356,0.684336614023042
1580417222.26644,0.713633936064699,-0.0354009308003356,0.691172655832762
1580417222.27045,0.713145647364005,-0.0368657969024184,0.696055542839705
1580417222.27444,0.716075379568171,-0.0417486839093613,0.700938429846648
1580417222.27843,0.715098802166782,-0.0529793240253298,0.708262760357062
1580417222.28243,0.713633936064699,-0.0627450980392155,0.711680781261922
1580417222.28642,0.709239337758451,-0.0749523155565726,0.719981689173725
1580417222.29042,0.704356450751508,-0.0813000686655982,0.723399710078585
1580417222.29441,0.704844739452202,-0.0881361104753182,0.732188906691082
1580417222.2984,0.704844739452202,-0.0915541313801782,0.729259174486916
1580417222.3024,0.704844739452202,-0.0939955748836496,0.731212329289693
1580417222.30639,0.706309605554285,-0.0935072861829553,0.726329442282751
1580417222.31039,0.715098802166782,-0.0959487296864268,0.723399710078585
1580417222.31438,0.726329442282751,-0.0993667505912867,0.722423132677196
1580417222.31837,0.726817730983445,-0.099855039291981,0.722423132677196
1580417222.32237,0.732677195391776,-0.100343327992675,0.721446555275808
1580417222.32636,0.736095216296636,-0.0944838635843439,0.727306019684139
1580417222.33036,0.731212329289693,-0.0896009765774011,0.734142061493859
1580417222.33435,0.723887998779279,-0.0803234912642097,0.732677195391776
1580417222.33834,0.714610513466088,-0.0690928511482412,0.728282597085528
1580417222.34234,0.706797894254979,-0.0544441901274126,0.724864576180668
1580417222.34633,0.702403295948731,-0.037842374303807,0.720958266575114
1580417222.35031,0.698985275043871,-0.0207522697795071,0.714610513466088
1580417222.35431,0.692637521934845,-0.0197756923781185,0.707774471656368
1580417222.3583,0.692637521934845,-0.0207522697795071,0.707774471656368
1580417222.36229,0.693614099336234,-0.0227054245822842,0.712169069962616
1580417222.36629,0.692149233234151,-0.0236820019836728,0.719493400473031
1580417222.37028,0.688731212329291,-0.0266117341878385,0.733165484092471
1580417222.37427,0.687754634927902,-0.0261234454871442,0.738536659800108
1580417222.37827,0.684336614023042,-0.0207522697795071,0.740489814602885
1580417222.38226,0.685313191424431,-0.01196307316701,0.740978103303579
1580417222.38626,0.691172655832762,-0.00805676356145568,0.737071793698025
1580417222.39025,0.691172655832762,-0.00512703135728998,0.732188906691082
1580417222.39424,0.699961852445259,-0.00561532005798426,0.733165484092471
1580417222.39824,0.712169069962616,-0.0114747844663157,0.725352864881362
1580417222.40223,0.727306019684139,-0.0192874036774242,0.722423132677196
1580417222.40623,0.741466392004273,-0.0354009308003356,0.722911421377891
1580417222.41022,0.751232166018159,-0.0456549935149155,0.725352864881362
1580417222.41421,0.760997940032045,-0.0524910353246355,0.729747463187611
1580417222.41821,0.765880827038988,-0.0607919432364383,0.726817730983445
1580417222.4222,0.772716868848708,-0.063721675440604,0.724864576180668
1580417222.4262,0.769787136644542,-0.067139696345464,0.727306019684139
1580417222.43021,0.76392767223621,-0.0646982528419926,0.718516823071642
1580417222.4342,0.756115053025102,-0.0617685206378269,0.710704203860534
1580417222.43819,0.746837567711911,-0.0544441901274126,0.706797894254979
1580417222.44219,0.737560082398719,-0.0524910353246355,0.699473563744565
1580417222.44618,0.728282597085528,-0.0520027466239412,0.697520408941788
1580417222.45018,0.719981689173725,-0.0578622110322726,0.693614099336234
1580417222.45417,0.717051956969559,-0.0681162737468526,0.697520408941788
1580417222.45816,0.715587090867476,-0.080811779964904,0.691660944533457
1580417222.46216,0.704844739452202,-0.0915541313801782,0.693125810635539
1580417222.46615,0.709239337758451,-0.0993667505912867,0.692637521934845
1580417222.47015,0.694590676737622,-0.10424963759823,0.694590676737622
1580417222.47414,0.690196078431374,-0.10083161669337,0.697520408941788
1580417222.47813,0.687754634927902,-0.0988784618905925,0.699961852445259
1580417222.48213,0.686289768825819,-0.0969253070878153,0.708751049057756
1580417222.48612,0.688731212329291,-0.0920424200808725,0.703379873350119
1580417222.49012,0.685313191424431,-0.0881361104753182,0.708751049057756
1580417222.49411,0.689219501029985,-0.0842298008697639,0.721446555275808
1580417222.4981,0.693125810635539,-0.0793469138628211,0.731212329289693
1580417222.5021,0.694102388036928,-0.0793469138628211,0.726329442282751
1580417222.50609,0.701426718547342,-0.0769054703593497,0.717051956969559
1580417222.51007,0.707774471656368,-0.0754406042572668,0.711192492561228
1580417222.51406,0.713145647364005,-0.077393759060044,0.706797894254979
1580417222.51806,0.721934843976502,-0.0778820477607383,0.693125810635539
1580417222.52205,0.734630350194553,-0.0769054703593497,0.695078965438316
1580417222.52605,0.740978103303579,-0.0710460059510183,0.700938429846648
1580417222.53004,0.752697032120242,-0.0729991607537954,0.699961852445259
1580417222.53403,0.760509651331351,-0.0715342946517126,0.695078965438316
1580417222.53803,0.765392538338293,-0.0744640268558783,0.686778057526514
1580417222.54202,0.77418173495079,-0.0798352025635154,0.688731212329291
1580417222.54602,0.771740291447319,-0.077393759060044,0.686289768825819
1580417222.55001,0.764904249637599,-0.0725108720531011,0.696543831540399
1580417222.554,0.757579919127185,-0.0661631189440754,0.696543831540399
1580417222.558,0.746349279011216,-0.0563973449301898,0.693614099336234
1580417222.56199,0.736583504997331,-0.0495613031204698,0.687266346227208
1580417222.56599,0.728770885786222,-0.0466315709163041,0.677988860914017
1580417222.56998,0.718516823071642,-0.0471198596169984,0.675547417410545
1580417222.57397,0.711192492561228,-0.0529793240253298,0.679942015716794
1580417222.57797,0.703379873350119,-0.0588387884336612,0.687266346227208
1580417222.58196,0.696055542839705,-0.0627450980392155,0.695078965438316
1580417222.58596,0.697032120241094,-0.0666514076447697,0.692149233234151
1580417222.58996,0.696543831540399,-0.0661631189440754,0.694590676737622
1580417222.59396,0.697032120241094,-0.0642099641412983,0.686289768825819
1580417222.59795,0.701915007248036,-0.0539559014267184,0.684336614023042
1580417222.60195,0.704844739452202,-0.0490730144197755,0.679942015716794
1580417222.60594,0.705821316853591,-0.0432135500114441,0.682383459220265
1580417222.60994,0.715098802166782,-0.037842374303807,0.683360036621654
1580417222.61393,0.720958266575114,-0.0402838178072784,0.691172655832762
1580417222.61792,0.710704203860534,-0.0402838178072784,0.689707789730679
1580417222.62192,0.718516823071642,-0.0349126420996413,0.686778057526514
1580417222.62591,0.726817730983445,-0.0319829098954756,0.686289768825819
1580417222.6299,0.731700617990388,-0.0329594872968642,0.691660944533457
1580417222.6339,0.745860990310522,-0.031006332494087,0.698985275043871
1580417222.63789,0.754161898222325,-0.0363775082017241,0.693125810635539
1580417222.64189,0.764904249637599,-0.0417486839093613,0.701426718547342
1580417222.64588,0.78101777676051,-0.0495613031204698,0.697520408941788
1580417222.64987,0.790783550774396,-0.0578622110322726,0.702891584649425
1580417222.65387,0.797131303883422,-0.0646982528419926,0.708262760357062
1580417222.65786,0.802990768291753,-0.0710460059510183,0.721934843976502
1580417222.66186,0.797619592584116,-0.0749523155565726,0.729747463187611
1580417222.66585,0.78443579766537,-0.0842298008697639,0.734142061493859
1580417222.66983,0.769298847943848,-0.0900892652780954,0.730724040588999
1580417222.67382,0.752208743419548,-0.0954604409857325,0.737071793698025
1580417222.67782,0.734630350194553,-0.106202792401007,0.735118638895248
1580417222.68181,0.718028534370948,-0.113038834210727,0.733165484092471
1580417222.68581,0.699473563744565,-0.116945143816281,0.730235751888305
1580417222.6898,0.688242923628597,-0.123781185626001,0.722423132677196
1580417222.69379,0.659433890287634,-0.12475776302739,0.718516823071642
1580417222.69779,0.644296940566111,-0.11450370031281,0.724376287479974
1580417222.70178,0.632089723048754,-0.103273060196841,0.730235751888305
1580417222.70578,0.622812237735562,-0.0896009765774011,0.738536659800108
1580417222.70977,0.618417639429314,-0.0759288929579611,0.740489814602885
1580417222.71376,0.61792935072862,-0.0686045624475469,0.732677195391776
1580417222.71776,0.624277103837645,-0.0656748302433812,0.719493400473031
1580417222.72175,0.631113145647365,-0.0656748302433812,0.714122224765394
1580417222.72575,0.642832074464028,-0.0686045624475469,0.716563668268865
1580417222.72974,0.653574425879302,-0.0734874494544897,0.718028534370948
1580417222.73373,0.667734798199437,-0.0769054703593497,0.721934843976502
1580417222.73773,0.683848325322348,-0.0754406042572668,0.723399710078585
1580417222.74172,0.700450141145954,-0.0778820477607383,0.719005111772336
1580417222.74572,0.718028534370948,-0.0769054703593497,0.717540245670254
1580417222.74972,0.736095216296636,-0.0813000686655982,0.718028534370948
1580417222.75372,0.753185320820936,-0.0817883573662925,0.710704203860534
1580417222.75771,0.769298847943848,-0.0886243991760125,0.703868162050814
1580417222.76171,0.787365529869536,-0.0925307087815668,0.704844739452202
1580417222.7657,0.795666437781339,-0.0949721522850382,0.699961852445259
1580417222.7697,0.800061036087587,-0.0954604409857325,0.697032120241094
1580417222.77369,0.803967345693142,-0.0915541313801782,0.696543831540399
1580417222.77768,0.79810788128481,-0.0861829556725411,0.696055542839705
1580417222.78168,0.788830395971619,-0.0842298008697639,0.693125810635539
1580417222.78567,0.773205157549402,-0.0759288929579611,0.682871747920959
1580417222.78966,0.752697032120242,-0.0686045624475469,0.680918593118182
1580417222.79366,0.726817730983445,-0.063721675440604,0.681406881818877
1580417222.79765,0.707774471656368,-0.0622568093385212,0.688242923628597
1580417222.80165,0.698008697642482,-0.0559090562294955,0.684336614023042
1580417222.80564,0.685801480125125,-0.0559090562294955,0.683848325322348
1580417222.80963,0.680430304417488,-0.0549324788281069,0.685313191424431
1580417222.81363,0.680430304417488,-0.0549324788281069,0.686778057526514
1580417222.81762,0.681895170519571,-0.0539559014267184,0.695078965438316
1580417222.82162,0.685313191424431,-0.0495613031204698,0.699473563744565
1580417222.82561,0.688731212329291,-0.0422369726100555,0.702891584649425
1580417222.82959,0.690684367132068,-0.0349126420996413,0.710704203860534
1580417222.83358,0.694590676737622,-0.0300297550926985,0.713633936064699
1580417222.83758,0.703379873350119,-0.0251468680857556,0.728282597085528
1580417222.84157,0.709239337758451,-0.0178225375753414,0.724376287479974
1580417222.84556,0.714122224765394,-0.0183108262760356,0.717540245670254
1580417222.84956,0.722911421377891,-0.0192874036774242,0.720958266575114
1580417222.85355,0.729747463187611,-0.0197756923781185,0.719005111772336
1580417222.85755,0.737560082398719,-0.0163576714732585,0.718028534370948
1580417222.86154,0.745372701609828,-0.0163576714732585,0.718028534370948
1580417222.86554,0.752697032120242,-0.0139162279697871,0.712169069962616
1580417222.86953,0.757091630426491,-0.0124513618677042,0.715587090867476
1580417222.87352,0.765392538338293,-0.0153810940718699,0.715098802166782
1580417222.87752,0.766369115739682,-0.0192874036774242,0.716075379568171
1580417222.88151,0.771740291447319,-0.0236820019836728,0.709239337758451
1580417222.8855,0.771252002746625,-0.0261234454871442,0.705333028152896
1580417222.8895,0.769298847943848,-0.0319829098954756,0.703379873350119
1580417222.89349,0.767833981841765,-0.037842374303807,0.701915007248036
1580417222.89749,0.763439383535516,-0.048096437018387,0.704356450751508
1580417222.90148,0.761974517433433,-0.0593270771343555,0.699961852445259
1580417222.90547,0.760021362630656,-0.0734874494544897,0.698496986343176
1580417222.90948,0.761486228732739,-0.0891126878767068,0.696543831540399
1580417222.91348,0.76734569314107,-0.10083161669337,0.691660944533457
1580417222.91747,0.770275425345236,-0.113527122911421,0.695567254139011
1580417222.92147,0.766369115739682,-0.126222629129472,0.695078965438316
1580417222.92546,0.767833981841765,-0.135988403143358,0.698496986343176
1580417222.92945,0.761974517433433,-0.136964980544747,0.706309605554285
1580417222.93345,0.752208743419548,-0.131593804837109,0.707774471656368
1580417222.93744,0.740489814602885,-0.118410009918364,0.701426718547342
1580417222.94144,0.729747463187611,-0.099855039291981,0.695567254139011
1580417222.94543,0.716563668268865,-0.0778820477607383,0.688242923628597
1580417222.94942,0.709239337758451,-0.0573739223315783,0.684824902723737
1580417222.95342,0.692149233234151,-0.0466315709163041,0.688242923628597
1580417222.95741,0.677500572213322,-0.0373540856031127,0.689707789730679
1580417222.96141,0.666269932097354,-0.0261234454871442,0.690684367132068
1580417222.9654,0.657969024185551,-0.0222171358815899,0.690196078431374
1580417222.96939,0.64869153887236,-0.0227054245822842,0.687754634927902
1580417222.97339,0.646738384069582,-0.0236820019836728,0.697032120241094
1580417222.97738,0.648203250171665,-0.027588311589227,0.706797894254979
1580417222.98138,0.652597848477914,-0.031006332494087,0.709727626459145
1580417222.98537,0.659922178988328,-0.0363775082017241,0.717540245670254
1580417222.98935,0.667246509498742,-0.034424353398947,0.722423132677196
1580417222.99334,0.679453727016099,-0.0427252613107498,0.726817730983445
1580417222.99734,0.689707789730679,-0.0461432822156098,0.738048371099413
1580417223.00133,0.701915007248036,-0.0524910353246355,0.746837567711911
1580417223.00532,0.712169069962616,-0.0627450980392155,0.738536659800108
1580417223.00932,0.719493400473031,-0.0695811398489354,0.739024948500802
1580417223.01331,0.732188906691082,-0.0798352025635154,0.737560082398719
1580417223.01731,0.740489814602885,-0.0925307087815668,0.730235751888305
1580417223.0213,0.750743877317465,-0.0974135957885096,0.713633936064699
1580417223.0253,0.760997940032045,-0.101808194094758,0.702891584649425
1580417223.02929,0.762951094834822,-0.10424963759823,0.698496986343176
1580417223.03328,0.76392767223621,-0.107179369802395,0.693614099336234
1580417223.03728,0.760021362630656,-0.102784771496147,0.692637521934845
1580417223.04127,0.757579919127185,-0.0935072861829553,0.694590676737622
1580417223.04526,0.752697032120242,-0.0915541313801782,0.700450141145954
1580417223.04926,0.745860990310522,-0.0876478217746239,0.699961852445259
1580417223.05325,0.737560082398719,-0.0856946669718468,0.698496986343176
1580417223.05725,0.731700617990388,-0.0861829556725411,0.699473563744565
1580417223.06124,0.725841153582056,-0.0822766460669868,0.707774471656368
1580417223.06523,0.720469977874419,-0.0749523155565726,0.715587090867476
1580417223.06924,0.719493400473031,-0.063721675440604,0.718516823071642
1580417223.07324,0.713145647364005,-0.0466315709163041,0.723399710078585
1580417223.07723,0.709727626459145,-0.0339360646982527,0.717540245670254
1580417223.08123,0.709239337758451,-0.0256351567864499,0.718516823071642
1580417223.08522,0.706309605554285,-0.0163576714732585,0.722911421377891
1580417223.08921,0.698008697642482,-0.0153810940718699,0.726329442282751
1580417223.09321,0.693614099336234,-0.0144045166704814,0.721446555275808
1580417223.0972,0.688731212329291,-0.00854505226214997,0.726817730983445
1580417223.1012,0.684824902723737,-0.00512703135728998,0.724376287479974
1580417223.10519,0.684824902723737,-0.000244144350347142,0.719493400473031
1580417223.10918,0.682871747920959,0.00659189745937283,0.717051956969559
1580417223.11318,0.687754634927902,0.0197756923781185,0.718028534370948
1580417223.11717,0.690196078431374,0.0202639810788128,0.717051956969559
1580417223.12117,0.696543831540399,0.0271000228885327,0.712657358663311
1580417223.12516,0.702891584649425,0.0280766002899213,0.713145647364005
1580417223.12915,0.708751049057756,0.0246585793850613,0.719005111772336
1580417223.13315,0.720469977874419,0.0168459601739528,0.711192492561228
1580417223.13714,0.722423132677196,0.00415045395590141,0.715098802166782
1580417223.14114,0.724864576180668,-0.0114747844663157,0.712169069962616
1580417223.14513,0.727306019684139,-0.0266117341878385,0.715587090867476
1580417223.14911,0.731700617990388,-0.037842374303807,0.726329442282751
1580417223.1531,0.728282597085528,-0.0451667048142212,0.723399710078585
1580417223.1571,0.735606927595942,-0.0495613031204698,0.723887998779279
1580417223.16109,0.739024948500802,-0.0583504997329669,0.718028534370948
1580417223.16508,0.745860990310522,-0.0661631189440754,0.717051956969559
1580417223.16908,0.752208743419548,-0.0778820477607383,0.707286182955674
1580417223.17307,0.762951094834822,-0.0852063782711525,0.707286182955674
1580417223.17707,0.766857404440376,-0.0920424200808725,0.698008697642482
1580417223.18106,0.771740291447319,-0.100343327992675,0.696543831540399
1580417223.18505,0.778576333257039,-0.100343327992675,0.691660944533457
1580417223.18905,0.773693446250096,-0.103761348897535,0.691660944533457
1580417223.19304,0.771740291447319,-0.0983901731898982,0.695567254139011
1580417223.19704,0.764904249637599,-0.0920424200808725,0.701915007248036
1580417223.20103,0.752208743419548,-0.0847180895704582,0.701426718547342
1580417223.20502,0.740001525902191,-0.0783703364614325,0.695078965438316
1580417223.20902,0.728770885786222,-0.0710460059510183,0.690684367132068
1580417223.21301,0.717540245670254,-0.0695811398489354,0.677012283512628
1580417223.21701,0.714610513466088,-0.0661631189440754,0.666758220798048
1580417223.221,0.715587090867476,-0.0632333867399097,0.661875333791105
1580417223.22499,0.726817730983445,-0.0568856336308841,0.662363622491799
1580417223.229,0.730724040588999,-0.0520027466239412,0.665293354695965
1580417223.233,0.736095216296636,-0.0471198596169984,0.668711375600825
1580417223.23699,0.735606927595942,-0.0407721065079727,0.676035706111239
1580417223.24098,0.731212329289693,-0.034424353398947,0.688731212329291
1580417223.24498,0.715587090867476,-0.0261234454871442,0.698008697642482
1580417223.24897,0.706309605554285,-0.0163576714732585,0.706797894254979
1580417223.25297,0.696055542839705,-0.00512703135728998,0.716563668268865
1580417223.25696,0.679453727016099,0.00170901045242999,0.722911421377891
1580417223.26095,0.665781643396659,0.00854505226214997,0.721446555275808
1580417223.26495,0.657480735484857,0.0124513618677042,0.721934843976502
1580417223.26894,0.654551003280691,0.00805676356145568,0.721934843976502
1580417223.27294,0.653574425879302,0.00610360875867855,0.722911421377891
1580417223.27693,0.651132982375831,0.0075684748607614,0.732677195391776
1580417223.28093,0.656504158083468,0.00952162966353853,0.737071793698025
1580417223.28492,0.662363622491799,0.00805676356145568,0.744396124208439
1580417223.28891,0.669199664301519,0.00366216525520713,0.745372701609828
1580417223.29291,0.678965438315405,-0.00854505226214997,0.740001525902191
1580417223.2969,0.693125810635539,-0.0251468680857556,0.735606927595942
1580417223.30089,0.708751049057756,-0.0466315709163041,0.737071793698025
1580417223.30489,0.732677195391776,-0.0656748302433812,0.734630350194553
1580417223.30887,0.760997940032045,-0.0900892652780954,0.735606927595942
1580417223.31286,0.78785381857023,-0.109620813305867,0.729259174486916
1580417223.31686,0.811291676203556,-0.122804608224612,0.731212329289693
1580417223.32085,0.827893492027162,-0.134035248340581,0.738048371099413
1580417223.32484,0.830334935530633,-0.136964980544747,0.732677195391776
1580417223.32884,0.823498893720913,-0.135011825741969,0.727306019684139
1580417223.33283,0.80494392309453,-0.12133974212253,0.722911421377891
1580417223.33683,0.783947508964676,-0.103761348897535,0.719493400473031
1580417223.34082,0.764415960936905,-0.0803234912642097,0.714122224765394
1580417223.34481,0.739024948500802,-0.060303654535744,0.707774471656368
1580417223.34881,0.714122224765394,-0.0437018387121384,0.696055542839705
1580417223.3528,0.694102388036928,-0.034424353398947,0.684824902723737
1580417223.3568,0.679453727016099,-0.0290531776913099,0.681406881818877
1580417223.36079,0.668711375600825,-0.024170290684367,0.677012283512628
1580417223.36478,0.662363622491799,-0.024170290684367,0.676523994811934
1580417223.36878,0.664805065995271,-0.0256351567864499,0.677500572213322
1580417223.37277,0.670664530403602,-0.0246585793850613,0.682383459220265
1580417223.37677,0.679453727016099,-0.024170290684367,0.695567254139011
1580417223.38076,0.691172655832762,-0.0192874036774242,0.700938429846648
1580417223.38475,0.695567254139011,-0.0178225375753414,0.701426718547342
1580417223.38876,0.702403295948731,-0.0163576714732585,0.703868162050814
1580417223.39276,0.705333028152896,-0.0207522697795071,0.706309605554285
1580417223.39675,0.704844739452202,-0.0251468680857556,0.707774471656368
1580417223.40074,0.708262760357062,-0.027588311589227,0.706797894254979
1580417223.40474,0.711680781261922,-0.0305180437933927,0.701915007248036
1580417223.40873,0.718516823071642,-0.0334477759975584,0.703379873350119
1580417223.41273,0.727794308384833,-0.0437018387121384,0.699961852445259
1580417223.41672,0.733165484092471,-0.0515144579232469,0.697520408941788
1580417223.42071,0.738048371099413,-0.0549324788281069,0.700938429846648
1580417223.42471,0.737560082398719,-0.0520027466239412,0.710704203860534
1580417223.4287,0.737071793698025,-0.0432135500114441,0.720958266575114
1580417223.4327,0.732188906691082,-0.037842374303807,0.729259174486916
1580417223.43669,0.729747463187611,-0.0329594872968642,0.717051956969559
1580417223.44069,0.724864576180668,-0.034424353398947,0.713633936064699
1580417223.44468,0.720958266575114,-0.0417486839093613,0.712657358663311
1580417223.44867,0.721446555275808,-0.0549324788281069,0.713633936064699
1580417223.45267,0.726329442282751,-0.0778820477607383,0.716075379568171
1580417223.45666,0.734142061493859,-0.0988784618905925,0.712657358663311
1580417223.46065,0.740001525902191,-0.113038834210727,0.706309605554285
1580417223.46465,0.750255588616771,-0.131593804837109,0.701915007248036
1580417223.46863,0.758556496528573,-0.146730754558632,0.703379873350119
1580417223.47262,0.764415960936905,-0.150637064164187,0.706797894254979
1580417223.47662,0.767833981841765,-0.149172198062104,0.707774471656368
