Timestamp_seconds,Gyro_X_s,Gyro_Y_s,Gyro_Z_s
1580417216.84769,-6.07309071488521,3.69268329900046,-1.37331197070262
1580417216.85169,-5.40169375143046,3.44853894865332,-1.19020370794237
1580417216.85569,-4.48615243762879,3.26543068589308,-1.0681315327688
1580417216.85969,-3.81475547417404,3.14335851071951,-0.946059357595232
1580417216.86369,-2.96025024795904,2.7771419851988,-0.579842832074519
1580417216.86769,-2.22781719691761,2.59403372243833,-0.396734569314049
1580417216.87169,-1.37331197070262,2.41092545967808,0.0305180437933359
1580417216.87569,-0.335698481727377,2.16678110933094,0.213626306553806
1580417216.87968,0.640878919661191,2.10574502174404,0.274662394140478
1580417216.88368,1.25123979552905,1.9226367589838,0.457770656900948
1580417216.88768,1.67849240863666,1.73952849622333,0.396734569314049
1580417216.89166,1.8616006713969,1.67849240863666,0.396734569314049
1580417216.89566,1.98367284657047,1.55642023346309,0.457770656900948
1580417216.89966,2.16678110933094,1.31227588311594,0.51880674448762
1580417216.90366,2.53299763485165,1.0070954451819,0.457770656900948
1580417216.90766,2.59403372243833,0.70191500724809,0.335698481727377
1580417216.91166,2.47196154726475,0.579842832074519,0.213626306553806
1580417216.91565,2.53299763485165,0.51880674448762,0.091554131380235
1580417216.91965,2.59403372243833,0.396734569314049,0.0305180437933359
1580417216.92365,2.7771419851988,0.396734569314049,-0.091554131380235
1580417216.92765,3.02128633554594,0.213626306553806,-0.213626306553806
1580417216.93165,3.20439459830618,0.091554131380235,-0.335698481727377
1580417216.93565,3.57061112382689,-0.0305180437933359,-0.396734569314049
1580417216.93965,3.63164721141379,-0.213626306553806,-0.396734569314049
1580417216.94365,3.99786373693451,-0.396734569314049,-0.457770656900948
1580417216.94764,4.24200808728165,-0.457770656900948,-0.335698481727377
1580417216.95164,4.48615243762879,-0.762951094834762,-0.335698481727377
1580417216.95564,4.66926070038903,-0.762951094834762,-0.335698481727377
1580417216.95964,4.54718852521546,-0.946059357595232,-0.396734569314049
1580417216.96364,4.36408026245522,-1.0681315327688,-0.396734569314049
1580417216.96764,4.42511635004189,-0.946059357595232,-0.51880674448762
1580417216.97165,4.18097199969475,-0.946059357595232,-0.51880674448762
1580417216.97565,3.44853894865332,-1.19020370794237,-0.51880674448762
1580417216.97965,2.53299763485165,-1.12916762035547,-0.579842832074519
1580417216.98364,1.80056458381023,-1.0681315327688,-0.70191500724809
1580417216.98764,1.12916762035547,-1.12916762035547,-0.823987182421661
1580417216.99164,0.457770656900948,-1.25123979552905,-0.762951094834762
1580417216.99564,-0.0305180437933359,-1.31227588311594,-0.946059357595232
1580417216.99964,-0.457770656900948,-1.37331197070262,-0.885023270008332
1580417217.00364,-1.0070954451819,-1.37331197070262,-0.762951094834762
1580417217.00764,-1.73952849622333,-1.37331197070262,-0.885023270008332
1580417217.01164,-2.59403372243833,-1.31227588311594,-0.885023270008332
1580417217.01564,-3.44853894865332,-1.37331197070262,-1.0681315327688
1580417217.01963,-4.18097199969475,-1.19020370794237,-1.19020370794237
1580417217.02363,-4.66926070038903,-1.0681315327688,-1.25123979552905
1580417217.02763,-5.03547722590974,-0.70191500724809,-1.43434805828952
1580417217.03163,-5.09651331349664,-0.640878919661191,-1.49538414587619
1580417217.03563,-4.8523689631495,-0.946059357595232,-1.73952849622333
1580417217.03963,-4.73029678797593,-1.0681315327688,-1.9226367589838
1580417217.04363,-4.54718852521546,-0.946059357595232,-2.04470893415737
1580417217.04762,-3.87579156176093,-0.70191500724809,-2.22781719691761
1580417217.05164,-3.26543068589308,-0.946059357595232,-2.16678110933094
1580417217.05563,-3.20439459830618,-1.12916762035547,-1.9226367589838
1580417217.05963,-3.93682764934761,-1.19020370794237,-1.61745632104976
1580417217.06363,-5.21858548867021,-1.19020370794237,-1.55642023346309
1580417217.06763,-6.25619897764545,-0.885023270008332,-1.49538414587619
1580417217.07163,-6.98863202868688,-0.51880674448762,-1.67849240863666
1580417217.07563,-8.02624551766235,-0.213626306553806,-1.80056458381023
1580417217.07963,-9.00282291905091,0.213626306553806,-2.04470893415737
1580417217.08362,-9.30800335698473,0.51880674448762,-2.22781719691761
1580417217.08762,-8.94178683146401,0.579842832074519,-2.28885328450451
1580417217.09162,-8.27038986800949,0.640878919661191,-2.22781719691761
1580417217.09562,-7.66002899214163,0.70191500724809,-2.41092545967808
1580417217.09962,-6.80552376592664,0.70191500724809,-2.34988937209118
1580417217.10362,-5.52376592660403,0.640878919661191,-2.34988937209118
1580417217.10762,-4.60822461280236,0.457770656900948,-2.28885328450451
1580417217.11162,-3.81475547417404,0.274662394140478,-2.41092545967808
1580417217.11561,-3.20439459830618,0.213626306553806,-2.41092545967808
1580417217.11961,-2.53299763485165,0.457770656900948,-2.34988937209118
1580417217.12361,-1.9226367589838,0.457770656900948,-2.41092545967808
1580417217.12761,-1.67849240863666,0.396734569314049,-2.41092545967808
1580417217.13159,-1.49538414587619,0.396734569314049,-2.28885328450451
1580417217.13559,-1.31227588311594,0.213626306553806,-2.22781719691761
1580417217.13959,-0.946059357595232,-0.0305180437933359,-2.34988937209118
1580417217.14359,-0.823987182421661,-0.0305180437933359,-2.16678110933094
1580417217.14759,-0.823987182421661,-0.152590218966907,-2.10574502174404
1580417217.15158,-1.12916762035547,-0.152590218966907,-2.10574502174404
1580417217.15558,-1.73952849622333,-0.274662394140478,-2.28885328450451
1580417217.15958,-2.34988937209118,-0.274662394140478,-2.34988937209118
1580417217.16358,-2.7161058976119,-0.0305180437933359,-2.34988937209118
1580417217.16758,-2.34988937209118,0.091554131380235,-2.53299763485165
1580417217.17158,-1.98367284657047,0.0305180437933359,-2.28885328450451
1580417217.17558,-1.67849240863666,-0.091554131380235,-1.98367284657047
1580417217.17958,-1.49538414587619,-0.152590218966907,-1.73952849622333
1580417217.18357,-1.12916762035547,-0.457770656900948,-1.25123979552905
1580417217.18757,-0.762951094834762,-0.396734569314049,-0.946059357595232
1580417217.19157,-0.640878919661191,-0.213626306553806,-0.579842832074519
1580417217.19557,-0.823987182421661,-0.213626306553806,-0.396734569314049
1580417217.19957,-1.43434805828952,-0.396734569314049,-0.274662394140478
1580417217.20357,-2.10574502174404,-0.457770656900948,-0.396734569314049
1580417217.20757,-2.7161058976119,-0.579842832074519,-0.457770656900948
1580417217.21158,-3.38750286106665,-0.51880674448762,-0.579842832074519
1580417217.21558,-4.11993591210808,-0.51880674448762,-0.823987182421661
1580417217.21958,-5.09651331349664,-0.396734569314049,-1.12916762035547
1580417217.22357,-6.25619897764545,-0.457770656900948,-1.43434805828952
1580417217.22757,-7.11070420386045,-0.579842832074519,-1.49538414587619
1580417217.23157,-7.53795681696806,-0.640878919661191,-1.49538414587619
1580417217.23557,-7.53795681696806,-0.579842832074519,-1.55642023346309
1580417217.23957,-7.11070420386045,-0.579842832074519,-1.55642023346309
1580417217.24357,-6.62241550316617,-0.640878919661191,-1.55642023346309
1580417217.24757,-5.88998245212474,-1.0070954451819,-1.37331197070262
1580417217.25157,-5.09651331349664,-1.31227588311594,-1.12916762035547
1580417217.25556,-3.75371938658736,-1.67849240863666,-1.19020370794237
1580417217.25956,-2.22781719691761,-1.98367284657047,-0.946059357595232
1580417217.26356,-1.0681315327688,-2.10574502174404,-1.0681315327688
1580417217.26756,-0.457770656900948,-2.10574502174404,-1.0681315327688
1580417217.27156,-0.152590218966907,-1.8616006713969,-1.12916762035547
1580417217.27556,-0.335698481727377,-1.43434805828952,-1.0070954451819
1580417217.27956,-0.885023270008332,-1.19020370794237,-1.12916762035547
1580417217.28356,-1.61745632104976,-1.12916762035547,-0.885023270008332
1580417217.28755,-2.04470893415737,-1.19020370794237,-0.51880674448762
1580417217.29156,-2.47196154726475,-1.37331197070262,0.0305180437933359
1580417217.29556,-2.53299763485165,-1.67849240863666,0.457770656900948
1580417217.29956,-2.34988937209118,-2.10574502174404,0.762951094834762
1580417217.30356,-2.04470893415737,-2.04470893415737,0.70191500724809
1580417217.30756,-2.04470893415737,-2.10574502174404,0.396734569314049
1580417217.31156,-2.34988937209118,-2.10574502174404,-0.0305180437933359
1580417217.31556,-2.83817807278547,-1.8616006713969,-0.762951094834762
1580417217.31956,-3.26543068589308,-1.67849240863666,-1.25123979552905
1580417217.32355,-3.57061112382689,-1.55642023346309,-1.43434805828952
1580417217.32755,-3.44853894865332,-1.55642023346309,-1.49538414587619
1580417217.33155,-3.02128633554594,-1.80056458381023,-1.12916762035547
1580417217.33555,-2.28885328450451,-1.98367284657047,-0.70191500724809
1580417217.33955,-1.0681315327688,-2.34988937209118,-0.152590218966907
1580417217.34355,0.091554131380235,-2.41092545967808,0.274662394140478
1580417217.34755,0.823987182421661,-2.28885328450451,0.51880674448762
1580417217.35155,1.12916762035547,-2.28885328450451,0.579842832074519
1580417217.35555,1.43434805828952,-2.22781719691761,0.457770656900948
1580417217.35954,1.73952849622333,-2.10574502174404,0.213626306553806
1580417217.36354,2.10574502174404,-2.16678110933094,-0.0305180437933359
1580417217.36754,2.7771419851988,-2.34988937209118,-0.274662394140478
1580417217.37152,3.50957503624022,-2.41092545967808,-0.335698481727377
1580417217.37552,4.54718852521546,-2.59403372243833,-0.213626306553806
1580417217.37952,5.46272983901736,-2.7161058976119,-0.0305180437933359
1580417217.38352,6.31723506523235,-2.96025024795904,0.274662394140478
1580417217.38752,6.68345159075307,-3.02128633554594,0.70191500724809
1580417217.39151,6.37827115281902,-2.96025024795904,0.885023270008332
1580417217.39551,6.13412680247188,-3.08232242313261,1.25123979552905
1580417217.39951,6.25619897764545,-3.26543068589308,1.31227588311594
1580417217.40351,6.80552376592664,-3.75371938658736,1.37331197070262
1580417217.40751,7.66002899214163,-4.30304417486832,1.49538414587619
1580417217.41151,8.51453421835663,-4.8523689631495,1.73952849622333
1580417217.41551,8.75867856870377,-5.09651331349664,1.73952849622333
1580417217.41951,8.51453421835663,-5.03547722590974,1.67849240863666
1580417217.4235,7.23277637903402,-4.54718852521546,1.49538414587619
1580417217.4275,5.21858548867021,-3.87579156176093,1.25123979552905
1580417217.4315,2.96025024795904,-3.44853894865332,1.0681315327688
1580417217.4355,1.25123979552905,-3.26543068589308,1.0681315327688
1580417217.4395,0.762951094834762,-3.26543068589308,1.49538414587619
1580417217.4435,1.80056458381023,-3.75371938658736,2.16678110933094
1580417217.4475,3.57061112382689,-4.66926070038903,3.02128633554594
1580417217.45151,5.40169375143046,-5.40169375143046,3.50957503624022
1580417217.45551,6.43930724040592,-5.95101853971164,3.99786373693451
1580417217.4595,6.31723506523235,-5.88998245212474,3.99786373693451
1580417217.4635,5.03547722590974,-5.34065766384379,3.57061112382689
1580417217.4675,2.16678110933094,-4.36408026245522,3.02128633554594
1580417217.4715,-2.22781719691761,-2.83817807278547,2.28885328450451
1580417217.4755,-7.23277637903402,-1.37331197070262,1.55642023346309
1580417217.4795,-11.6884107728695,-0.335698481727377,0.946059357595232
1580417217.4835,-15.3505760280766,0.274662394140478,0.885023270008332
1580417217.4875,-18.1582360570687,1.19020370794237,1.12916762035547
1580417217.49149,-19.0127412832837,2.34988937209118,1.12916762035547
1580417217.49549,-18.4634164950025,3.20439459830618,1.0070954451819
1580417217.49949,-17.9140917067216,2.65506981002522,1.25123979552905
1580417217.50349,-17.9140917067216,0.885023270008332,1.49538414587619
1580417217.50749,-17.2426947432668,-0.885023270008332,1.55642023346309
1580417217.51149,-14.373998626688,-1.49538414587619,0.885023270008332
1580417217.51549,-9.79629205767901,-1.67849240863666,-0.396734569314049
1580417217.51949,-5.09651331349664,-1.31227588311594,-2.04470893415737
1580417217.52348,-1.55642023346309,-0.946059357595232,-3.63164721141379
1580417217.52748,-0.091554131380235,-0.885023270008332,-4.36408026245522
1580417217.53149,-0.152590218966907,-1.12916762035547,-4.18097199969475
1580417217.53549,-0.51880674448762,-1.0070954451819,-3.50957503624022
1580417217.53949,-0.457770656900948,-0.396734569314049,-2.59403372243833
1580417217.54349,0.091554131380235,0.579842832074519,-1.73952849622333
1580417217.54749,0.274662394140478,1.73952849622333,-1.19020370794237
1580417217.55149,-0.70191500724809,2.7771419851988,-0.762951094834762
1580417217.55549,-2.59403372243833,3.50957503624022,-0.70191500724809
1580417217.55948,-4.60822461280236,3.99786373693451,-0.946059357595232
1580417217.56348,-5.82894636453807,4.18097199969475,-1.37331197070262
1580417217.56748,-6.19516289005878,3.81475547417404,-1.73952849622333
1580417217.57148,-5.6458381017776,3.20439459830618,-1.67849240863666
1580417217.57548,-4.05889982452118,2.16678110933094,-1.37331197070262
1580417217.57948,-1.31227588311594,0.946059357595232,-1.0070954451819
1580417217.58348,1.98367284657047,0.091554131380235,-0.51880674448762
1580417217.58748,4.42511635004189,-0.70191500724809,-0.213626306553806
1580417217.59148,5.6458381017776,-1.19020370794237,-0.0305180437933359
1580417217.59547,5.76791027695117,-1.12916762035547,-0.213626306553806
1580417217.59947,4.91340505073617,-0.274662394140478,-0.70191500724809
1580417217.60347,3.57061112382689,0.885023270008332,-1.12916762035547
1580417217.60747,2.34988937209118,1.73952849622333,-1.73952849622333
1580417217.61145,1.9226367589838,2.22781719691761,-2.04470893415737
1580417217.61545,2.34988937209118,1.80056458381023,-1.73952849622333
1580417217.61945,3.38750286106665,0.762951094834762,-1.0681315327688
1580417217.62345,5.03547722590974,-0.335698481727377,0.0305180437933359
1580417217.62744,6.86655985351331,-1.31227588311594,1.0681315327688
1580417217.63144,8.51453421835663,-2.16678110933094,1.55642023346309
1580417217.63544,8.5755703059433,-2.83817807278547,1.67849240863666
1580417217.63944,7.47692072938116,-2.89921416037237,1.61745632104976
1580417217.64344,5.52376592660403,-2.47196154726475,1.31227588311594
1580417217.64744,3.81475547417404,-1.80056458381023,0.885023270008332
1580417217.65144,2.53299763485165,-1.31227588311594,0.762951094834762
1580417217.65544,1.80056458381023,-1.0070954451819,0.579842832074519
1580417217.65944,1.61745632104976,-0.885023270008332,0.457770656900948
1580417217.66343,1.31227588311594,-0.762951094834762,0.51880674448762
1580417217.66743,1.67849240863666,-1.19020370794237,0.579842832074519
1580417217.67143,2.89921416037237,-1.55642023346309,0.946059357595232
1580417217.67543,4.54718852521546,-2.16678110933094,1.31227588311594
1580417217.67943,5.58480201419093,-3.14335851071951,1.73952849622333
1580417217.68343,6.56137941557949,-3.99786373693451,1.80056458381023
1580417217.68743,7.35484855420759,-4.48615243762879,1.80056458381023
1580417217.69144,7.29381246662092,-4.60822461280236,1.61745632104976
1580417217.69544,6.13412680247188,-4.7913328755626,1.49538414587619
1580417217.69943,4.36408026245522,-4.48615243762879,1.37331197070262
1580417217.70343,2.47196154726475,-3.93682764934761,1.43434805828952
1580417217.70743,0.762951094834762,-3.32646677347975,1.80056458381023
1580417217.71143,-1.31227588311594,-2.96025024795904,2.10574502174404
1580417217.71543,-3.20439459830618,-2.7771419851988,2.28885328450451
1580417217.71943,-4.66926070038903,-2.53299763485165,2.22781719691761
1580417217.72343,-5.46272983901736,-2.47196154726475,2.10574502174404
1580417217.72742,-5.40169375143046,-2.47196154726475,1.8616006713969
1580417217.73142,-4.24200808728165,-2.65506981002522,1.67849240863666
1580417217.73542,-2.65506981002522,-3.08232242313261,1.25123979552905
1580417217.73942,-1.49538414587619,-3.63164721141379,1.0681315327688
1580417217.74342,-1.0070954451819,-3.81475547417404,0.885023270008332
1580417217.74742,-1.31227588311594,-3.57061112382689,0.762951094834762
1580417217.75142,-2.16678110933094,-3.20439459830618,0.70191500724809
1580417217.75542,-3.57061112382689,-2.7161058976119,0.823987182421661
1580417217.75941,-5.21858548867021,-2.10574502174404,1.0070954451819
1580417217.76341,-6.43930724040592,-1.49538414587619,1.25123979552905
1580417217.76741,-6.68345159075307,-1.19020370794237,1.43434805828952
1580417217.77139,-5.40169375143046,-0.70191500724809,1.55642023346309
1580417217.77539,-3.14335851071951,-0.762951094834762,1.73952849622333
1580417217.77939,-0.579842832074519,-1.12916762035547,1.8616006713969
1580417217.78339,1.73952849622333,-1.25123979552905,1.8616006713969
1580417217.78739,3.69268329900046,-1.55642023346309,1.80056458381023
1580417217.79139,4.7913328755626,-1.49538414587619,1.61745632104976
1580417217.79538,5.09651331349664,-1.31227588311594,1.55642023346309
1580417217.79938,4.48615243762879,-1.25123979552905,1.49538414587619
1580417217.80338,3.44853894865332,-0.823987182421661,1.37331197070262
1580417217.80738,2.10574502174404,-0.457770656900948,1.43434805828952
1580417217.81138,0.885023270008332,-0.152590218966907,1.49538414587619
1580417217.81538,0.274662394140478,0.091554131380235,1.55642023346309
1580417217.81938,-0.091554131380235,0.70191500724809,1.49538414587619
1580417217.82338,-0.274662394140478,1.31227588311594,1.31227588311594
1580417217.82737,-0.152590218966907,1.61745632104976,1.12916762035547
1580417217.83137,0.091554131380235,1.67849240863666,1.12916762035547
1580417217.83537,0.51880674448762,1.55642023346309,1.25123979552905
1580417217.83937,0.579842832074519,1.37331197070262,1.19020370794237
1580417217.84337,0.70191500724809,1.37331197070262,1.12916762035547
1580417217.84737,1.25123979552905,1.43434805828952,1.0070954451819
1580417217.85138,2.10574502174404,1.31227588311594,0.885023270008332
1580417217.85538,2.16678110933094,1.19020370794237,0.885023270008332
1580417217.85938,2.10574502174404,0.823987182421661,0.762951094834762
1580417217.86337,3.26543068589308,0.579842832074519,0.51880674448762
1580417217.86737,4.7913328755626,0.396734569314049,0.640878919661191
1580417217.87137,5.88998245212474,0.213626306553806,0.579842832074519
1580417217.87537,6.13412680247188,0.274662394140478,0.51880674448762
1580417217.87937,5.7068741893645,0.51880674448762,0.335698481727377
1580417217.88337,4.7913328755626,0.70191500724809,0.396734569314049
1580417217.88737,3.38750286106665,1.0070954451819,0.335698481727377
1580417217.89137,1.73952849622333,1.19020370794237,0.335698481727377
1580417217.89536,0.51880674448762,1.19020370794237,0.396734569314049
1580417217.89936,-0.091554131380235,1.12916762035547,0.274662394140478
1580417217.90336,0.0305180437933359,0.946059357595232,0.213626306553806
1580417217.90736,0.457770656900948,0.946059357595232,0.152590218966907
1580417217.91136,1.37331197070262,0.70191500724809,0.091554131380235
1580417217.91536,2.53299763485165,0.335698481727377,0.274662394140478
1580417217.91936,3.81475547417404,-0.213626306553806,0.396734569314049
1580417217.92336,4.97444113832307,-0.885023270008332,0.946059357595232
1580417217.92735,5.58480201419093,-1.49538414587619,1.43434805828952
1580417217.93137,5.88998245212474,-1.9226367589838,1.80056458381023
1580417217.93536,5.58480201419093,-2.04470893415737,2.04470893415737
1580417217.93936,4.42511635004189,-1.73952849622333,1.98367284657047
1580417217.94336,2.89921416037237,-1.25123979552905,1.67849240863666
1580417217.94736,1.25123979552905,-0.823987182421661,1.12916762035547
1580417217.95136,-0.51880674448762,-0.396734569314049,0.640878919661191
1580417217.95536,-1.98367284657047,-0.274662394140478,0.274662394140478
1580417217.95936,-2.96025024795904,-0.640878919661191,0.335698481727377
1580417217.96336,-3.50957503624022,-0.946059357595232,0.335698481727377
1580417217.96735,-3.50957503624022,-1.19020370794237,0.51880674448762
1580417217.97135,-3.14335851071951,-1.31227588311594,0.640878919661191
1580417217.97535,-2.59403372243833,-1.37331197070262,0.70191500724809
1580417217.97935,-2.41092545967808,-1.49538414587619,0.70191500724809
1580417217.98335,-2.47196154726475,-1.12916762035547,0.762951094834762
1580417217.98735,-2.59403372243833,-0.762951094834762,0.946059357595232
1580417217.99135,-2.83817807278547,-0.213626306553806,1.12916762035547
1580417217.99535,-3.93682764934761,0.274662394140478,1.31227588311594
1580417217.99934,-5.21858548867021,0.70191500724809,1.67849240863666
1580417218.00334,-6.5003433279926,0.70191500724809,1.80056458381023
1580417218.00734,-7.17174029144735,0.762951094834762,1.73952849622333
1580417218.01132,-6.92759594110021,0.823987182421661,1.49538414587619
1580417218.01532,-5.82894636453807,0.762951094834762,1.12916762035547
1580417218.01932,-4.18097199969475,0.457770656900948,0.51880674448762
1580417218.02332,-1.98367284657047,0.396734569314049,-0.091554131380235
1580417218.02732,0.457770656900948,-0.0305180437933359,-0.274662394140478
1580417218.03131,2.7771419851988,-0.579842832074519,-0.457770656900948
1580417218.03531,5.15754940108332,-1.25123979552905,-0.457770656900948
1580417218.03931,7.17174029144735,-1.9226367589838,-0.152590218966907
1580417218.04331,8.6366063935302,-2.65506981002522,0.0305180437933359
1580417218.04731,9.73525597009234,-3.32646677347975,0.274662394140478
1580417218.05131,10.5897611963073,-3.57061112382689,0.579842832074519
1580417218.05531,11.1390859845883,-3.50957503624022,0.70191500724809
1580417218.05931,11.3221942473488,-3.38750286106665,0.823987182421661
1580417218.0633,11.1390859845883,-3.26543068589308,0.823987182421661
1580417218.0673,10.4066529335469,-3.08232242313261,0.762951094834762
1580417218.0713,9.85732814526591,-2.89921416037237,0.762951094834762
1580417218.0753,9.24696726939806,-2.89921416037237,0.823987182421661
1580417218.0793,7.96520943007545,-3.08232242313261,1.0070954451819
1580417218.0833,6.62241550316617,-2.96025024795904,1.31227588311594
1580417218.0873,5.03547722590974,-2.89921416037237,1.49538414587619
1580417218.09131,3.44853894865332,-2.7771419851988,1.55642023346309
1580417218.09531,2.10574502174404,-2.10574502174404,1.73952849622333
1580417218.09931,1.25123979552905,-1.61745632104976,2.04470893415737
1580417218.1033,0.70191500724809,-1.0681315327688,2.04470893415737
1580417218.1073,0.213626306553806,-0.640878919661191,2.16678110933094
1580417218.1113,0.0305180437933359,-0.335698481727377,2.28885328450451
1580417218.1153,0.091554131380235,-0.213626306553806,2.28885328450451
1580417218.1193,0.51880674448762,-0.152590218966907,2.28885328450451
1580417218.1233,1.37331197070262,-0.274662394140478,2.53299763485165
1580417218.1273,2.47196154726475,-0.213626306553806,2.41092545967808
1580417218.1313,3.32646677347975,-0.274662394140478,2.16678110933094
1580417218.13529,4.18097199969475,-0.0305180437933359,1.9226367589838
1580417218.13929,4.73029678797593,0.274662394140478,1.49538414587619
1580417218.14329,5.09651331349664,0.274662394140478,1.12916762035547
1580417218.14729,4.73029678797593,0.396734569314049,0.70191500724809
1580417218.15129,4.48615243762879,0.579842832074519,0.457770656900948
1580417218.15529,4.54718852521546,1.0681315327688,0.091554131380235
1580417218.15929,4.8523689631495,1.19020370794237,0.091554131380235
1580417218.16329,4.7913328755626,1.37331197070262,0.335698481727377
1580417218.16728,3.93682764934761,1.25123979552905,0.640878919661191
1580417218.17129,3.20439459830618,1.12916762035547,0.823987182421661
1580417218.17529,2.22781719691761,1.49538414587619,0.823987182421661
1580417218.17929,1.25123979552905,1.8616006713969,0.579842832074519
1580417218.18329,0.152590218966907,2.22781719691761,0.152590218966907
1580417218.18729,-0.579842832074519,2.53299763485165,-0.213626306553806
1580417218.19129,-0.640878919661191,2.41092545967808,-0.579842832074519
1580417218.19529,0.152590218966907,2.10574502174404,-0.70191500724809
1580417218.19929,1.55642023346309,1.73952849622333,-0.579842832074519
1580417218.20328,2.7161058976119,1.12916762035547,-0.152590218966907
1580417218.20728,3.26543068589308,0.640878919661191,0.091554131380235
1580417218.21128,2.7771419851988,0.946059357595232,0.396734569314049
1580417218.21528,1.31227588311594,1.61745632104976,0.640878919661191
1580417218.21928,-1.12916762035547,2.53299763485165,0.70191500724809
1580417218.22328,-4.42511635004189,3.57061112382689,0.51880674448762
1580417218.22728,-7.53795681696806,4.36408026245522,0.70191500724809
1580417218.23128,-9.91836423285258,5.21858548867021,0.70191500724809
1580417218.23528,-10.8339055466545,5.76791027695117,0.823987182421661
1580417218.23927,-10.4066529335469,5.52376592660403,1.25123979552905
1580417218.24327,-9.24696726939806,4.91340505073617,1.8616006713969
1580417218.24727,-7.47692072938116,3.87579156176093,2.34988937209118
1580417218.25125,-5.34065766384379,2.89921416037237,2.59403372243833
1580417218.25525,-3.02128633554594,2.28885328450451,2.41092545967808
1580417218.25925,-1.43434805828952,1.73952849622333,1.9226367589838
1580417218.26325,-0.51880674448762,1.55642023346309,1.19020370794237
1580417218.26725,-0.213626306553806,1.8616006713969,0.213626306553806
1580417218.27125,0.152590218966907,2.16678110933094,-0.396734569314049
1580417218.27524,0.640878919661191,2.41092545967808,-0.762951094834762
1580417218.27924,1.0070954451819,2.28885328450451,-0.885023270008332
1580417218.28324,1.25123979552905,1.80056458381023,-0.640878919661191
1580417218.28724,1.61745632104976,1.31227588311594,-0.213626306553806
1580417218.29124,1.9226367589838,1.0681315327688,0.152590218966907
1580417218.29524,2.47196154726475,0.885023270008332,0.396734569314049
1580417218.29924,2.59403372243833,1.0681315327688,0.70191500724809
1580417218.30323,2.41092545967808,1.43434805828952,0.762951094834762
1580417218.30723,2.10574502174404,1.67849240863666,0.640878919661191
1580417218.31123,1.73952849622333,1.67849240863666,0.640878919661191
1580417218.31523,1.37331197070262,1.25123979552905,0.70191500724809
1580417218.31923,1.37331197070262,0.70191500724809,0.762951094834762
1580417218.32323,1.55642023346309,0.152590218966907,0.70191500724809
1580417218.32723,2.34988937209118,-0.091554131380235,0.579842832074519
1580417218.33124,3.26543068589308,0.0305180437933359,0.51880674448762
1580417218.33524,3.93682764934761,0.0305180437933359,0.213626306553806
1580417218.33923,3.81475547417404,-0.0305180437933359,0.0305180437933359
1580417218.34323,2.89921416037237,-0.0305180437933359,-0.335698481727377
1580417218.34723,1.55642023346309,-0.0305180437933359,-0.51880674448762
1580417218.35123,0.396734569314049,0.152590218966907,-0.885023270008332
1580417218.35523,-0.274662394140478,0.396734569314049,-1.19020370794237
1580417218.35923,-0.274662394140478,0.762951094834762,-1.25123979552905
1580417218.36323,0.213626306553806,0.579842832074519,-0.946059357595232
1580417218.36723,0.762951094834762,0.0305180437933359,-0.396734569314049
1580417218.37122,2.04470893415737,-0.640878919661191,0.0305180437933359
1580417218.37522,3.93682764934761,-1.19020370794237,0.396734569314049
1580417218.37922,5.88998245212474,-1.43434805828952,0.457770656900948
1580417218.38322,7.7821011673152,-1.55642023346309,0.091554131380235
1580417218.38722,8.51453421835663,-1.49538414587619,-0.0305180437933359
1580417218.39122,8.08728160524902,-1.19020370794237,-0.152590218966907
1580417218.39522,6.80552376592664,-0.762951094834762,-0.335698481727377
1580417218.39922,5.76791027695117,-0.335698481727377,-0.335698481727377
1580417218.40321,4.66926070038903,-0.213626306553806,-0.152590218966907
1580417218.40721,3.69268329900046,-0.274662394140478,0.335698481727377
1580417218.41119,2.83817807278547,-0.51880674448762,0.885023270008332
1580417218.41519,2.53299763485165,-0.762951094834762,1.12916762035547
1580417218.41919,2.7161058976119,-0.457770656900948,1.37331197070262
1580417218.42319,3.02128633554594,-0.091554131380235,1.49538414587619
1580417218.42719,3.08232242313261,0.0305180437933359,1.25123979552905
1580417218.43119,3.14335851071951,0.213626306553806,1.0681315327688
1580417218.43519,3.32646677347975,0.091554131380235,1.0681315327688
1580417218.43918,3.50957503624022,-0.213626306553806,0.885023270008332
1580417218.44318,3.93682764934761,-0.51880674448762,0.946059357595232
1580417218.44718,4.7913328755626,-1.0070954451819,1.12916762035547
1580417218.45118,5.6458381017776,-1.43434805828952,1.25123979552905
1580417218.45518,6.5003433279926,-1.73952849622333,1.43434805828952
1580417218.45918,7.17174029144735,-1.73952849622333,1.67849240863666
1580417218.46318,7.35484855420759,-1.61745632104976,2.04470893415737
1580417218.46718,6.37827115281902,-1.37331197070262,2.28885328450451
1580417218.47117,4.48615243762879,-1.12916762035547,2.47196154726475
1580417218.47517,2.10574502174404,-0.762951094834762,2.53299763485165
1580417218.47917,-0.70191500724809,-0.152590218966907,2.53299763485165
1580417218.48317,-3.44853894865332,0.579842832074519,2.22781719691761
1580417218.48717,-5.7068741893645,1.19020370794237,1.98367284657047
1580417218.49118,-7.29381246662092,1.55642023346309,1.98367284657047
1580417218.49518,-7.96520943007545,1.55642023346309,2.04470893415737
1580417218.49918,-7.53795681696806,1.0681315327688,2.16678110933094
1580417218.50318,-6.19516289005878,0.396734569314049,2.16678110933094
1580417218.50717,-4.30304417486832,-0.70191500724809,2.22781719691761
1580417218.51117,-2.53299763485165,-1.49538414587619,2.04470893415737
1580417218.51517,-1.0070954451819,-2.16678110933094,1.61745632104976
1580417218.51917,0.274662394140478,-2.47196154726475,1.19020370794237
1580417218.52317,1.12916762035547,-2.28885328450451,0.70191500724809
1580417218.52717,1.55642023346309,-1.80056458381023,0.274662394140478
1580417218.53117,1.61745632104976,-1.0681315327688,0.0305180437933359
1580417218.53517,1.49538414587619,-0.335698481727377,0.0305180437933359
1580417218.53917,1.12916762035547,-0.091554131380235,0.457770656900948
1580417218.54316,0.274662394140478,-0.152590218966907,1.12916762035547
1580417218.54716,-0.946059357595232,-0.213626306553806,2.04470893415737
1580417218.55116,-2.28885328450451,-0.396734569314049,2.59403372243833
1580417218.55516,-3.32646677347975,-0.152590218966907,2.96025024795904
1580417218.55916,-4.05889982452118,0.335698481727377,2.96025024795904
1580417218.56316,-4.8523689631495,0.579842832074519,2.41092545967808
1580417218.56716,-5.46272983901736,0.885023270008332,1.8616006713969
1580417218.57117,-5.52376592660403,0.762951094834762,1.25123979552905
1580417218.57517,-4.97444113832307,0.396734569314049,1.0681315327688
1580417218.57916,-3.87579156176093,-0.152590218966907,0.946059357595232
1580417218.58316,-2.47196154726475,-0.640878919661191,0.823987182421661
1580417218.58716,-0.70191500724809,-1.12916762035547,0.640878919661191
1580417218.59116,0.396734569314049,-1.31227588311594,0.335698481727377
1580417218.59516,1.19020370794237,-1.37331197070262,0.396734569314049
1580417218.59916,1.55642023346309,-1.12916762035547,0.213626306553806
1580417218.60316,1.8616006713969,-0.70191500724809,0.091554131380235
1580417218.60715,1.80056458381023,-0.51880674448762,0.091554131380235
1580417218.61115,1.12916762035547,-0.152590218966907,0.213626306553806
1580417218.61515,-0.152590218966907,0.152590218966907,0.51880674448762
1580417218.61915,-2.22781719691761,0.51880674448762,0.762951094834762
1580417218.62315,-4.54718852521546,1.25123979552905,0.823987182421661
1580417218.62715,-6.98863202868688,2.16678110933094,0.640878919661191
1580417218.63115,-9.18593118181116,3.08232242313261,0.335698481727377
1580417218.63515,-11.4442664225223,3.87579156176093,0.274662394140478
1580417218.63914,-13.8246738384069,4.36408026245522,-0.091554131380235
1580417218.64314,-16.1440451667047,5.21858548867021,-0.640878919661191
1580417218.64714,-17.5478751812009,6.31723506523235,-1.12916762035547
1580417218.65112,-17.486839093614,7.17174029144735,-1.61745632104976
1580417218.65512,-15.3505760280766,7.41588464179449,-1.80056458381023
1580417218.65912,-11.0170138094147,6.56137941557949,-1.37331197070262
1580417218.66312,-5.6458381017776,3.87579156176093,-0.396734569314049
1580417218.66712,-0.640878919661191,0.885023270008332,0.70191500724809
1580417218.67112,3.32646677347975,-1.0681315327688,1.12916762035547
1580417218.67511,5.03547722590974,-0.946059357595232,0.70191500724809
1580417218.67911,3.75371938658736,0.51880674448762,-0.823987182421661
1580417218.68311,-0.213626306553806,2.28885328450451,-2.65506981002522
1580417218.68711,-5.58480201419093,4.24200808728165,-4.36408026245522
1580417218.69111,-10.5287251087204,5.52376592660403,-5.27962157625689
1580417218.69511,-12.359807736324,5.34065766384379,-5.6458381017776
1580417218.69911,-9.79629205767901,3.81475547417404,-5.03547722590974
1580417218.70311,-4.66926070038903,1.55642023346309,-3.69268329900046
1580417218.7071,0.396734569314049,-1.12916762035547,-2.04470893415737
1580417218.7111,4.24200808728165,-3.02128633554594,-1.0070954451819
1580417218.7151,6.86655985351331,-3.20439459830618,-0.762951094834762
1580417218.7191,8.51453421835663,-2.22781719691761,-1.25123979552905
1580417218.7231,8.69764248111687,-1.0681315327688,-1.8616006713969
1580417218.7271,8.08728160524902,-0.091554131380235,-2.65506981002522
1580417218.73111,6.92759594110021,0.213626306553806,-2.7771419851988
1580417218.73511,6.01205462729831,-0.51880674448762,-2.16678110933094
1580417218.73911,5.58480201419093,-1.8616006713969,-1.0070954451819
1580417218.74311,5.6458381017776,-3.38750286106665,0.213626306553806
1580417218.7471,6.25619897764545,-3.99786373693451,1.37331197070262
1580417218.7511,7.29381246662092,-3.99786373693451,2.16678110933094
1580417218.7551,8.45349813076973,-3.99786373693451,2.47196154726475
1580417218.7591,9.55214770733187,-4.05889982452118,2.47196154726475
1580417218.7631,10.2235446707866,-4.11993591210808,2.47196154726475
1580417218.7671,10.7118333714809,-4.60822461280236,2.41092545967808
1580417218.7711,10.7728694590676,-4.7913328755626,2.22781719691761
1580417218.7751,10.5287251087204,-4.91340505073617,2.28885328450451
1580417218.77909,9.85732814526591,-4.73029678797593,2.34988937209118
1580417218.78309,9.12489509422448,-4.66926070038903,2.65506981002522
1580417218.78709,8.5755703059433,-4.42511635004189,3.14335851071951
1580417218.79109,8.39246204318306,-4.24200808728165,3.81475547417404
1580417218.79509,9.18593118181116,-4.05889982452118,4.48615243762879
1580417218.79909,10.4066529335469,-3.93682764934761,5.03547722590974
1580417218.80309,11.8715190356297,-3.99786373693451,5.21858548867021
1580417218.80709,13.1532768749523,-3.93682764934761,5.34065766384379
1580417218.8111,14.0077821011673,-3.50957503624022,5.46272983901736
1580417218.81509,14.2519264515145,-2.96025024795904,5.34065766384379
1580417218.81909,14.068818188754,-2.41092545967808,5.46272983901736
1580417218.82309,13.7026016632333,-2.28885328450451,5.7068741893645
1580417218.82709,13.2753490501259,-2.53299763485165,5.82894636453807
1580417218.83109,12.7260242618447,-2.47196154726475,6.01205462729831
1580417218.83509,12.1766994735638,-2.47196154726475,5.82894636453807
1580417218.83909,11.2611581597619,-2.34988937209118,5.46272983901736
1580417218.84309,9.91836423285258,-2.10574502174404,5.03547722590974
1580417218.84708,8.39246204318306,-1.67849240863666,3.99786373693451
1580417218.85108,7.04966811627378,-1.12916762035547,3.20439459830618
1580417218.85508,5.52376592660403,-0.51880674448762,2.34988937209118
1580417218.85908,3.63164721141379,0.0305180437933359,1.73952849622333
1580417218.86308,1.37331197070262,-0.091554131380235,1.49538414587619
1580417218.86708,-0.823987182421661,-0.640878919661191,1.31227588311594
1580417218.87108,-1.80056458381023,-0.823987182421661,0.885023270008332
1580417218.87508,-1.67849240863666,0.0305180437933359,0.457770656900948
1580417218.87907,-1.55642023346309,1.73952849622333,0.213626306553806
1580417218.88307,-2.53299763485165,3.08232242313261,0.0305180437933359
1580417218.88707,-4.05889982452118,3.57061112382689,-0.091554131380235
1580417218.89105,-5.15754940108332,3.38750286106665,0.091554131380235
1580417218.89505,-4.8523689631495,2.96025024795904,0.579842832074519
1580417218.89905,-2.53299763485165,2.16678110933094,0.823987182421661
1580417218.90305,1.31227588311594,1.37331197070262,1.0070954451819
1580417218.90705,4.73029678797593,0.51880674448762,0.885023270008332
1580417218.91105,6.68345159075307,0.51880674448762,0.579842832074519
1580417218.91504,6.80552376592664,1.55642023346309,0.0305180437933359
1580417218.91904,5.09651331349664,3.44853894865332,-0.762951094834762
1580417218.92304,1.55642023346309,5.40169375143046,-1.19020370794237
1580417218.92704,-2.53299763485165,6.74448767833974,-1.19020370794237
1580417218.93104,-5.34065766384379,7.17174029144735,-0.823987182421661
1580417218.93504,-5.82894636453807,6.5003433279926,0.152590218966907
1580417218.93904,-4.18097199969475,5.40169375143046,1.43434805828952
1580417218.94304,-1.12916762035547,4.54718852521546,2.53299763485165
1580417218.94703,1.55642023346309,4.42511635004189,3.02128633554594
1580417218.95103,3.02128633554594,4.91340505073617,3.02128633554594
1580417218.95503,2.96025024795904,5.6458381017776,2.53299763485165
1580417218.95903,1.61745632104976,6.01205462729831,1.67849240863666
1580417218.96303,-0.335698481727377,6.5003433279926,0.823987182421661
1580417218.96703,-1.67849240863666,6.92759594110021,-0.0305180437933359
1580417218.97104,-2.04470893415737,6.86655985351331,-0.640878919661191
1580417218.97504,-1.80056458381023,6.56137941557949,-1.0070954451819
1580417218.97904,-1.98367284657047,5.95101853971164,-1.0681315327688
1580417218.98303,-2.22781719691761,5.6458381017776,-1.0681315327688
1580417218.98703,-1.98367284657047,5.52376592660403,-1.31227588311594
1580417218.99103,-1.31227588311594,5.6458381017776,-1.43434805828952
1580417218.99503,0.274662394140478,5.52376592660403,-1.61745632104976
1580417218.99903,2.41092545967808,5.15754940108332,-1.98367284657047
1580417219.00303,4.7913328755626,4.30304417486832,-2.10574502174404
1580417219.00703,7.11070420386045,3.32646677347975,-1.80056458381023
1580417219.01103,9.12489509422448,2.59403372243833,-1.37331197070262
1580417219.01502,10.5287251087204,2.28885328450451,-0.885023270008332
1580417219.01902,11.4442664225223,2.10574502174404,-0.51880674448762
1580417219.02302,11.7494468604561,2.34988937209118,-0.457770656900948
1580417219.02702,11.3221942473488,2.89921416037237,-0.274662394140478
1580417219.03102,10.4066529335469,3.57061112382689,-0.274662394140478
1580417219.03502,8.69764248111687,4.36408026245522,-0.335698481727377
1580417219.03902,6.68345159075307,5.03547722590974,-0.274662394140478
1580417219.04302,4.54718852521546,5.6458381017776,-0.396734569314049
1580417219.04701,2.41092545967808,6.13412680247188,-0.457770656900948
1580417219.05102,0.885023270008332,6.25619897764545,-0.51880674448762
1580417219.05502,0.152590218966907,5.95101853971164,-0.457770656900948
1580417219.05902,-0.0305180437933359,5.34065766384379,-0.396734569314049
1580417219.06302,0.70191500724809,4.8523689631495,-0.335698481727377
1580417219.06702,2.04470893415737,4.48615243762879,-0.335698481727377
1580417219.07102,3.57061112382689,3.99786373693451,-0.51880674448762
1580417219.07502,4.66926070038903,3.87579156176093,-0.823987182421661
1580417219.07902,5.15754940108332,3.75371938658736,-1.12916762035547
1580417219.08301,4.91340505073617,3.69268329900046,-1.61745632104976
1580417219.08701,4.73029678797593,3.57061112382689,-2.10574502174404
1580417219.09101,5.03547722590974,3.63164721141379,-2.34988937209118
1580417219.09501,5.40169375143046,3.75371938658736,-2.59403372243833
1580417219.09901,5.88998245212474,3.63164721141379,-3.14335851071951
1580417219.10301,6.13412680247188,3.63164721141379,-6.43930724040592
1580417219.10701,3.93682764934761,2.41092545967808,-10.0404364080262
1580417219.11101,-0.396734569314049,0.579842832074519,-13.3363851377126
1580417219.11501,-6.37827115281902,0.152590218966907,-16.5712977798123
1580417219.119,-13.6415655756466,0.152590218966907,-19.195849546044
1580417219.123,-22.4917982757304,0.457770656900948,-20.5386434729533
1580417219.127,-33.3562218661784,0.640878919661191,-21.3931486991683
1580417219.13098,-44.2206454566262,0.885023270008332,-21.9424734874494
1580417219.13498,-52.8267338063631,1.12916762035547,-21.759365224689
1580417219.13898,-59.2355230029755,2.34988937209118,-20.6607156481268
1580417219.14298,-57.8927290760662,5.03547722590974,-20.5996795605402
1580417219.14698,-45.5024032959489,6.86655985351331,-22.4917982757304
1580417219.15097,-24.8111696040282,6.68345159075307,-25.1773861295489
1580417219.15497,5.27962157625689,5.27962157625689,-23.773556115053
1580417219.15897,60.8224612802319,-14.9843595025559,-22.919050888838
1580417219.16297,45.929655909056,-20.5996795605402,-27.4357213702601
1580417219.16697,-17.4258030060273,-5.52376592660403,-29.6940566109711
1580417219.17097,-65.8884565499352,2.22781719691761,-30.3654535744258
1580417219.17497,-80.7812619211109,-0.274662394140478,-31.0368505378804
1580417219.17897,-67.3533226520181,16.9985503929197,-27.4967574578468
1580417219.18297,-22.613870450904,19.6231021591516,-18.0971999694818
1580417219.18696,27.0084687571525,1.19020370794237,-8.51453421835663
1580417219.19096,43.0609597924772,-10.955977721828,-2.04470893415737
1580417219.19496,28.5954070344089,-12.0546272983902,3.32646677347975
1580417219.19896,5.21858548867021,-9.30800335698473,9.61318379491877
1580417219.20296,-14.923323414969,-6.01205462729831,12.7260242618447
1580417219.20696,-26.1539635309375,-1.43434805828952,13.1532768749523
1580417219.21097,-24.2618448157473,3.69268329900046,11.7494468604561
1580417219.21497,-13.7636377508202,6.31723506523235,9.24696726939806
1580417219.21896,-2.7161058976119,5.7068741893645,6.98863202868688
1580417219.22296,4.36408026245522,3.14335851071951,4.97444113832307
1580417219.22696,8.39246204318306,2.16678110933094,3.93682764934761
1580417219.23096,8.39246204318306,1.0681315327688,3.50957503624022
1580417219.23496,6.25619897764545,0.457770656900948,1.25123979552905
1580417219.23896,6.31723506523235,1.31227588311594,-3.50957503624022
1580417219.24296,6.07309071488521,1.98367284657047,-5.40169375143046
1580417219.24696,3.87579156176093,-0.152590218966907,-6.31723506523235
1580417219.25095,-0.70191500724809,-4.24200808728165,-6.25619897764545
1580417219.25495,-7.84313725490188,-7.11070420386045,-6.74448767833974
1580417219.25895,-15.4726482032502,-7.59899290455473,-7.41588464179449
1580417219.26295,-21.6983291371023,-6.86655985351331,-8.02624551766235
1580417219.26695,-25.3604943923094,-5.88998245212474,-7.96520943007545
1580417219.27095,-25.8487830930037,-5.15754940108332,-7.23277637903402
1580417219.27495,-22.5528343633173,-4.05889982452118,-5.88998245212474
1580417219.27895,-11.5663385976959,-0.579842832074519,-4.60822461280236
1580417219.28294,4.36408026245522,4.05889982452118,-3.87579156176093
1580417219.28694,15.5336842908368,5.21858548867021,-3.93682764934761
1580417219.29092,18.5244525825894,1.19020370794237,-4.66926070038903
1580417219.29492,16.083009079118,-4.7913328755626,-5.34065766384379
1580417219.29892,12.1156633859769,-8.88075074387734,-5.6458381017776
1580417219.30292,8.14831769283592,-9.73525597009234,-5.27962157625689
1580417219.30692,4.97444113832307,-8.51453421835663,-4.18097199969475
1580417219.31092,3.69268329900046,-6.5003433279926,-3.02128633554594
1580417219.31492,3.63164721141379,-4.97444113832307,-1.9226367589838
1580417219.31891,3.87579156176093,-3.99786373693451,-0.885023270008332
1580417219.32291,3.99786373693451,-3.44853894865332,-0.0305180437933359
1580417219.32691,3.38750286106665,-2.96025024795904,0.762951094834762
1580417219.33091,1.55642023346309,-2.16678110933094,1.19020370794237
1580417219.33491,-0.152590218966907,-1.31227588311594,1.0681315327688
1580417219.33891,-1.25123979552905,-0.579842832074519,1.0070954451819
1580417219.34291,-1.67849240863666,-0.51880674448762,0.823987182421661
1580417219.34691,-2.22781719691761,-0.823987182421661,0.640878919661191
1580417219.3509,-2.16678110933094,-1.49538414587619,0.51880674448762
1580417219.3549,-1.8616006713969,-1.73952849622333,0.457770656900948
1580417219.3589,-1.37331197070262,-1.19020370794237,0.335698481727377
1580417219.3629,-0.946059357595232,-0.579842832074519,0.152590218966907
1580417219.3669,-0.335698481727377,0.0305180437933359,-0.213626306553806
1580417219.37091,0.457770656900948,0.823987182421661,-0.762951094834762
1580417219.37491,1.31227588311594,1.43434805828952,-1.37331197070262
1580417219.37891,2.96025024795904,1.25123979552905,-1.55642023346309
1580417219.38291,5.58480201419093,0.274662394140478,-1.43434805828952
1580417219.3869,8.27038986800949,-1.0681315327688,-1.19020370794237
1580417219.3909,10.2845807583733,-2.47196154726475,-0.946059357595232
1580417219.3949,11.2611581597619,-3.81475547417404,-0.823987182421661
1580417219.3989,10.2845807583733,-5.15754940108332,-0.640878919661191
1580417219.4029,7.66002899214163,-6.37827115281902,-0.274662394140478
1580417219.4069,4.36408026245522,-7.84313725490188,0.762951094834762
1580417219.4109,0.640878919661191,-9.61318379491877,2.22781719691761
1580417219.4149,-3.44853894865332,-11.0780498970016,3.93682764934761
1580417219.4189,-8.51453421835663,-12.1766994735638,5.15754940108332
1580417219.42289,-14.5571068894483,-13.3363851377126,6.5003433279926
1580417219.42689,-22.1866178377966,-14.1908903639276,7.04966811627378
1580417219.43089,-32.2575722896163,-14.2519264515145,7.04966811627378
1580417219.43489,-42.2064545662624,-13.7026016632333,6.92759594110021
1580417219.43889,-51.2397955291067,-12.6039520866711,6.80552376592664
1580417219.44289,-59.6017395284962,-10.955977721828,7.17174029144735
1580417219.44689,-64.484626535439,-7.90417334248878,8.69764248111687
1580417219.4509,-60.8224612802319,-4.73029678797593,16.1440451667047
1580417219.4549,-34.5769436179141,0.091554131380235,35.0652323186082
1580417219.45889,-6.25619897764545,0.70191500724809,35.6145571068894
1580417219.46289,2.83817807278547,3.02128633554594,34.4548714427403
1580417219.46689,4.42511635004189,4.54718852521546,38.239108873121
1580417219.47089,-0.335698481727377,3.81475547417404,41.4129854276339
1580417219.47489,-11.3221942473488,2.59403372243833,40.3143358510717
1580417219.47889,-22.0035095750361,0.823987182421661,38.6053253986418
1580417219.48289,-21.0269321736475,0.640878919661191,35.8587014572365
1580417219.48689,-10.2845807583733,0.946059357595232,33.7224383916989
1580417219.49088,5.52376592660403,3.57061112382689,29.4499122606239
1580417219.49488,22.7969787136644,9.97940032043948,24.2618448157473
1580417219.49888,34.2717631799801,10.955977721828,20.5386434729533
1580417219.50288,37.5066758220796,8.08728160524902,16.9985503929197
1580417219.50688,34.3327992675668,7.11070420386045,14.1908903639276
1580417219.51088,31.4030670634011,9.67421988250544,11.505302510109
1580417219.51488,30.4264896620125,11.8715190356297,6.92759594110021
1580417219.51888,33.7834744792858,12.7870603494316,1.43434805828952
1580417219.52287,30.9147783627068,8.02624551766235,2.7771419851988
1580417219.52687,25.8487830930037,1.67849240863666,4.66926070038903
1580417219.53085,14.7402151522087,0.51880674448762,7.72106507972831
1580417219.53485,2.10574502174404,3.26543068589308,10.2845807583733
1580417219.53885,-6.37827115281902,3.38750286106665,10.650797283894
1580417219.54285,-12.9091325246052,0.274662394140478,8.94178683146401
1580417219.54685,-18.8296330205233,-3.57061112382689,5.76791027695117
1580417219.55085,-23.1021591515982,-3.81475547417404,1.19020370794237
1580417219.55484,-23.8345922026397,-1.25123979552905,-3.14335851071951
1580417219.55884,-21.210040436408,0.885023270008332,-5.6458381017776
1580417219.56284,-16.3881895170518,2.16678110933094,-7.84313725490188
1580417219.56684,-10.1014724956131,3.02128633554594,-9.85732814526591
1580417219.57084,-3.87579156176093,3.87579156176093,-11.9935912108033
1580417219.57484,-0.335698481727377,3.08232242313261,-12.664988174258
1580417219.57884,-3.08232242313261,-0.885023270008332,-10.2235446707866
1580417219.58284,-8.08728160524902,-3.87579156176093,-8.81971465629044
1580417219.58683,-14.4960708018616,-2.7161058976119,-7.7821011673152
1580417219.59083,-16.1440451667047,-1.0681315327688,-6.92759594110021
1580417219.59483,-11.0170138094147,-1.37331197070262,-6.5003433279926
1580417219.59883,-1.98367284657047,-2.22781719691761,-6.25619897764545
1580417219.60283,9.00282291905091,-1.73952849622333,-5.09651331349664
1580417219.60683,20.4165712977797,-0.51880674448762,-2.65506981002522
1580417219.61084,29.4499122606239,0.0305180437933359,0.335698481727377
1580417219.61484,34.3327992675668,0.152590218966907,3.02128633554594
1580417219.61884,37.1404592965589,1.61745632104976,2.16678110933094
1580417219.62284,42.9999237048903,6.37827115281902,-0.885023270008332
1580417219.62683,42.6947432669565,8.88075074387734,-0.335698481727377
1580417219.63083,40.6195162890058,3.20439459830618,-0.213626306553806
1580417219.63483,35.2483405813687,-3.02128633554594,0.152590218966907
1580417219.63883,25.1773861295489,-1.43434805828952,1.98367284657047
1580417219.64283,19.9893186846723,2.28885328450451,4.36408026245522
1580417219.64683,20.5996795605402,1.9226367589838,6.43930724040592
1580417219.65083,22.3086900129701,-0.0305180437933359,7.23277637903402
1580417219.65483,23.773556115053,0.0305180437933359,7.29381246662092
1580417219.65882,26.6422522316318,1.19020370794237,7.23277637903402
1580417219.66282,29.6330205233844,2.59403372243833,6.68345159075307
1580417219.66682,31.4030670634011,3.93682764934761,5.52376592660403
1580417219.67082,30.3654535744258,4.18097199969475,3.99786373693451
1580417219.67482,27.9240100709544,3.08232242313261,2.96025024795904
1580417219.67882,25.9098191805904,1.43434805828952,2.41092545967808
1580417219.68282,25.1163500419623,-0.152590218966907,1.8616006713969
1580417219.68682,24.8722056916151,-1.0681315327688,1.0681315327688
1580417219.69083,24.322880903334,-1.43434805828952,0.70191500724809
1580417219.69482,22.9800869764247,-1.49538414587619,0.640878919661191
1580417219.69882,21.0879682612344,-1.73952849622333,0.70191500724809
1580417219.70282,19.0127412832837,-2.22781719691761,0.51880674448762
1580417219.70682,16.632333867399,-2.96025024795904,0.0305180437933359
1580417219.71082,12.9701686121919,-3.63164721141379,-0.335698481727377
1580417219.71482,8.20935378042259,-3.93682764934761,-0.885023270008332
1580417219.71882,3.08232242313261,-4.18097199969475,-1.73952849622333
1580417219.72282,-1.49538414587619,-3.38750286106665,-2.7161058976119
1580417219.72681,-5.15754940108332,-1.98367284657047,-3.38750286106665
1580417219.73081,-7.96520943007545,-0.457770656900948,-3.38750286106665
1580417219.73481,-9.73525597009234,0.823987182421661,-2.89921416037237
1580417219.73881,-10.650797283894,2.04470893415737,-2.16678110933094
1580417219.74281,-9.91836423285258,3.26543068589308,-1.37331197070262
1580417219.74681,-8.45349813076973,4.24200808728165,-0.70191500724809
1580417219.75081,-7.35484855420759,4.48615243762879,-0.51880674448762
1580417219.75481,-5.7068741893645,4.18097199969475,-1.0070954451819
1580417219.75881,-3.44853894865332,3.32646677347975,-1.61745632104976
1580417219.7628,-1.0070954451819,2.34988937209118,-2.22781719691761
1580417219.7668,0.51880674448762,0.823987182421661,-2.34988937209118
1580417219.77078,0.51880674448762,-0.762951094834762,-2.47196154726475
1580417219.77478,-0.885023270008332,-1.80056458381023,-2.83817807278547
1580417219.77878,-3.81475547417404,-2.34988937209118,-3.44853894865332
1580417219.78278,-8.20935378042259,-2.53299763485165,-3.81475547417404
1580417219.78678,-13.4584573128861,-2.16678110933094,-3.93682764934761
1580417219.79078,-18.341344319829,-1.61745632104976,-3.75371938658736
1580417219.79478,-22.7359426260775,-0.457770656900948,-3.75371938658736
1580417219.79877,-26.5201800564582,1.25123979552905,-3.57061112382689
1580417219.80277,-29.6940566109711,3.38750286106665,-3.57061112382689
1580417219.80677,-32.7458609903106,5.82894636453807,-3.69268329900046
1580417219.81077,-35.3704127565425,8.08728160524902,-3.87579156176093
1580417219.81477,-37.8118562600139,9.12489509422448,-3.75371938658736
1580417219.81877,-40.314335851072,9.55214770733187,-3.50957503624022
1580417219.82277,-42.328526741436,9.00282291905091,-2.96025024795904
1580417219.82676,-43.0609597924774,8.39246204318306,-2.7771419851988
1580417219.83076,-41.8402380407417,7.7821011673152,-2.41092545967808
1580417219.83476,-39.1546501869232,7.47692072938116,-1.98367284657047
1580417219.83876,-34.8210879682613,7.11070420386045,-1.55642023346309
1580417219.84276,-29.6330205233844,6.56137941557949,-0.823987182421661
1580417219.84676,-24.1397726405737,6.01205462729831,0.091554131380235
1580417219.85077,-18.5854886701761,4.97444113832307,1.19020370794237
1580417219.85477,-12.4818799114976,3.99786373693451,2.53299763485165
1580417219.85877,-5.34065766384379,2.83817807278547,4.36408026245522
1580417219.86276,2.34988937209118,1.19020370794237,6.5003433279926
1580417219.86676,9.30800335698473,-0.51880674448762,8.51453421835663
1580417219.87076,14.373998626688,-2.53299763485165,10.4066529335469
1580417219.87476,17.6699473563745,-4.48615243762879,11.7494468604561
1580417219.87876,20.4776073853666,-6.13412680247188,12.664988174258
1580417219.88276,23.1021591515982,-7.35484855420759,13.1532768749523
1580417219.88676,25.5436026550697,-7.7821011673152,13.3974212252995
1580417219.89076,27.5577935454337,-7.72106507972831,13.4584573128861
1580417219.89475,28.2902265964751,-7.90417334248878,13.7026016632333
1580417219.89875,28.4122987716487,-7.96520943007545,13.519493400473
1580417219.90275,28.2902265964751,-7.04966811627378,13.1532768749523
1580417219.90675,27.8629739833675,-5.82894636453807,12.7260242618447
1580417219.91075,27.0084687571525,-4.24200808728165,12.4818799114976
1580417219.91475,24.7501335164416,-2.34988937209118,12.1156633859769
1580417219.91875,20.2334630350194,-0.457770656900948,11.3832303349354
1580417219.92275,14.6181429770352,0.579842832074519,10.650797283894
1580417219.92674,9.12489509422448,0.946059357595232,9.61318379491877
1580417219.93072,5.03547722590974,1.43434805828952,8.45349813076973
1580417219.93472,3.99786373693451,1.98367284657047,7.11070420386045
1580417219.93872,6.19516289005878,1.98367284657047,5.88998245212474
1580417219.94272,11.6884107728695,1.49538414587619,4.60822461280236
1580417219.94672,19.6231021591516,0.457770656900948,3.02128633554594
1580417219.95072,27.4357213702601,-0.335698481727377,1.61745632104976
1580417219.95472,31.2199588006408,-1.0070954451819,-0.0305180437933359
1580417219.95872,32.3796444647896,-0.946059357595232,-1.49538414587619
1580417219.96271,31.8303196765087,-0.579842832074519,-3.02128633554594
1580417219.96671,30.2433813992523,-0.457770656900948,-4.24200808728165
1580417219.97071,28.9616235599296,0.274662394140478,-4.97444113832307
1580417219.97471,29.1447318226901,1.0681315327688,-5.27962157625689
1580417219.97871,30.5485618371861,1.98367284657047,-5.09651331349664
1580417219.98271,31.2809948882275,2.53299763485165,-4.8523689631495
1580417219.98671,30.1823453116654,3.63164721141379,-4.97444113832307
1580417219.99071,28.4733348592354,3.63164721141379,-4.91340505073617
1580417219.9947,26.5201800564582,3.08232242313261,-4.91340505073617
1580417219.9987,24.9942778667887,2.96025024795904,-4.8523689631495
1580417220.0027,26.0929274433508,2.83817807278547,-4.42511635004189
1580417220.0067,30.3654535744258,1.98367284657047,-3.32646677347975
1580417220.01071,33.4172579537651,1.31227588311594,-2.04470893415737
1580417220.01471,33.0510414282444,2.16678110933094,-0.946059357595232
1580417220.01871,29.3888761730373,3.63164721141379,-0.579842832074519
1580417220.02271,21.4541847867551,4.66926070038903,-0.640878919661191
1580417220.02671,9.61318379491877,5.40169375143046,-1.0070954451819
1580417220.0307,-2.10574502174404,6.74448767833974,-1.55642023346309
1580417220.0347,-10.1625085831997,8.69764248111687,-2.65506981002522
1580417220.0387,-13.7026016632333,10.0404364080262,-3.63164721141379
1580417220.0427,-11.6884107728695,11.0170138094147,-4.66926070038903
1580417220.0467,-6.5003433279926,11.6884107728695,-5.21858548867021
1580417220.0507,-1.0070954451819,11.6273746852826,-5.27962157625689
1580417220.0547,4.60822461280236,10.7728694590676,-5.21858548867021
1580417220.0587,11.3221942473488,8.81971465629044,-4.36408026245522
1580417220.0627,19.0127412832837,7.96520943007545,-3.20439459830618
1580417220.06669,21.9424734874494,8.94178683146401,-2.59403372243833
1580417220.07069,19.195849546044,9.73525597009234,-2.34988937209118
1580417220.07469,16.6933699549859,10.7118333714809,-1.73952849622333
1580417220.07869,15.4726482032502,11.810482948043,-0.335698481727377
1580417220.08269,13.8857099259938,12.664988174258,0.640878919661191
1580417220.08669,10.7118333714809,12.9701686121919,0.70191500724809
1580417220.0907,7.72106507972831,12.359807736324,0.396734569314049
1580417220.0947,5.15754940108332,12.1766994735638,0.457770656900948
1580417220.0987,0.640878919661191,13.2753490501259,0.274662394140478
1580417220.10269,-2.96025024795904,13.9467460135804,-0.274662394140478
1580417220.10669,-3.02128633554594,13.3974212252995,-1.37331197070262
1580417220.11069,-1.8616006713969,11.5663385976959,-2.16678110933094
1580417220.11469,1.0070954451819,8.75867856870377,-2.53299763485165
1580417220.11869,7.17174029144735,5.46272983901736,-1.49538414587619
1580417220.12269,14.5571068894483,2.83817807278547,0.396734569314049
1580417220.12669,19.7451743343252,1.73952849622333,2.22781719691761
1580417220.13068,21.210040436408,2.10574502174404,3.87579156176093
1580417220.13468,18.2192721446554,3.32646677347975,5.09651331349664
1580417220.13868,13.0922407873654,4.48615243762879,5.76791027695117
1580417220.14268,10.2235446707866,5.15754940108332,6.07309071488521
1580417220.14668,9.4300755321583,4.66926070038903,5.82894636453807
1580417220.15068,9.97940032043948,3.57061112382689,5.34065766384379
1580417220.15468,11.5663385976959,2.65506981002522,4.60822461280236
1580417220.15868,14.1298542763409,1.67849240863666,4.30304417486832
1580417220.16267,16.937514305333,0.823987182421661,3.93682764934761
1580417220.16667,19.8672465094987,-0.396734569314049,3.50957503624022
1580417220.17065,22.7969787136644,-1.43434805828952,3.26543068589308
1580417220.17465,25.5436026550697,-3.08232242313261,2.89921416037237
1580417220.17865,27.8019378957808,-4.24200808728165,2.47196154726475
1580417220.18265,28.4733348592354,-5.34065766384379,2.10574502174404
1580417220.18665,27.1305409323261,-5.76791027695117,1.8616006713969
1580417220.19065,23.8956282902266,-5.15754940108332,1.49538414587619
1580417220.19465,18.9517051956968,-4.30304417486832,0.51880674448762
1580417220.19864,13.3974212252995,-3.57061112382689,-1.0070954451819
1580417220.20264,7.59899290455473,-3.02128633554594,-3.08232242313261
1580417220.20664,2.41092545967808,-2.34988937209118,-5.52376592660403
1580417220.21064,-0.885023270008332,-1.61745632104976,-8.08728160524902
1580417220.21464,-1.98367284657047,-1.0070954451819,-9.79629205767901
1580417220.21864,-1.25123979552905,0.762951094834762,-10.8339055466545
1580417220.22264,0.396734569314049,2.41092545967808,-11.5663385976959
1580417220.22664,1.12916762035547,3.50957503624022,-12.2377355611504
1580417220.23063,0.946059357595232,4.11993591210808,-12.9091325246052
1580417220.23463,0.457770656900948,4.66926070038903,-13.519493400473
1580417220.23863,-1.0070954451819,5.03547722590974,-13.9467460135804
1580417220.24263,-1.25123979552905,5.15754940108332,-13.8246738384069
1580417220.24663,-1.12916762035547,5.76791027695117,-13.8857099259938
1580417220.25064,-0.640878919661191,5.95101853971164,-13.8246738384069
1580417220.25464,0.0305180437933359,5.76791027695117,-13.9467460135804
1580417220.25864,-0.335698481727377,5.52376592660403,-14.1908903639276
1580417220.26264,-1.43434805828952,5.58480201419093,-14.7402151522087
1580417220.26664,-3.44853894865332,5.58480201419093,-15.4116121156633
1580417220.27063,-5.52376592660403,5.52376592660403,-16.1440451667047
1580417220.27463,-7.17174029144735,5.52376592660403,-16.3271534294652
1580417220.27863,-8.94178683146401,5.27962157625689,-16.2661173418783
1580417220.28263,-10.2235446707866,5.03547722590974,-16.3881895170518
1580417220.28663,-10.4676890211338,5.09651331349664,-16.6933699549859
1580417220.29063,-10.5897611963073,6.13412680247188,-16.4492256046387
1580417220.29463,-11.2001220721752,7.47692072938116,-15.3505760280766
1580417220.29863,-13.3974212252995,9.67421988250544,-13.3974212252995
1580417220.30262,-16.2661173418783,11.9935912108033,-11.8715190356297
1580417220.30662,-18.8906691081102,12.9091325246052,-11.0170138094147
1580417220.31062,-20.1724269474325,12.5429159990845,-10.4676890211338
1580417220.31462,-19.195849546044,12.4208438239109,-9.97940032043948
1580417220.31862,-16.1440451667047,12.5429159990845,-9.36903944457163
1580417220.32262,-10.4066529335469,13.2753490501259,-8.51453421835663
1580417220.32662,-3.87579156176093,14.1298542763409,-7.04966811627378
1580417220.33063,0.885023270008332,14.373998626688,-5.46272983901736
1580417220.33463,2.22781719691761,14.4350347142747,-3.63164721141379
1580417220.33862,2.04470893415737,15.0453955901426,-2.47196154726475
1580417220.34262,2.10574502174404,15.777828641184,-2.04470893415737
1580417220.34662,3.26543068589308,16.0219729915311,-1.67849240863666
1580417220.35062,4.11993591210808,16.4492256046387,-1.0681315327688
1580417220.35462,3.08232242313261,16.937514305333,-1.12916762035547
1580417220.35862,3.02128633554594,17.792019531548,-1.55642023346309
1580417220.36262,1.49538414587619,18.0971999694818,-2.34988937209118
1580417220.36662,0.70191500724809,17.6089112687876,-2.65506981002522
1580417220.37062,-0.946059357595232,17.486839093614,-2.41092545967808
1580417220.37461,-1.55642023346309,17.3647669184404,-2.34988937209118
1580417220.37861,-2.04470893415737,16.8764782177461,-1.9226367589838
1580417220.38261,-6.13412680247188,15.8999008163576,-1.73952849622333
1580417220.38661,-7.90417334248878,15.5947203784237,-1.98367284657047
1580417220.39061,-9.4300755321583,15.228503852903,-1.8616006713969
1580417220.39461,-9.18593118181116,14.8012512397954,-1.25123979552905
1580417220.39861,-7.90417334248878,14.2519264515145,-0.274662394140478
1580417220.4026,-9.24696726939806,14.373998626688,0.0305180437933359
1580417220.4066,-8.20935378042259,14.1298542763409,-0.274662394140478
1580417220.41058,-5.95101853971164,13.0922407873654,0.274662394140478
1580417220.41458,-3.14335851071951,11.7494468604561,1.25123979552905
1580417220.41858,-0.0305180437933359,10.4066529335469,2.28885328450451
1580417220.42258,2.89921416037237,9.24696726939806,2.96025024795904
1580417220.42658,2.41092545967808,8.81971465629044,2.7161058976119
1580417220.43058,3.50957503624022,8.5755703059433,1.9226367589838
1580417220.43458,6.43930724040592,7.41588464179449,2.22781719691761
1580417220.43857,7.04966811627378,6.37827115281902,3.44853894865332
1580417220.44257,5.03547722590974,5.95101853971164,3.87579156176093
1580417220.44657,6.62241550316617,6.19516289005878,3.50957503624022
1580417220.45057,7.84313725490188,5.15754940108332,3.69268329900046
1580417220.45457,8.33142595559616,4.24200808728165,3.50957503624022
1580417220.45857,9.79629205767901,3.38750286106665,3.38750286106665
1580417220.46257,10.2845807583733,1.73952849622333,3.57061112382689
1580417220.46657,8.88075074387734,1.67849240863666,3.38750286106665
1580417220.47056,8.33142595559616,2.10574502174404,2.47196154726475
1580417220.47456,9.91836423285258,1.73952849622333,2.41092545967808
1580417220.47856,10.7728694590676,0.51880674448762,3.26543068589308
1580417220.48256,10.4066529335469,-0.213626306553806,3.63164721141379
1580417220.48656,11.9325551232166,-0.640878919661191,3.32646677347975
1580417220.49057,10.2235446707866,-1.25123979552905,2.7771419851988
1580417220.49457,10.5897611963073,-1.8616006713969,1.55642023346309
1580417220.49857,10.5287251087204,-2.7771419851988,0.70191500724809
1580417220.50257,10.4676890211338,-3.69268329900046,-0.091554131380235
1580417220.50656,11.505302510109,-4.24200808728165,-0.091554131380235
1580417220.51056,10.3456168459602,-4.60822461280236,-0.0305180437933359
1580417220.51456,9.30800335698473,-4.8523689631495,-0.51880674448762
1580417220.51856,10.2235446707866,-5.6458381017776,-0.885023270008332
1580417220.52256,8.6366063935302,-6.31723506523235,-0.579842832074519
1580417220.52656,8.20935378042259,-6.31723506523235,-0.885023270008332
1580417220.53056,8.14831769283592,-6.25619897764545,-1.19020370794237
1580417220.53456,7.17174029144735,-6.80552376592664,-1.61745632104976
1580417220.53855,7.59899290455473,-6.98863202868688,-1.73952849622333
1580417220.54255,5.27962157625689,-7.17174029144735,-1.73952849622333
1580417220.54655,4.97444113832307,-7.04966811627378,-2.28885328450451
1580417220.55055,6.01205462729831,-6.98863202868688,-2.28885328450451
1580417220.55455,4.66926070038903,-7.04966811627378,-2.16678110933094
1580417220.55855,5.76791027695117,-6.62241550316617,-2.53299763485165
1580417220.56255,6.19516289005878,-6.43930724040592,-2.41092545967808
1580417220.56655,7.7821011673152,-5.88998245212474,-2.16678110933094
1580417220.57056,8.45349813076973,-5.6458381017776,-1.67849240863666
1580417220.57455,10.8339055466545,-5.58480201419093,-1.12916762035547
1580417220.57855,8.88075074387734,-5.58480201419093,-0.51880674448762
1580417220.58255,10.4066529335469,-4.97444113832307,-1.0070954451819
1580417220.58655,10.2235446707866,-5.09651331349664,-0.885023270008332
1580417220.59055,12.1766994735638,-4.91340505073617,-0.640878919661191
1580417220.59455,12.9701686121919,-4.36408026245522,0.335698481727377
1580417220.59855,11.9325551232166,-4.05889982452118,0.762951094834762
1580417220.60255,12.1156633859769,-3.20439459830618,0.335698481727377
1580417220.60654,11.6273746852826,-3.08232242313261,-0.0305180437933359
1580417220.61054,13.7026016632333,-2.89921416037237,0.335698481727377
1580417220.61454,13.214312962539,-2.22781719691761,1.12916762035547
1580417220.61854,12.1766994735638,-1.0681315327688,1.19020370794237
1580417220.62254,11.5663385976959,-0.335698481727377,0.640878919661191
1580417220.62654,9.91836423285258,0.152590218966907,0.213626306553806
1580417220.63054,8.51453421835663,0.640878919661191,0.0305180437933359
1580417220.63454,8.88075074387734,1.37331197070262,0.396734569314049
1580417220.63854,6.56137941557949,2.10574502174404,1.12916762035547
1580417220.64253,4.05889982452118,3.20439459830618,0.762951094834762
1580417220.64653,2.65506981002522,3.93682764934761,-0.0305180437933359
1580417220.65051,1.61745632104976,3.69268329900046,-0.335698481727377
1580417220.65451,1.0070954451819,3.57061112382689,-0.091554131380235
1580417220.65851,3.69268329900046,3.99786373693451,0.152590218966907
1580417220.66251,5.09651331349664,4.36408026245522,1.25123979552905
1580417220.66651,5.40169375143046,4.60822461280236,1.61745632104976
1580417220.67051,7.11070420386045,4.8523689631495,1.55642023346309
1580417220.6745,5.27962157625689,5.03547722590974,1.61745632104976
1580417220.6785,3.63164721141379,5.88998245212474,1.19020370794237
1580417220.6825,3.20439459830618,6.56137941557949,0.885023270008332
1580417220.6865,5.09651331349664,6.37827115281902,1.0681315327688
1580417220.6905,4.54718852521546,6.5003433279926,1.8616006713969
1580417220.6945,3.99786373693451,6.80552376592664,1.80056458381023
1580417220.6985,4.24200808728165,6.80552376592664,1.55642023346309
1580417220.7025,5.15754940108332,6.25619897764545,1.37331197070262
1580417220.7065,6.43930724040592,5.76791027695117,1.73952849622333
1580417220.71049,8.02624551766235,5.34065766384379,2.41092545967808
1580417220.71449,8.6366063935302,5.52376592660403,2.7771419851988
1580417220.71849,8.81971465629044,5.40169375143046,2.59403372243833
1580417220.72249,8.45349813076973,4.8523689631495,2.7161058976119
1580417220.72649,8.02624551766235,4.54718852521546,3.20439459830618
1580417220.7305,7.47692072938116,4.36408026245522,3.57061112382689
1580417220.7345,7.35484855420759,4.11993591210808,3.63164721141379
1580417220.7385,7.72106507972831,3.87579156176093,3.63164721141379
1580417220.74249,8.39246204318306,3.57061112382689,3.69268329900046
1580417220.74649,9.18593118181116,3.32646677347975,3.38750286106665
1580417220.75049,10.1625085831997,3.14335851071951,3.08232242313261
1580417220.75449,11.0170138094147,2.83817807278547,2.7161058976119
1580417220.75849,12.2987716487373,2.41092545967808,2.59403372243833
1580417220.76249,13.6415655756466,1.98367284657047,2.65506981002522
1580417220.76649,14.068818188754,1.80056458381023,2.7161058976119
1580417220.77049,13.8246738384069,1.9226367589838,2.7771419851988
1580417220.77448,13.3363851377126,1.80056458381023,2.7771419851988
1580417220.77848,12.8480964370183,1.55642023346309,2.59403372243833
1580417220.78248,12.0546272983902,1.67849240863666,2.28885328450451
1580417220.78648,11.3832303349354,1.55642023346309,2.10574502174404
1580417220.79048,11.3221942473488,1.61745632104976,1.98367284657047
1580417220.79448,11.6273746852826,1.31227588311594,1.80056458381023
1580417220.79848,12.1156633859769,1.0681315327688,1.55642023346309
1580417220.80248,12.1766994735638,0.823987182421661,1.19020370794237
1580417220.80647,11.810482948043,0.762951094834762,0.70191500724809
1580417220.81045,11.2611581597619,0.640878919661191,0.335698481727377
1580417220.81445,10.7118333714809,0.274662394140478,0.091554131380235
1580417220.81845,10.1014724956131,-0.0305180437933359,-0.0305180437933359
1580417220.82245,9.30800335698473,-0.335698481727377,-0.152590218966907
1580417220.82645,8.81971465629044,-0.70191500724809,-0.274662394140478
1580417220.83045,8.6366063935302,-1.0681315327688,-0.335698481727377
1580417220.83445,8.6366063935302,-1.19020370794237,-0.335698481727377
1580417220.83845,8.39246204318306,-1.37331197070262,-0.457770656900948
1580417220.84244,8.33142595559616,-1.73952849622333,-0.70191500724809
1580417220.84644,8.14831769283592,-2.10574502174404,-0.762951094834762
1580417220.85044,7.7821011673152,-2.53299763485165,-0.51880674448762
1580417220.85444,7.96520943007545,-2.83817807278547,-0.091554131380235
1580417220.85844,8.75867856870377,-3.08232242313261,0.457770656900948
1580417220.86244,9.79629205767901,-3.26543068589308,0.762951094834762
1580417220.86644,10.5897611963073,-3.44853894865332,1.12916762035547
1580417220.87044,10.8339055466545,-3.87579156176093,1.25123979552905
1580417220.87443,11.3221942473488,-4.24200808728165,1.73952849622333
1580417220.87843,11.6884107728695,-4.42511635004189,2.22781719691761
1580417220.88243,11.9935912108033,-4.73029678797593,2.28885328450451
1580417220.88643,11.9935912108033,-4.60822461280236,2.10574502174404
1580417220.89044,11.4442664225223,-4.30304417486832,1.98367284657047
1580417220.89444,10.7118333714809,-4.24200808728165,1.80056458381023
1580417220.89844,10.1625085831997,-4.24200808728165,1.43434805828952
1580417220.90244,9.91836423285258,-4.48615243762879,1.19020370794237
1580417220.90644,9.79629205767901,-4.73029678797593,0.946059357595232
1580417220.91043,9.55214770733187,-4.60822461280236,0.823987182421661
1580417220.91443,9.24696726939806,-4.54718852521546,0.579842832074519
1580417220.91843,8.75867856870377,-4.18097199969475,0.396734569314049
1580417220.92243,8.75867856870377,-3.87579156176093,0.335698481727377
1580417220.92643,8.6366063935302,-3.63164721141379,0.152590218966907
1580417220.93043,8.14831769283592,-3.57061112382689,-0.0305180437933359
1580417220.93443,8.45349813076973,-2.89921416037237,0.0305180437933359
1580417220.93843,8.51453421835663,-2.28885328450451,0.091554131380235
1580417220.94243,7.66002899214163,-1.73952849622333,0.213626306553806
1580417220.94642,6.07309071488521,-1.19020370794237,0.274662394140478
1580417220.95042,4.66926070038903,-0.885023270008332,0.335698481727377
1580417220.95442,4.24200808728165,-1.12916762035547,0.335698481727377
1580417220.95842,5.03547722590974,-1.61745632104976,0.152590218966907
1580417220.96242,6.25619897764545,-1.8616006713969,0.152590218966907
1580417220.96642,7.47692072938116,-1.8616006713969,0.274662394140478
1580417220.97043,8.20935378042259,-1.61745632104976,0.335698481727377
1580417220.97443,8.08728160524902,-1.43434805828952,0.70191500724809
1580417220.97843,7.72106507972831,-1.67849240863666,1.0070954451819
1580417220.98242,7.66002899214163,-1.9226367589838,1.43434805828952
1580417220.98642,7.53795681696806,-2.10574502174404,1.73952849622333
1580417220.99042,6.92759594110021,-1.73952849622333,1.9226367589838
1580417220.99442,5.95101853971164,-1.37331197070262,1.80056458381023
1580417220.99842,4.7913328755626,-1.0070954451819,1.98367284657047
1580417221.00242,3.93682764934761,-0.457770656900948,2.22781719691761
1580417221.00642,2.83817807278547,-0.0305180437933359,2.34988937209118
1580417221.01042,2.10574502174404,0.335698481727377,2.47196154726475
1580417221.01441,1.25123979552905,0.396734569314049,2.22781719691761
1580417221.01841,1.0681315327688,0.51880674448762,1.73952849622333
1580417221.02241,1.43434805828952,0.396734569314049,1.73952849622333
1580417221.02641,1.43434805828952,0.274662394140478,1.67849240863666
1580417221.03041,1.12916762035547,0.335698481727377,1.43434805828952
1580417221.03441,0.579842832074519,0.457770656900948,1.25123979552905
1580417221.03841,-0.396734569314049,0.51880674448762,1.0681315327688
1580417221.04241,-1.0070954451819,0.51880674448762,0.823987182421661
1580417221.0464,-1.49538414587619,0.70191500724809,0.51880674448762
1580417221.05038,-1.73952849622333,1.25123979552905,-0.091554131380235
1580417221.05438,-2.04470893415737,1.8616006713969,-0.762951094834762
1580417221.05838,-2.41092545967808,2.47196154726475,-1.37331197070262
1580417221.06238,-3.75371938658736,3.02128633554594,-2.04470893415737
1580417221.06638,-5.21858548867021,3.32646677347975,-2.16678110933094
1580417221.07038,-5.76791027695117,3.63164721141379,-2.22781719691761
1580417221.07438,-6.01205462729831,3.87579156176093,-2.28885328450451
1580417221.07837,-6.31723506523235,3.69268329900046,-2.28885328450451
1580417221.08237,-6.74448767833974,3.44853894865332,-2.41092545967808
1580417221.08637,-6.43930724040592,3.32646677347975,-2.53299763485165
1580417221.09037,-5.76791027695117,3.57061112382689,-2.7771419851988
1580417221.09437,-5.40169375143046,3.87579156176093,-2.59403372243833
1580417221.09837,-4.8523689631495,3.99786373693451,-2.34988937209118
1580417221.10237,-4.73029678797593,4.05889982452118,-1.98367284657047
1580417221.10637,-4.73029678797593,4.05889982452118,-1.8616006713969
1580417221.11036,-4.66926070038903,3.87579156176093,-1.67849240863666
1580417221.11436,-3.75371938658736,3.81475547417404,-1.80056458381023
1580417221.11836,-2.65506981002522,4.30304417486832,-1.73952849622333
1580417221.12236,-1.12916762035547,4.73029678797593,-1.61745632104976
1580417221.12636,0.091554131380235,4.97444113832307,-1.43434805828952
1580417221.13037,0.274662394140478,4.91340505073617,-1.19020370794237
1580417221.13437,-0.274662394140478,4.7913328755626,-1.0681315327688
1580417221.13837,-1.19020370794237,4.91340505073617,-1.12916762035547
1580417221.14237,-1.49538414587619,5.03547722590974,-1.31227588311594
1580417221.14637,-1.19020370794237,5.40169375143046,-1.55642023346309
1580417221.15036,-1.0070954451819,5.7068741893645,-1.31227588311594
1580417221.15436,-1.31227588311594,6.01205462729831,-1.19020370794237
1580417221.15836,-1.43434805828952,6.56137941557949,-1.0681315327688
1580417221.16236,-0.762951094834762,6.31723506523235,-0.885023270008332
1580417221.16636,0.274662394140478,5.88998245212474,-0.640878919661191
1580417221.17036,1.19020370794237,5.46272983901736,-0.579842832074519
1580417221.17436,1.98367284657047,5.46272983901736,-0.335698481727377
1580417221.17836,3.26543068589308,5.6458381017776,0.091554131380235
1580417221.18235,4.36408026245522,5.7068741893645,0.335698481727377
1580417221.18635,4.18097199969475,5.82894636453807,0.457770656900948
1580417221.19035,2.65506981002522,5.95101853971164,0.823987182421661
1580417221.19435,0.51880674448762,6.07309071488521,1.37331197070262
1580417221.19835,-1.0070954451819,5.82894636453807,1.61745632104976
1580417221.20235,-1.80056458381023,5.21858548867021,1.67849240863666
1580417221.20635,-2.10574502174404,4.91340505073617,1.8616006713969
1580417221.21036,-2.10574502174404,4.60822461280236,1.9226367589838
1580417221.21436,-1.61745632104976,4.36408026245522,1.80056458381023
1580417221.21835,-0.335698481727377,3.81475547417404,2.10574502174404
1580417221.22235,1.12916762035547,2.89921416037237,2.22781719691761
1580417221.22635,2.47196154726475,2.22781719691761,2.7771419851988
1580417221.23035,2.47196154726475,2.04470893415737,3.02128633554594
1580417221.23435,1.8616006713969,2.04470893415737,2.89921416037237
1580417221.23835,1.12916762035547,2.16678110933094,2.96025024795904
1580417221.24235,0.335698481727377,2.04470893415737,2.89921416037237
1580417221.24635,-0.091554131380235,1.80056458381023,2.7771419851988
1580417221.25034,-0.457770656900948,1.43434805828952,2.22781719691761
1580417221.25434,-0.457770656900948,1.49538414587619,1.67849240863666
1580417221.25834,-0.396734569314049,1.25123979552905,1.25123979552905
1580417221.26234,-0.762951094834762,0.946059357595232,1.0070954451819
1580417221.26634,-1.55642023346309,0.274662394140478,0.579842832074519
1580417221.27034,-2.41092545967808,0.091554131380235,0.091554131380235
1580417221.27434,-2.7161058976119,-0.335698481727377,-0.335698481727377
1580417221.27834,-3.32646677347975,-0.579842832074519,-0.762951094834762
1580417221.28234,-3.69268329900046,-0.762951094834762,-1.0681315327688
1580417221.28633,-3.57061112382689,-0.885023270008332,-1.25123979552905
1580417221.29031,-3.32646677347975,-0.946059357595232,-1.19020370794237
1580417221.29431,-3.14335851071951,-0.946059357595232,-1.0070954451819
1580417221.29831,-3.57061112382689,-0.946059357595232,-0.823987182421661
1580417221.30231,-4.18097199969475,-0.885023270008332,-0.762951094834762
1580417221.30631,-4.24200808728165,-1.12916762035547,-0.762951094834762
1580417221.31031,-4.18097199969475,-1.37331197070262,-0.640878919661191
1580417221.31431,-3.81475547417404,-1.61745632104976,-0.457770656900948
1580417221.31831,-3.08232242313261,-1.8616006713969,-0.335698481727377
1580417221.3223,-1.98367284657047,-2.10574502174404,-0.396734569314049
1580417221.3263,-0.579842832074519,-2.41092545967808,-0.51880674448762
1580417221.3303,0.579842832074519,-2.59403372243833,-0.457770656900948
1580417221.3343,1.0681315327688,-2.7771419851988,-0.396734569314049
1580417221.3383,1.12916762035547,-2.96025024795904,-0.335698481727377
1580417221.3423,0.762951094834762,-3.08232242313261,-0.579842832074519
1580417221.3463,0.091554131380235,-3.08232242313261,-0.457770656900948
1580417221.35029,-1.43434805828952,-3.08232242313261,-0.51880674448762
1580417221.35429,-2.59403372243833,-3.14335851071951,-0.396734569314049
1580417221.35829,-2.83817807278547,-3.20439459830618,-0.396734569314049
1580417221.36229,-2.83817807278547,-3.20439459830618,-0.213626306553806
1580417221.36629,-3.08232242313261,-3.32646677347975,-0.274662394140478
1580417221.3703,-4.05889982452118,-3.32646677347975,-0.396734569314049
1580417221.3743,-4.8523689631495,-3.63164721141379,-0.579842832074519
1580417221.3783,-4.11993591210808,-3.99786373693451,-0.51880674448762
1580417221.3823,-3.26543068589308,-4.30304417486832,-0.335698481727377
1580417221.38629,-2.59403372243833,-4.30304417486832,-0.51880674448762
1580417221.39029,-2.7161058976119,-3.99786373693451,-0.579842832074519
1580417221.39429,-2.83817807278547,-3.75371938658736,-0.335698481727377
1580417221.39829,-2.41092545967808,-3.63164721141379,-0.152590218966907
1580417221.40229,-1.49538414587619,-3.50957503624022,-0.213626306553806
1580417221.40629,-0.51880674448762,-3.50957503624022,-0.152590218966907
1580417221.41029,0.091554131380235,-3.50957503624022,-0.396734569314049
1580417221.41429,0.0305180437933359,-3.38750286106665,-0.51880674448762
1580417221.41828,-0.579842832074519,-3.38750286106665,-0.579842832074519
1580417221.42228,-0.885023270008332,-3.02128633554594,-0.885023270008332
1580417221.42628,-1.61745632104976,-2.89921416037237,-0.946059357595232
1580417221.43028,-2.41092545967808,-2.7771419851988,-0.885023270008332
1580417221.43428,-3.32646677347975,-2.83817807278547,-1.0070954451819
1580417221.43828,-3.87579156176093,-2.83817807278547,-1.12916762035547
1580417221.44228,-4.18097199969475,-3.14335851071951,-1.19020370794237
1580417221.44628,-4.05889982452118,-3.08232242313261,-1.37331197070262
1580417221.45029,-3.69268329900046,-3.02128633554594,-1.37331197070262
1580417221.45428,-3.20439459830618,-2.89921416037237,-0.885023270008332
1580417221.45828,-2.53299763485165,-2.53299763485165,-0.396734569314049
1580417221.46228,-2.34988937209118,-2.10574502174404,-0.152590218966907
1580417221.46628,-3.44853894865332,-2.04470893415737,-0.0305180437933359
1580417221.47028,-4.11993591210808,-2.04470893415737,-0.213626306553806
1580417221.47428,-3.63164721141379,-2.28885328450451,-0.579842832074519
1580417221.47828,-2.83817807278547,-2.83817807278547,-0.823987182421661
1580417221.48228,-2.34988937209118,-3.26543068589308,-1.0070954451819
1580417221.48627,-1.80056458381023,-2.96025024795904,-1.0070954451819
1580417221.49027,-1.0681315327688,-2.28885328450451,-0.70191500724809
1580417221.49427,-0.823987182421661,-1.9226367589838,-0.274662394140478
1580417221.49827,0.0305180437933359,-1.8616006713969,0.274662394140478
1580417221.50227,0.823987182421661,-1.98367284657047,0.762951094834762
1580417221.50627,2.59403372243833,-1.98367284657047,1.43434805828952
1580417221.51027,4.42511635004189,-1.80056458381023,2.10574502174404
1580417221.51427,4.60822461280236,-1.43434805828952,2.7771419851988
1580417221.51827,4.11993591210808,-0.885023270008332,2.7161058976119
1580417221.52226,3.69268329900046,-0.762951094834762,2.59403372243833
1580417221.52626,3.38750286106665,-0.70191500724809,2.59403372243833
1580417221.53024,3.38750286106665,-0.762951094834762,2.83817807278547
1580417221.53424,3.08232242313261,-0.579842832074519,3.08232242313261
1580417221.53824,2.10574502174404,-0.457770656900948,2.59403372243833
1580417221.54224,1.55642023346309,-0.274662394140478,1.9226367589838
1580417221.54624,1.43434805828952,-0.396734569314049,1.55642023346309
1580417221.55024,1.61745632104976,-0.396734569314049,0.946059357595232
1580417221.55423,2.53299763485165,-0.335698481727377,0.762951094834762
1580417221.55823,3.44853894865332,0.274662394140478,0.885023270008332
1580417221.56223,1.98367284657047,0.823987182421661,0.823987182421661
1580417221.56623,0.640878919661191,1.19020370794237,0.0305180437933359
1580417221.57023,-0.823987182421661,1.12916762035547,-0.457770656900948
1580417221.57423,-1.55642023346309,1.0681315327688,-0.823987182421661
1580417221.57823,-1.49538414587619,1.25123979552905,-0.762951094834762
1580417221.58223,-1.8616006713969,1.67849240863666,-1.12916762035547
1580417221.58623,-3.08232242313261,2.04470893415737,-1.67849240863666
1580417221.59022,-4.42511635004189,2.16678110933094,-2.10574502174404
1580417221.59422,-5.76791027695117,2.34988937209118,-2.22781719691761
1580417221.59822,-6.19516289005878,2.34988937209118,-2.59403372243833
1580417221.60222,-5.58480201419093,2.41092545967808,-2.7161058976119
1580417221.60622,-6.19516289005878,2.59403372243833,-2.7161058976119
1580417221.61023,-6.37827115281902,2.89921416037237,-2.96025024795904
1580417221.61423,-5.95101853971164,3.08232242313261,-3.08232242313261
1580417221.61823,-4.24200808728165,2.96025024795904,-3.02128633554594
1580417221.62223,-2.65506981002522,2.89921416037237,-2.96025024795904
1580417221.62622,-2.89921416037237,3.08232242313261,-2.47196154726475
1580417221.63022,-3.69268329900046,3.38750286106665,-2.59403372243833
1580417221.63422,-3.38750286106665,3.69268329900046,-2.89921416037237
1580417221.63822,-2.7771419851988,3.81475547417404,-2.53299763485165
1580417221.64222,-1.67849240863666,3.44853894865332,-2.04470893415737
1580417221.64622,-0.457770656900948,3.50957503624022,-1.49538414587619
1580417221.65022,-0.396734569314049,3.20439459830618,-0.885023270008332
1580417221.65421,0.152590218966907,2.89921416037237,-0.70191500724809
1580417221.65821,0.762951094834762,2.47196154726475,-0.51880674448762
1580417221.66221,0.70191500724809,2.04470893415737,-0.213626306553806
1580417221.66621,0.640878919661191,1.73952849622333,0.091554131380235
1580417221.67021,2.10574502174404,1.55642023346309,0.579842832074519
1580417221.67421,1.37331197070262,1.37331197070262,1.43434805828952
1580417221.67821,0.152590218966907,1.43434805828952,1.31227588311594
1580417221.68221,-0.274662394140478,1.25123979552905,0.579842832074519
1580417221.6862,0.457770656900948,0.946059357595232,0.213626306553806
1580417221.69018,1.80056458381023,0.70191500724809,0.457770656900948
1580417221.69418,3.38750286106665,0.70191500724809,0.70191500724809
1580417221.69818,3.50957503624022,0.823987182421661,0.70191500724809
1580417221.70218,2.53299763485165,0.823987182421661,0.396734569314049
1580417221.70618,1.19020370794237,0.823987182421661,0.213626306553806
1580417221.71018,-1.0681315327688,0.946059357595232,0.091554131380235
1580417221.71418,-3.32646677347975,1.49538414587619,-0.457770656900948
1580417221.71818,-3.26543068589308,1.31227588311594,-1.19020370794237
1580417221.72217,-2.59403372243833,0.823987182421661,-1.25123979552905
1580417221.72617,-2.41092545967808,0.70191500724809,-1.31227588311594
1580417221.73017,-1.73952849622333,0.946059357595232,-1.61745632104976
1580417221.73417,-1.0070954451819,1.0681315327688,-1.61745632104976
1580417221.73817,-0.335698481727377,1.0070954451819,-1.19020370794237
1580417221.74217,0.579842832074519,0.946059357595232,-0.823987182421661
1580417221.74617,1.55642023346309,0.762951094834762,-0.457770656900948
1580417221.75017,2.16678110933094,0.579842832074519,-0.213626306553806
1580417221.75416,2.28885328450451,0.457770656900948,0.0305180437933359
1580417221.75816,1.19020370794237,0.335698481727377,0.274662394140478
1580417221.76216,-0.152590218966907,0.213626306553806,0.0305180437933359
1580417221.76616,-0.274662394140478,0.0305180437933359,0.0305180437933359
1580417221.77017,0.0305180437933359,-0.0305180437933359,0.457770656900948
1580417221.77417,-0.152590218966907,-0.213626306553806,0.70191500724809
1580417221.77817,-0.152590218966907,-0.640878919661191,0.640878919661191
1580417221.78217,0.823987182421661,-0.946059357595232,0.762951094834762
1580417221.78617,-0.0305180437933359,-0.70191500724809,1.25123979552905
1580417221.79017,-1.37331197070262,-0.51880674448762,0.823987182421661
1580417221.79416,-2.10574502174404,-0.457770656900948,-0.0305180437933359
1580417221.79816,-1.98367284657047,-0.762951094834762,-0.457770656900948
1580417221.80216,-1.61745632104976,-1.25123979552905,-0.457770656900948
1580417221.80616,-0.213626306553806,-1.43434805828952,-0.274662394140478
1580417221.81016,0.51880674448762,-1.31227588311594,-0.091554131380235
1580417221.81416,0.640878919661191,-1.37331197070262,0.152590218966907
1580417221.81816,0.823987182421661,-1.31227588311594,0.152590218966907
1580417221.82216,1.0681315327688,-1.25123979552905,0.213626306553806
1580417221.82615,2.41092545967808,-1.31227588311594,0.457770656900948
1580417221.83015,1.0070954451819,-1.0681315327688,0.885023270008332
1580417221.83415,-0.274662394140478,-0.70191500724809,0.335698481727377
1580417221.83815,-0.213626306553806,-0.70191500724809,-0.213626306553806
1580417221.84215,0.396734569314049,-0.885023270008332,-0.396734569314049
1580417221.84615,1.0070954451819,-0.762951094834762,-0.274662394140478
1580417221.85016,2.89921416037237,-0.579842832074519,-0.0305180437933359
1580417221.85416,3.99786373693451,-0.335698481727377,0.579842832074519
1580417221.85816,1.0681315327688,-0.213626306553806,0.946059357595232
1580417221.86215,-0.0305180437933359,0.152590218966907,0.579842832074519
1580417221.86615,-0.762951094834762,-0.152590218966907,0.274662394140478
1580417221.87015,-0.823987182421661,-0.274662394140478,0.213626306553806
1580417221.87415,-0.274662394140478,-0.457770656900948,0.457770656900948
1580417221.87815,1.49538414587619,-0.396734569314049,0.70191500724809
1580417221.88215,0.946059357595232,-0.091554131380235,1.0070954451819
1580417221.88615,-0.885023270008332,0.091554131380235,1.0681315327688
1580417221.89015,-1.8616006713969,-0.0305180437933359,0.457770656900948
1580417221.89415,-1.61745632104976,-0.213626306553806,0.0305180437933359
1580417221.89814,-1.0681315327688,-0.091554131380235,0.091554131380235
1580417221.90214,-0.091554131380235,0.396734569314049,-0.0305180437933359
1580417221.90614,-0.152590218966907,1.25123979552905,-0.091554131380235
1580417221.91014,-2.41092545967808,1.67849240863666,-0.152590218966907
1580417221.91414,-2.96025024795904,1.61745632104976,-0.274662394140478
1580417221.91814,-2.34988937209118,1.37331197070262,-0.152590218966907
1580417221.92214,-1.12916762035547,1.19020370794237,-0.0305180437933359
1580417221.92613,-1.0681315327688,1.55642023346309,0.152590218966907
1580417221.93011,-0.823987182421661,1.61745632104976,-0.0305180437933359
1580417221.93411,1.55642023346309,1.61745632104976,0.396734569314049
1580417221.93811,1.43434805828952,1.98367284657047,1.55642023346309
1580417221.94211,-1.25123979552905,2.10574502174404,1.8616006713969
1580417221.94611,-3.08232242313261,2.22781719691761,1.12916762035547
1580417221.95011,-3.87579156176093,1.8616006713969,0.335698481727377
1580417221.95411,-3.32646677347975,1.37331197070262,0.213626306553806
1580417221.95811,-1.31227588311594,1.12916762035547,0.885023270008332
1580417221.9621,0.51880674448762,1.0070954451819,1.37331197070262
1580417221.9661,1.73952849622333,1.19020370794237,1.55642023346309
1580417221.9701,1.0070954451819,1.37331197070262,1.8616006713969
1580417221.9741,0.152590218966907,1.49538414587619,1.67849240863666
1580417221.9781,-0.274662394140478,1.12916762035547,1.31227588311594
1580417221.9821,-0.51880674448762,0.51880674448762,0.946059357595232
1580417221.9861,-0.70191500724809,0.335698481727377,0.885023270008332
1580417221.9901,-0.396734569314049,0.213626306553806,0.946059357595232
1580417221.99409,-0.274662394140478,0.091554131380235,0.51880674448762
1580417221.99809,-0.396734569314049,-0.152590218966907,0.274662394140478
1580417222.00209,-0.335698481727377,-0.396734569314049,-0.091554131380235
1580417222.00609,1.0070954451819,-0.457770656900948,-0.396734569314049
1580417222.01007,1.19020370794237,-0.274662394140478,-0.396734569314049
1580417222.01407,-0.091554131380235,-0.0305180437933359,-0.762951094834762
1580417222.01807,-1.0070954451819,0.0305180437933359,-1.49538414587619
1580417222.02207,-1.0070954451819,0.0305180437933359,-2.04470893415737
1580417222.02606,0.091554131380235,-0.213626306553806,-2.28885328450451
1580417222.03006,1.73952849622333,-0.396734569314049,-2.16678110933094
1580417222.03406,3.63164721141379,0.0305180437933359,-1.73952849622333
1580417222.03806,5.03547722590974,0.640878919661191,-1.0681315327688
1580417222.04206,5.88998245212474,0.946059357595232,-0.823987182421661
1580417222.04606,6.01205462729831,0.762951094834762,-0.457770656900948
1580417222.05006,6.25619897764545,0.823987182421661,-0.213626306553806
1580417222.05406,4.60822461280236,0.762951094834762,0.091554131380235
1580417222.05806,3.99786373693451,0.885023270008332,-0.335698481727377
1580417222.06205,4.11993591210808,1.0070954451819,-0.70191500724809
1580417222.06605,4.66926070038903,0.885023270008332,-0.70191500724809
1580417222.07005,5.15754940108332,0.579842832074519,-0.51880674448762
1580417222.07405,6.01205462729831,0.51880674448762,-0.152590218966907
1580417222.07805,7.11070420386045,0.213626306553806,0.457770656900948
1580417222.08205,7.59899290455473,-0.0305180437933359,0.762951094834762
1580417222.08605,7.53795681696806,0.091554131380235,1.0070954451819
1580417222.09006,7.17174029144735,0.335698481727377,1.25123979552905
1580417222.09406,6.31723506523235,0.335698481727377,1.49538414587619
1580417222.09805,5.40169375143046,-0.0305180437933359,1.9226367589838
1580417222.10205,4.36408026245522,0.0305180437933359,2.10574502174404
1580417222.10605,2.96025024795904,0.091554131380235,2.04470893415737
1580417222.11005,1.12916762035547,-0.091554131380235,1.61745632104976
1580417222.11405,-0.579842832074519,-0.274662394140478,1.0070954451819
1580417222.11805,-2.16678110933094,-0.457770656900948,0.51880674448762
1580417222.12205,-3.38750286106665,-0.213626306553806,0.091554131380235
1580417222.12605,-4.05889982452118,-0.091554131380235,-0.152590218966907
1580417222.13004,-3.69268329900046,-0.0305180437933359,-0.579842832074519
1580417222.13404,-2.7161058976119,-0.0305180437933359,-0.51880674448762
1580417222.13804,-0.885023270008332,0.0305180437933359,-0.51880674448762
1580417222.14204,0.396734569314049,0.152590218966907,-0.274662394140478
1580417222.14604,1.12916762035547,0.274662394140478,-0.091554131380235
1580417222.15004,1.43434805828952,0.51880674448762,-0.091554131380235
1580417222.15404,1.9226367589838,0.335698481727377,0.091554131380235
1580417222.15804,3.08232242313261,0.213626306553806,0.579842832074519
1580417222.16203,4.30304417486832,0.091554131380235,0.70191500724809
1580417222.16603,5.34065766384379,0.396734569314049,0.946059357595232
1580417222.17001,5.6458381017776,0.579842832074519,0.885023270008332
1580417222.17401,5.88998245212474,0.579842832074519,0.946059357595232
1580417222.17801,5.52376592660403,0.640878919661191,1.12916762035547
1580417222.18201,5.09651331349664,0.396734569314049,1.0070954451819
1580417222.18601,6.13412680247188,0.091554131380235,0.762951094834762
1580417222.19001,7.47692072938116,0.335698481727377,0.946059357595232
1580417222.19401,8.02624551766235,0.640878919661191,1.37331197070262
1580417222.198,7.84313725490188,0.762951094834762,1.49538414587619
1580417222.202,7.47692072938116,0.70191500724809,1.55642023346309
1580417222.206,6.98863202868688,0.51880674448762,1.73952849622333
1580417222.21,7.17174029144735,0.640878919661191,1.8616006713969
1580417222.214,8.27038986800949,0.885023270008332,1.80056458381023
1580417222.218,9.73525597009234,1.12916762035547,1.8616006713969
1580417222.222,11.0780498970016,1.19020370794237,1.8616006713969
1580417222.226,12.1156633859769,1.31227588311594,2.10574502174404
1580417222.22999,12.8480964370183,1.25123979552905,2.41092545967808
1580417222.23399,12.6039520866711,1.0681315327688,2.41092545967808
1580417222.23799,11.9935912108033,1.37331197070262,2.22781719691761
1580417222.24199,11.6273746852826,1.80056458381023,1.8616006713969
1580417222.24599,11.1390859845883,2.10574502174404,1.55642023346309
1580417222.25,10.8339055466545,2.28885328450451,1.43434805828952
1580417222.254,10.0404364080262,2.41092545967808,1.37331197070262
1580417222.258,8.69764248111687,2.28885328450451,1.37331197070262
1580417222.262,7.84313725490188,2.34988937209118,1.25123979552905
1580417222.266,7.35484855420759,2.16678110933094,1.49538414587619
1580417222.26999,7.41588464179449,2.04470893415737,1.8616006713969
1580417222.27399,7.17174029144735,1.9226367589838,1.8616006713969
1580417222.27799,6.5003433279926,1.9226367589838,1.8616006713969
1580417222.28199,5.6458381017776,1.98367284657047,1.98367284657047
1580417222.28599,4.97444113832307,1.8616006713969,1.9226367589838
1580417222.28999,5.21858548867021,1.9226367589838,2.04470893415737
1580417222.29399,5.21858548867021,1.80056458381023,2.16678110933094
1580417222.29798,5.03547722590974,1.61745632104976,2.16678110933094
1580417222.30198,4.7913328755626,1.55642023346309,2.10574502174404
1580417222.30598,4.7913328755626,1.49538414587619,2.16678110933094
1580417222.30998,5.09651331349664,1.25123979552905,2.28885328450451
1580417222.31398,6.01205462729831,0.946059357595232,2.47196154726475
1580417222.31798,7.53795681696806,0.885023270008332,2.83817807278547
1580417222.32198,9.18593118181116,0.885023270008332,3.08232242313261
1580417222.32598,10.2235446707866,0.885023270008332,3.32646677347975
1580417222.32996,10.1014724956131,0.823987182421661,3.14335851071951
1580417222.33395,10.3456168459602,0.51880674448762,3.20439459830618
1580417222.33795,10.7728694590676,0.457770656900948,3.63164721141379
1580417222.34195,11.0170138094147,0.152590218966907,3.87579156176093
1580417222.34595,11.2001220721752,-0.213626306553806,3.93682764934761
1580417222.34995,11.0170138094147,-0.51880674448762,4.18097199969475
1580417222.35395,11.0780498970016,-0.762951094834762,4.48615243762879
1580417222.35795,11.810482948043,-1.0070954451819,4.97444113832307
1580417222.36195,11.9325551232166,-1.31227588311594,5.03547722590974
1580417222.36594,11.4442664225223,-1.67849240863666,4.91340505073617
1580417222.36994,11.2611581597619,-1.9226367589838,4.73029678797593
1580417222.37394,11.0170138094147,-2.28885328450451,4.48615243762879
1580417222.37794,10.4066529335469,-2.65506981002522,4.42511635004189
1580417222.38194,9.61318379491877,-2.7771419851988,4.05889982452118
1580417222.38594,8.02624551766235,-2.96025024795904,3.63164721141379
1580417222.38994,6.68345159075307,-3.44853894865332,2.96025024795904
1580417222.39394,6.25619897764545,-3.87579156176093,2.65506981002522
1580417222.39793,6.07309071488521,-4.24200808728165,2.47196154726475
1580417222.40193,5.46272983901736,-4.42511635004189,2.16678110933094
1580417222.40593,5.27962157625689,-4.48615243762879,1.49538414587619
1580417222.40994,5.09651331349664,-4.42511635004189,0.946059357595232
1580417222.41394,4.42511635004189,-4.42511635004189,0.51880674448762
1580417222.41794,3.93682764934761,-4.48615243762879,0.091554131380235
1580417222.42194,3.32646677347975,-4.54718852521546,-0.0305180437933359
1580417222.42594,3.20439459830618,-4.73029678797593,-0.091554131380235
1580417222.42994,2.53299763485165,-4.48615243762879,-0.396734569314049
1580417222.43393,1.0070954451819,-4.42511635004189,-0.885023270008332
1580417222.43793,0.0305180437933359,-4.66926070038903,-1.31227588311594
1580417222.44193,-0.274662394140478,-4.8523689631495,-1.37331197070262
1580417222.44593,0.213626306553806,-4.97444113832307,-1.49538414587619
1580417222.44993,0.885023270008332,-4.91340505073617,-1.61745632104976
1580417222.45393,1.19020370794237,-4.42511635004189,-1.8616006713969
1580417222.45793,1.19020370794237,-4.05889982452118,-2.04470893415737
1580417222.46193,1.0681315327688,-3.81475547417404,-1.8616006713969
1580417222.46592,1.19020370794237,-3.69268329900046,-1.55642023346309
1580417222.46992,0.946059357595232,-3.44853894865332,-1.31227588311594
1580417222.47392,0.152590218966907,-3.44853894865332,-1.12916762035547
1580417222.47792,0.091554131380235,-3.20439459830618,-0.762951094834762
1580417222.48192,0.396734569314049,-3.02128633554594,-0.335698481727377
1580417222.48592,0.640878919661191,-2.89921416037237,-0.0305180437933359
1580417222.48993,0.946059357595232,-2.96025024795904,0.213626306553806
1580417222.49393,3.14335851071951,-3.02128633554594,0.70191500724809
1580417222.49793,4.91340505073617,-3.08232242313261,1.12916762035547
1580417222.50192,4.66926070038903,-2.7771419851988,1.0681315327688
1580417222.50592,3.93682764934761,-2.53299763485165,0.762951094834762
1580417222.50992,4.36408026245522,-2.7161058976119,0.640878919661191
1580417222.51392,5.21858548867021,-2.89921416037237,0.823987182421661
1580417222.51792,6.01205462729831,-2.7771419851988,0.946059357595232
1580417222.52192,6.37827115281902,-2.53299763485165,0.762951094834762
1580417222.52592,7.23277637903402,-2.34988937209118,0.579842832074519
1580417222.52992,7.7821011673152,-2.22781719691761,0.823987182421661
1580417222.53392,8.45349813076973,-2.04470893415737,0.946059357595232
1580417222.53791,8.02624551766235,-1.8616006713969,0.885023270008332
1580417222.54191,7.66002899214163,-1.80056458381023,0.885023270008332
1580417222.54591,7.29381246662092,-1.43434805828952,0.762951094834762
1580417222.54991,6.62241550316617,-1.0070954451819,0.70191500724809
1580417222.55391,5.09651331349664,-0.70191500724809,0.213626306553806
1580417222.55791,3.08232242313261,-0.579842832074519,-0.152590218966907
1580417222.56191,2.10574502174404,-0.823987182421661,-0.152590218966907
1580417222.5659,2.28885328450451,-1.12916762035547,0.0305180437933359
1580417222.56989,1.98367284657047,-1.19020370794237,-0.152590218966907
1580417222.57388,1.0681315327688,-1.25123979552905,-0.51880674448762
1580417222.57788,1.0070954451819,-1.0681315327688,-0.335698481727377
1580417222.58188,1.73952849622333,-1.12916762035547,-0.091554131380235
1580417222.58588,2.10574502174404,-1.19020370794237,0.213626306553806
1580417222.58988,2.16678110933094,-1.12916762035547,0.51880674448762
1580417222.59388,2.16678110933094,-0.946059357595232,1.0681315327688
1580417222.59788,1.55642023346309,-0.70191500724809,1.55642023346309
1580417222.60187,0.579842832074519,-0.640878919661191,1.55642023346309
1580417222.60587,-0.0305180437933359,-0.823987182421661,1.55642023346309
1580417222.60987,0.457770656900948,-1.12916762035547,1.67849240863666
1580417222.61387,1.8616006713969,-1.43434805828952,1.73952849622333
1580417222.61787,3.26543068589308,-1.61745632104976,1.80056458381023
1580417222.62187,3.63164721141379,-1.80056458381023,1.9226367589838
1580417222.62587,3.44853894865332,-1.80056458381023,1.98367284657047
1580417222.62987,3.93682764934761,-2.34988937209118,2.04470893415737
1580417222.63386,5.76791027695117,-2.83817807278547,2.28885328450451
1580417222.63786,8.20935378042259,-2.89921416037237,3.14335851071951
1580417222.64186,10.1014724956131,-2.83817807278547,3.63164721141379
1580417222.64586,11.0170138094147,-2.7161058976119,4.24200808728165
1580417222.64987,10.650797283894,-2.47196154726475,4.66926070038903
1580417222.65387,9.73525597009234,-1.49538414587619,4.48615243762879
1580417222.65787,8.69764248111687,-1.55642023346309,4.11993591210808
1580417222.66187,7.35484855420759,-1.67849240863666,3.69268329900046
1580417222.66587,6.62241550316617,-1.55642023346309,3.38750286106665
1580417222.66986,6.07309071488521,-1.0681315327688,2.7161058976119
1580417222.67386,4.66926070038903,-0.70191500724809,2.04470893415737
1580417222.67786,2.7771419851988,-0.274662394140478,1.0681315327688
1580417222.68186,1.98367284657047,0.0305180437933359,0.457770656900948
1580417222.68586,1.61745632104976,0.091554131380235,0.0305180437933359
1580417222.68986,0.396734569314049,0.0305180437933359,-0.579842832074519
1580417222.69386,-1.0681315327688,0.396734569314049,-1.49538414587619
1580417222.69786,-2.22781719691761,0.823987182421661,-1.9226367589838
1580417222.70185,-3.26543068589308,1.12916762035547,-2.16678110933094
1580417222.70585,-4.48615243762879,1.19020370794237,-2.65506981002522
1580417222.70985,-4.36408026245522,0.946059357595232,-2.7161058976119
1580417222.71385,-3.20439459830618,0.70191500724809,-2.34988937209118
1580417222.71785,-2.10574502174404,0.51880674448762,-1.9226367589838
1580417222.72185,-2.16678110933094,0.457770656900948,-1.43434805828952
1580417222.72585,-2.89921416037237,0.396734569314049,-1.12916762035547
1580417222.72986,-3.69268329900046,0.396734569314049,-0.885023270008332
1580417222.73386,-5.03547722590974,0.274662394140478,-1.0070954451819
1580417222.73786,-5.95101853971164,0.091554131380235,-1.37331197070262
1580417222.74185,-6.43930724040592,-0.0305180437933359,-1.37331197070262
1580417222.74585,-6.31723506523235,-0.213626306553806,-1.43434805828952
1580417222.74985,-5.88998245212474,-0.213626306553806,-1.31227588311594
1580417222.75385,-4.91340505073617,-0.0305180437933359,-0.946059357595232
1580417222.75785,-3.38750286106665,0.0305180437933359,-0.457770656900948
1580417222.76185,-2.16678110933094,0.335698481727377,-0.274662394140478
1580417222.76585,-1.43434805828952,0.579842832074519,-0.0305180437933359
1580417222.76985,-1.67849240863666,0.823987182421661,0.091554131380235
1580417222.77384,-1.49538414587619,0.885023270008332,0.152590218966907
1580417222.77784,-0.274662394140478,1.0681315327688,0.51880674448762
1580417222.78184,0.51880674448762,1.37331197070262,0.457770656900948
1580417222.78584,-0.0305180437933359,1.80056458381023,0.091554131380235
1580417222.78984,-1.19020370794237,2.04470893415737,-0.335698481727377
1580417222.79384,-1.49538414587619,1.8616006713969,-0.396734569314049
1580417222.79784,-0.579842832074519,1.67849240863666,-0.091554131380235
1580417222.80184,0.51880674448762,1.43434805828952,-0.152590218966907
1580417222.80583,1.37331197070262,1.49538414587619,0.0305180437933359
1580417222.80981,1.98367284657047,1.67849240863666,0.51880674448762
1580417222.81381,2.41092545967808,1.9226367589838,1.25123979552905
1580417222.81781,2.16678110933094,1.98367284657047,1.8616006713969
1580417222.82181,0.885023270008332,2.22781719691761,1.98367284657047
1580417222.82581,0.152590218966907,2.10574502174404,1.67849240863666
1580417222.82981,1.0070954451819,1.61745632104976,1.80056458381023
1580417222.83381,1.8616006713969,1.12916762035547,1.8616006713969
1580417222.83781,2.41092545967808,0.946059357595232,1.8616006713969
1580417222.8418,2.34988937209118,1.19020370794237,1.9226367589838
1580417222.8458,1.61745632104976,1.12916762035547,1.9226367589838
1580417222.8498,0.640878919661191,0.946059357595232,1.55642023346309
1580417222.8538,0.091554131380235,0.51880674448762,1.37331197070262
1580417222.8578,-0.213626306553806,0.091554131380235,1.25123979552905
1580417222.8618,0.274662394140478,-0.091554131380235,1.31227588311594
1580417222.8658,1.12916762035547,-0.274662394140478,1.61745632104976
1580417222.86979,1.67849240863666,-0.213626306553806,1.9226367589838
1580417222.87379,1.55642023346309,0.0305180437933359,2.04470893415737
1580417222.87779,0.762951094834762,-0.0305180437933359,2.04470893415737
1580417222.88179,0.213626306553806,-0.335698481727377,1.73952849622333
1580417222.88579,0.579842832074519,-0.823987182421661,1.61745632104976
1580417222.8898,0.823987182421661,-1.31227588311594,1.55642023346309
1580417222.8938,0.823987182421661,-1.43434805828952,0.885023270008332
1580417222.8978,0.762951094834762,-1.25123979552905,0.213626306553806
1580417222.9018,0.70191500724809,-1.49538414587619,-0.091554131380235
1580417222.9058,0.640878919661191,-1.67849240863666,-0.152590218966907
1580417222.90979,0.0305180437933359,-1.49538414587619,-0.274662394140478
1580417222.91379,-0.51880674448762,-1.37331197070262,-0.762951094834762
1580417222.91779,-0.70191500724809,-1.37331197070262,-1.0070954451819
1580417222.92179,0.335698481727377,-1.31227588311594,-1.12916762035547
1580417222.92579,1.31227588311594,-1.0070954451819,-1.31227588311594
1580417222.92979,1.49538414587619,-0.579842832074519,-1.61745632104976
1580417222.93379,1.12916762035547,-0.152590218966907,-1.8616006713969
1580417222.93779,0.762951094834762,0.152590218966907,-1.80056458381023
1580417222.94178,0.70191500724809,0.274662394140478,-1.67849240863666
1580417222.94578,1.37331197070262,0.335698481727377,-1.49538414587619
1580417222.94978,2.16678110933094,0.457770656900948,-1.12916762035547
1580417222.95378,2.96025024795904,0.51880674448762,-0.823987182421661
1580417222.95778,3.08232242313261,0.823987182421661,-0.823987182421661
1580417222.96178,2.34988937209118,0.885023270008332,-0.885023270008332
1580417222.96578,1.37331197070262,0.762951094834762,-0.823987182421661
1580417222.96979,0.946059357595232,0.762951094834762,-0.762951094834762
1580417222.97379,0.946059357595232,0.762951094834762,-0.51880674448762
1580417222.97778,1.0681315327688,1.0681315327688,-0.640878919661191
1580417222.98178,1.0681315327688,1.31227588311594,-0.762951094834762
1580417222.98578,0.51880674448762,1.37331197070262,-0.70191500724809
1580417222.98978,0.457770656900948,1.19020370794237,-0.396734569314049
1580417222.99378,0.762951094834762,0.885023270008332,-0.152590218966907
1580417222.99778,1.73952849622333,0.640878919661191,0.0305180437933359
1580417223.00178,2.7771419851988,1.0070954451819,0.274662394140478
1580417223.00578,3.14335851071951,1.25123979552905,0.70191500724809
1580417223.00977,2.53299763485165,1.37331197070262,0.885023270008332
1580417223.01377,1.49538414587619,1.55642023346309,0.823987182421661
1580417223.01777,0.457770656900948,1.55642023346309,0.946059357595232
1580417223.02177,-0.457770656900948,1.19020370794237,0.640878919661191
1580417223.02577,-0.823987182421661,1.31227588311594,-0.0305180437933359
1580417223.02977,-1.0070954451819,1.49538414587619,-0.396734569314049
1580417223.03377,-1.37331197070262,1.67849240863666,-0.335698481727377
1580417223.03777,-1.73952849622333,1.98367284657047,-0.640878919661191
1580417223.04176,-1.31227588311594,1.73952849622333,-0.579842832074519
1580417223.04576,-0.091554131380235,1.73952849622333,-0.274662394140478
1580417223.04974,1.61745632104976,1.73952849622333,0.0305180437933359
1580417223.05374,2.65506981002522,2.10574502174404,0.152590218966907
1580417223.05774,3.26543068589308,2.59403372243833,0.335698481727377
1580417223.06174,3.57061112382689,2.65506981002522,1.12916762035547
1580417223.06574,3.26543068589308,2.7771419851988,1.55642023346309
1580417223.06974,2.7161058976119,2.65506981002522,1.9226367589838
1580417223.07374,2.28885328450451,2.34988937209118,1.9226367589838
1580417223.07773,2.22781719691761,2.04470893415737,1.98367284657047
1580417223.08173,2.65506981002522,1.80056458381023,1.8616006713969
1580417223.08573,3.14335851071951,1.73952849622333,1.67849240863666
1580417223.08973,3.20439459830618,1.67849240863666,1.43434805828952
1580417223.09373,2.7771419851988,1.61745632104976,1.61745632104976
1580417223.09773,1.98367284657047,1.43434805828952,1.80056458381023
1580417223.10173,1.0070954451819,1.0681315327688,1.67849240863666
1580417223.10573,0.823987182421661,0.579842832074519,1.49538414587619
1580417223.10972,0.946059357595232,0.274662394140478,1.31227588311594
1580417223.11372,1.55642023346309,0.335698481727377,1.31227588311594
1580417223.11772,2.10574502174404,0.335698481727377,1.67849240863666
1580417223.12172,2.22781719691761,0.0305180437933359,1.9226367589838
1580417223.12572,1.73952849622333,-0.274662394140478,1.9226367589838
1580417223.12973,1.43434805828952,-0.823987182421661,1.98367284657047
1580417223.13373,1.8616006713969,-1.0681315327688,1.98367284657047
1580417223.13773,2.65506981002522,-1.0070954451819,1.9226367589838
1580417223.14173,3.20439459830618,-1.0681315327688,1.61745632104976
1580417223.14573,3.69268329900046,-1.19020370794237,1.49538414587619
1580417223.14972,3.02128633554594,-1.19020370794237,1.55642023346309
1580417223.15372,2.16678110933094,-1.49538414587619,1.19020370794237
1580417223.15772,1.98367284657047,-1.80056458381023,0.823987182421661
1580417223.16172,2.04470893415737,-1.9226367589838,0.762951094834762
1580417223.16572,2.7161058976119,-1.98367284657047,0.640878919661191
1580417223.16972,3.44853894865332,-1.8616006713969,0.823987182421661
1580417223.17372,3.63164721141379,-1.67849240863666,1.0070954451819
1580417223.17771,3.14335851071951,-1.31227588311594,1.0070954451819
1580417223.18171,2.04470893415737,-1.31227588311594,0.885023270008332
1580417223.18571,1.37331197070262,-1.25123979552905,0.579842832074519
1580417223.18971,1.31227588311594,-1.19020370794237,0.335698481727377
1580417223.19371,1.55642023346309,-1.0070954451819,0.0305180437933359
1580417223.19771,1.55642023346309,-0.762951094834762,-0.213626306553806
1580417223.20171,1.67849240863666,-0.823987182421661,-0.579842832074519
1580417223.20571,1.98367284657047,-0.70191500724809,-0.640878919661191
1580417223.20969,1.98367284657047,-0.51880674448762,-0.335698481727377
1580417223.21369,1.9226367589838,-0.51880674448762,-0.51880674448762
1580417223.21768,1.80056458381023,-0.457770656900948,-0.823987182421661
1580417223.22168,1.49538414587619,-0.457770656900948,-1.0070954451819
1580417223.22568,1.61745632104976,-0.396734569314049,-1.0681315327688
1580417223.22968,2.16678110933094,-0.274662394140478,-1.25123979552905
1580417223.23368,3.26543068589308,-0.091554131380235,-0.885023270008332
1580417223.23768,4.8523689631495,0.152590218966907,-0.51880674448762
1580417223.24168,5.7068741893645,0.579842832074519,0.274662394140478
1580417223.24567,5.6458381017776,1.19020370794237,0.823987182421661
1580417223.24967,4.66926070038903,1.31227588311594,0.946059357595232
1580417223.25367,3.44853894865332,1.0681315327688,0.946059357595232
1580417223.25767,2.41092545967808,0.762951094834762,1.0681315327688
1580417223.26167,2.28885328450451,0.335698481727377,0.946059357595232
1580417223.26567,2.83817807278547,0.0305180437933359,1.0070954451819
1580417223.26967,3.08232242313261,-0.152590218966907,1.12916762035547
1580417223.27367,3.20439459830618,-0.274662394140478,1.25123979552905
1580417223.27766,2.7771419851988,-0.335698481727377,1.31227588311594
1580417223.28166,1.98367284657047,-0.457770656900948,1.12916762035547
1580417223.28566,0.823987182421661,-0.946059357595232,0.885023270008332
1580417223.28967,-0.0305180437933359,-1.31227588311594,0.396734569314049
1580417223.29367,0.091554131380235,-1.37331197070262,0.0305180437933359
1580417223.29767,0.457770656900948,-1.55642023346309,-0.213626306553806
1580417223.30167,0.396734569314049,-1.73952849622333,-0.213626306553806
1580417223.30567,-0.274662394140478,-1.73952849622333,-0.213626306553806
1580417223.30967,-0.213626306553806,-2.10574502174404,-0.274662394140478
1580417223.31366,0.274662394140478,-2.28885328450451,-0.213626306553806
1580417223.31766,0.70191500724809,-2.22781719691761,-0.70191500724809
1580417223.32166,1.49538414587619,-2.34988937209118,-1.12916762035547
1580417223.32566,1.98367284657047,-2.28885328450451,-0.823987182421661
1580417223.32966,2.04470893415737,-2.04470893415737,-0.274662394140478
1580417223.33366,1.12916762035547,-1.67849240863666,-0.091554131380235
1580417223.33766,-0.091554131380235,-1.73952849622333,-0.335698481727377
1580417223.34166,-0.885023270008332,-1.73952849622333,-0.396734569314049
1580417223.34565,-0.823987182421661,-1.9226367589838,-0.274662394140478
1580417223.34965,0.0305180437933359,-2.22781719691761,-0.335698481727377
1580417223.35365,1.19020370794237,-2.22781719691761,-0.396734569314049
1580417223.35765,2.04470893415737,-2.34988937209118,-0.457770656900948
1580417223.36165,2.34988937209118,-2.65506981002522,-0.396734569314049
1580417223.36565,2.34988937209118,-3.02128633554594,-0.274662394140478
1580417223.36966,2.22781719691761,-3.32646677347975,-0.091554131380235
1580417223.37366,2.04470893415737,-3.32646677347975,-0.274662394140478
1580417223.37766,1.49538414587619,-3.26543068589308,-0.70191500724809
1580417223.38165,1.0070954451819,-3.14335851071951,-0.946059357595232
1580417223.38565,0.579842832074519,-3.14335851071951,-1.0681315327688
1580417223.38965,0.457770656900948,-3.02128633554594,-1.19020370794237
1580417223.39365,0.640878919661191,-3.08232242313261,-1.12916762035547
1580417223.39765,0.823987182421661,-3.20439459830618,-0.946059357595232
1580417223.40165,0.457770656900948,-3.44853894865332,-0.640878919661191
1580417223.40565,0.396734569314049,-3.38750286106665,-0.335698481727377
1580417223.40965,0.335698481727377,-3.44853894865332,0.091554131380235
1580417223.41365,-0.152590218966907,-3.44853894865332,0.152590218966907
1580417223.41764,-0.640878919661191,-3.38750286106665,0.0305180437933359
1580417223.42164,-0.579842832074519,-3.32646677347975,0.0305180437933359
1580417223.42564,-0.274662394140478,-3.20439459830618,0.274662394140478
1580417223.42964,-0.152590218966907,-3.08232242313261,0.51880674448762
1580417223.43364,0.70191500724809,-3.32646677347975,0.823987182421661
1580417223.43764,2.53299763485165,-3.26543068589308,1.67849240863666
1580417223.44164,3.93682764934761,-2.96025024795904,2.10574502174404
1580417223.44563,3.99786373693451,-2.7161058976119,1.98367284657047
1580417223.44962,2.47196154726475,-2.41092545967808,1.73952849622333
1580417223.45361,0.70191500724809,-2.34988937209118,1.49538414587619
1580417223.45761,0.152590218966907,-2.41092545967808,1.31227588311594
1580417223.46161,0.152590218966907,-2.65506981002522,0.885023270008332
1580417223.46561,0.579842832074519,-2.41092545967808,0.152590218966907
1580417223.46961,0.946059357595232,-2.16678110933094,-0.274662394140478
1580417223.47361,0.946059357595232,-1.9226367589838,-0.213626306553806
1580417223.47761,0.946059357595232,-1.25123979552905,0.091554131380235
1580417223.4816,0.152590218966907,-0.579842832074519,0.091554131380235
1580417223.4856,-1.0681315327688,-0.396734569314049,-0.0305180437933359
1580417223.4896,-1.12916762035547,-0.885023270008332,-0.213626306553806
1580417223.4936,-0.0305180437933359,-1.0070954451819,0.213626306553806
1580417223.4976,1.25123979552905,-0.762951094834762,0.51880674448762
1580417223.5016,1.67849240863666,-0.51880674448762,0.274662394140478
1580417223.5056,1.31227588311594,-0.152590218966907,0.274662394140478
1580417223.5096,0.946059357595232,-0.0305180437933359,0.457770656900948
1580417223.51359,0.274662394140478,0.152590218966907,0.457770656900948
1580417223.51759,-0.396734569314049,-0.152590218966907,0.152590218966907
1580417223.52159,-0.579842832074519,-0.213626306553806,-0.091554131380235
1580417223.52559,-0.762951094834762,-0.091554131380235,-0.274662394140478
1580417223.5296,-0.946059357595232,0.152590218966907,-0.396734569314049
1580417223.5336,-1.25123979552905,0.213626306553806,-0.579842832074519
1580417223.5376,-1.43434805828952,0.152590218966907,-0.70191500724809
1580417223.5416,-1.43434805828952,0.091554131380235,-0.579842832074519
1580417223.5456,-0.885023270008332,-0.0305180437933359,-0.70191500724809
1580417223.54959,-0.335698481727377,0.213626306553806,-0.885023270008332
1580417223.55359,0.213626306553806,0.274662394140478,-0.762951094834762
1580417223.55759,0.335698481727377,0.51880674448762,-0.51880674448762
1580417223.56159,0.457770656900948,0.70191500724809,-0.335698481727377
1580417223.56559,0.091554131380235,1.12916762035547,-0.274662394140478
1580417223.56959,-0.457770656900948,1.25123979552905,-0.457770656900948
1580417223.57359,-1.98367284657047,1.37331197070262,-0.396734569314049
1580417223.57759,-2.7161058976119,1.19020370794237,-1.0070954451819
1580417223.58159,-2.65506981002522,1.25123979552905,-1.43434805828952
1580417223.58558,-1.37331197070262,1.12916762035547,-1.49538414587619
1580417223.58958,-0.213626306553806,1.25123979552905,-1.25123979552905
1580417223.59358,0.152590218966907,1.43434805828952,-1.0681315327688
1580417223.59758,-0.396734569314049,1.67849240863666,-0.51880674448762
1580417223.60158,-1.8616006713969,1.49538414587619,-0.213626306553806
1580417223.60558,-2.16678110933094,1.19020370794237,-0.091554131380235
1580417223.60959,-1.19020370794237,1.12916762035547,0.213626306553806
1580417223.61359,-0.213626306553806,0.885023270008332,0.0305180437933359
1580417223.61759,0.70191500724809,0.640878919661191,0.091554131380235
1580417223.62158,1.49538414587619,0.885023270008332,0.762951094834762
1580417223.62558,1.9226367589838,1.25123979552905,1.37331197070262
1580417223.62958,1.12916762035547,1.19020370794237,1.61745632104976
1580417223.63358,0.396734569314049,0.762951094834762,1.55642023346309
1580417223.63758,1.0070954451819,0.640878919661191,1.9226367589838
1580417223.64158,1.61745632104976,0.640878919661191,2.22781719691761
1580417223.64558,1.80056458381023,0.946059357595232,1.98367284657047
1580417223.64958,1.67849240863666,1.0070954451819,1.80056458381023
1580417223.65357,1.67849240863666,1.0681315327688,1.67849240863666
1580417223.65757,1.37331197070262,1.12916762035547,1.43434805828952
1580417223.66157,0.640878919661191,1.19020370794237,1.0681315327688
1580417223.66557,-0.091554131380235,1.12916762035547,0.579842832074519
1580417223.66957,-0.51880674448762,1.19020370794237,0.152590218966907
1580417223.67357,-0.640878919661191,1.25123979552905,-0.152590218966907
1580417223.67757,-0.579842832074519,1.0681315327688,-0.213626306553806
1580417223.68157,0.274662394140478,1.0681315327688,0.0305180437933359
1580417223.68556,0.885023270008332,1.0681315327688,0.335698481727377
1580417223.68954,0.762951094834762,1.19020370794237,0.335698481727377
1580417223.69354,0.579842832074519,1.0681315327688,0.579842832074519
1580417223.69754,0.274662394140478,0.762951094834762,0.885023270008332
1580417223.70154,0.457770656900948,0.51880674448762,1.19020370794237
1580417223.70554,0.823987182421661,0.579842832074519,1.12916762035547
1580417223.70954,0.762951094834762,0.51880674448762,0.946059357595232
1580417223.71354,1.0070954451819,0.335698481727377,0.762951094834762
